time,seconds_elapsed,z,y,x
1700868026607635500,0.106635498046875,-0.27046632766723633,-0.11919593811035156,-0.15018272399902344
1700868026624624000,0.1236240234375,-0.021572113037109375,-0.2270359992980957,-0.30114758014678955
1700868026641619500,0.140619384765625,0.33629322052001953,-0.27837276458740234,-0.29292619228363037
1700868026658600700,0.1576005859375,0.48911571502685547,-0.3018975257873535,-0.2563450336456299
1700868026675587600,0.174587646484375,0.4277811050415039,-0.24840402603149414,-0.15580642223358154
1700868026692574500,0.191574462890625,0.2881622314453125,-0.2814521789550781,-0.13846492767333984
1700868026709567700,0.208567626953125,-0.10346603393554688,-0.38083457946777344,-0.27920007705688477
1700868026726553600,0.2255537109375,-0.39243173599243164,-0.5419654846191406,-0.4273955821990967
1700868026743542500,0.24254248046875,-0.5442161560058594,-0.7264623641967773,-0.5917036533355713
1700868026760547800,0.2595478515625,-0.763390064239502,-1.0483136177062988,-0.7131345272064209
1700868026777527000,0.276527099609375,-1.3684511184692383,-1.3277010917663574,-0.455483078956604
1700868026794520000,0.29352001953125,-1.82841157913208,-1.3604397773742676,-0.4800163507461548
1700868026811508200,0.31050830078125,-1.6752610206604004,-1.6539463996887207,-0.36031126976013184
1700868026828496000,0.327495849609375,-0.5096321105957031,-2.092116355895996,-0.5360912084579468
1700868026845486800,0.34448681640625,0.5087251663208008,-2.7478535175323486,-0.40962815284729004
1700868026862472000,0.361471923828125,1.097130298614502,-3.359229326248169,-0.608859658241272
1700868026879461000,0.378461181640625,0.8031306266784668,-3.9913649559020996,-1.5081130266189575
1700868026896454700,0.39545458984375,0.14720869064331055,-4.859152793884277,-2.635359525680542
1700868026913438700,0.412438720703125,-0.0699462890625,-5.88343620300293,-3.5915985107421875
1700868026930420500,0.42942041015625,-0.16542911529541016,-6.824466705322266,-4.147263526916504
1700868026947420200,0.446420166015625,-2.4568428993225098,-6.658335208892822,-4.035952568054199
1700868026964407000,0.463406982421875,-7.029573440551758,-5.897477149963379,-2.403625011444092
1700868026981397200,0.480397216796875,-9.618282318115234,-5.118827819824219,-0.03408098220825195
1700868026998391600,0.4973916015625,-6.103734016418457,-3.943962335586548,0.9809260368347168
1700868027015375600,0.514375732421875,-1.7131561040878296,-3.21950364112854,0.9460997581481934
1700868027032360000,0.53135986328125,2.065180540084839,-1.9666428565979004,0.8123288154602051
1700868027049350000,0.548349853515625,1.690744400024414,0.6995124816894531,1.0891680717468262
1700868027066343700,0.56534375,-2.736440420150757,2.472151756286621,2.5041189193725586
1700868027083337200,0.582337158203125,-3.6682682037353516,3.764559745788574,3.556028366088867
1700868027100320800,0.59932080078125,1.3151390552520752,4.271610736846924,4.416393280029297
1700868027117308700,0.61630859375,6.589333534240723,4.2022857666015625,4.363310813903809
1700868027134293200,0.633293212890625,9.83279037475586,4.090297698974609,3.817931652069092
1700868027151285500,0.650285400390625,10.054462432861328,4.056615829467773,2.4743165969848633
1700868027168273400,0.6672734375,7.401650428771973,3.7436704635620117,0.5067005157470703
1700868027185253600,0.684253662109375,4.0843634605407715,2.974797248840332,-0.8851265907287598
1700868027202246400,0.701246337890625,0.7013840675354004,1.6420154571533203,-1.2939229011535645
1700868027219240200,0.718240234375,-0.17880582809448242,0.3449592590332031,-1.0275983810424805
1700868027236232200,0.735232177734375,1.6215989589691162,-0.4722703695297241,0.1885671615600586
1700868027253215500,0.752215576171875,2.67915940284729,-0.8669880628585815,0.5630664825439453
1700868027270206500,0.76920654296875,1.2036747932434082,-0.6757060289382935,-0.09259796142578125
1700868027287197400,0.786197509765625,-1.0586717128753662,0.27025485038757324,-0.0033044815063476562
1700868027304181800,0.803181640625,-2.8350026607513428,1.2028720378875732,2.445103645324707
1700868027321162500,0.82016259765625,-2.2612786293029785,2.2949717044830322,4.5029802322387695
1700868027338163200,0.8371630859375,0.30158093571662903,3.282966375350952,4.951125144958496
1700868027355153000,0.85415283203125,1.6905125379562378,3.7438595294952393,2.252004623413086
1700868027372144000,0.87114404296875,1.2425230741500854,3.295161008834839,-0.0370941162109375
1700868027389134600,0.888134521484375,0.05177712440490723,1.8595788478851318,-1.4984097480773926
1700868027406111000,0.905111083984375,-0.6880993843078613,0.3311750888824463,-3.1790475845336914
1700868027423106600,0.9221064453125,-0.3872349262237549,-0.6948285102844238,-5.614177227020264
1700868027440100400,0.939100341796875,-0.06066584587097168,-1.3174757957458496,-7.4804792404174805
1700868027457087000,0.9560869140625,0.6483808755874634,-2.156627655029297,-8.385252952575684
1700868027474070300,0.9730703125,1.4998412132263184,-3.3238518238067627,-9.468935012817383
1700868027491062800,0.990062744140625,2.0576274394989014,-4.681411266326904,-9.026737213134766
1700868027508050400,1.007050537109375,1.502650499343872,-6.114578723907471,-6.270719528198242
1700868027525041400,1.02404150390625,2.349484443664551,-6.153865337371826,-6.060173511505127
1700868027542019300,1.041019287109375,3.5015716552734375,-5.422492980957031,-6.739243984222412
1700868027559017500,1.058017578125,3.4299163818359375,-5.585640907287598,-6.150960922241211
1700868027576007200,1.075007080078125,2.326784372329712,-6.283794403076172,-4.09612512588501
1700868027592992800,1.09199267578125,-1.2731380462646484,-8.015779495239258,4.179041862487793
1700868027609973000,1.108972900390625,-3.7785449028015137,-8.015702247619629,8.464786529541016
1700868027626972000,1.125971923828125,-0.5221991539001465,-6.687756538391113,8.519511222839355
1700868027643961600,1.142961669921875,3.8301186561584473,-6.009167671203613,8.359963417053223
1700868027660951600,1.15995166015625,4.372325420379639,-5.383965492248535,9.819894790649414
1700868027677939000,1.17693896484375,-0.6161251068115234,-5.480624198913574,15.328595161437988
1700868027694919700,1.193919677734375,-3.904954195022583,-4.055160999298096,19.873512268066406
1700868027711907000,1.210906982421875,-3.5692949295043945,-0.9738073348999023,19.00072479248047
1700868027728904700,1.22790478515625,-2.549858570098877,1.3457107543945312,15.635602951049805
1700868027745897500,1.2448974609375,-1.1198176145553589,3.5419838428497314,11.93166446685791
1700868027762881300,1.26188134765625,-1.3817614316940308,6.229740142822266,9.390070915222168
1700868027779874300,1.278874267578125,-2.532496929168701,8.045467376708984,8.887408256530762
1700868027796860000,1.29585986328125,-3.0558149814605713,9.110194206237793,8.52218246459961
1700868027813851400,1.312851318359375,-2.5503952503204346,10.020003318786621,5.028563976287842
1700868027830838300,1.32983837890625,-2.0589613914489746,10.514034271240234,0.48358964920043945
1700868027847826700,1.34682666015625,-1.3800071477890015,10.895395278930664,-3.0801029205322266
1700868027864817000,1.36381689453125,-0.9837874174118042,11.510477066040039,-4.139401435852051
1700868027881798400,1.38079833984375,-0.9491491317749023,12.122756958007812,-2.41184139251709
1700868027898792400,1.39779248046875,-1.293784737586975,12.284293174743652,0.17525911331176758
1700868027915787300,1.414787353515625,-0.6877825260162354,12.186729431152344,0.07270050048828125
1700868027932770800,1.431770751953125,0.6897470355033875,12.81274700164795,-2.997311592102051
1700868027949760800,1.4487607421875,2.097115993499756,13.910127639770508,-4.063460826873779
1700868027966751500,1.46575146484375,1.1128166913986206,15.368757247924805,-1.978381633758545
1700868027983734300,1.482734375,-2.0511388778686523,17.66908836364746,2.061159133911133
1700868028000728800,1.499728759765625,-4.317936897277832,19.081361770629883,7.877923011779785
1700868028017716500,1.516716552734375,-2.961602210998535,17.663373947143555,13.311936378479004
1700868028034705700,1.53370556640625,-0.6389142274856567,14.730767250061035,14.474575996398926
1700868028051695600,1.550695556640625,1.4316701889038086,12.369455337524414,15.382105827331543
1700868028068683000,1.56768310546875,1.1616177558898926,11.311687469482422,23.002506256103516
1700868028085674000,1.584674072265625,-0.0932844877243042,9.747076034545898,31.874099731445312
1700868028102657800,1.60165771484375,2.0025362968444824,8.280384063720703,38.181278228759766
1700868028119649500,1.6186494140625,1.965362787246704,5.28838586807251,42.494873046875
1700868028136640300,1.63564013671875,-1.3635509014129639,-2.6144495010375977,43.819541931152344
1700868028153624800,1.652624755859375,-3.0776805877685547,-11.019704818725586,35.67478942871094
1700868028170619000,1.669618896484375,-2.59499192237854,-16.06334686279297,24.292774200439453
1700868028187596000,1.686595947265625,-1.152867317199707,-18.856369018554688,15.952598571777344
1700868028204586500,1.70358642578125,2.9303698539733887,-20.659442901611328,10.516229629516602
1700868028221583000,1.7205830078125,8.377791404724121,-22.28357696533203,6.7133941650390625
1700868028238571800,1.73757177734375,12.668333053588867,-25.36194610595703,4.462262153625488
1700868028255551500,1.754551513671875,13.3748779296875,-28.588592529296875,1.114227294921875
1700868028272545800,1.7715458984375,11.98516845703125,-29.224124908447266,-3.391415596008301
1700868028289540400,1.788540283203125,9.618257522583008,-28.405750274658203,-7.504690647125244
1700868028306528500,1.805528564453125,8.390653610229492,-27.59980583190918,-8.17288589477539
1700868028323505700,1.822505615234375,7.330562591552734,-27.887550354003906,-6.47513484954834
1700868028340504800,1.8395048828125,5.676483154296875,-28.4373722076416,-3.7055022716522217
1700868028357494800,1.856494873046875,4.535737991333008,-27.224029541015625,-3.4333958625793457
1700868028374480100,1.873480224609375,4.688473224639893,-25.136343002319336,-3.8254547119140625
1700868028391471600,1.8904716796875,4.804269790649414,-24.107967376708984,-2.1686367988586426
1700868028408462600,1.907462646484375,4.171915054321289,-22.735416412353516,0.5634951591491699
1700868028425448000,1.924447998046875,0.3681821823120117,-20.719621658325195,7.174605369567871
1700868028442431700,1.941431640625,-1.1103911399841309,-17.529800415039062,11.416820526123047
1700868028459422700,1.958422607421875,-0.5047600269317627,-13.604310989379883,12.14008617401123
1700868028476420900,1.9754208984375,-2.836714267730713,-14.140658378601074,16.63849639892578
1700868028493393000,1.992392822265625,-8.459044456481934,-13.773223876953125,24.333118438720703
1700868028510393300,2.009393310546875,-12.263598442077637,-8.041166305541992,33.586463928222656
1700868028527376400,2.02637646484375,-6.228575706481934,-0.0566706657409668,44.79643249511719
1700868028544369200,2.043369140625,7.8918328285217285,7.487788677215576,54.76955032348633
1700868028561360100,2.060360107421875,11.605428695678711,10.083014488220215,43.23399353027344
1700868028578338300,2.07733837890625,10.909109115600586,11.52103042602539,24.035476684570312
1700868028595338800,2.0943388671875,4.862439155578613,14.286809921264648,11.722932815551758
1700868028612324000,2.111323974609375,-4.490569114685059,17.441265106201172,8.510778427124023
1700868028629303600,2.128303466796875,-10.079691886901855,19.702075958251953,8.348422050476074
1700868028646304300,2.14530419921875,-4.707511901855469,20.051647186279297,4.834830284118652
1700868028663293700,2.162293701171875,2.734431743621826,20.870311737060547,-0.8510489463806152
1700868028680282000,2.1792822265625,3.5255744457244873,21.229312896728516,-4.774309158325195
1700868028697272000,2.19627197265625,1.9140019416809082,20.964603424072266,-5.2484049797058105
1700868028714253000,2.213253173828125,-1.1024328470230103,20.330137252807617,-4.085392475128174
1700868028731248600,2.23024853515625,-5.251425743103027,20.07867431640625,-2.3283615112304688
1700868028748237000,2.247237060546875,-6.700493812561035,18.902801513671875,-1.3202457427978516
1700868028765227300,2.264227294921875,-3.8682754039764404,17.707372665405273,0.5389347076416016
1700868028782212600,2.281212646484375,0.9731050729751587,15.268269538879395,6.415899276733398
1700868028799202600,2.29820263671875,2.1452579498291016,12.850946426391602,14.26952838897705
1700868028816194800,2.31519482421875,-0.19893360137939453,11.438247680664062,19.205421447753906
1700868028833179000,2.332178955078125,-3.683126211166382,11.524099349975586,23.596168518066406
1700868028850170400,2.34917041015625,-3.8972511291503906,10.318803787231445,29.678991317749023
1700868028867158000,2.366157958984375,-0.39551496505737305,6.320662021636963,33.767356872558594
1700868028884148200,2.383148193359375,3.3331000804901123,1.0868873596191406,34.98212814331055
1700868028901146600,2.400146728515625,2.2101142406463623,-3.8700523376464844,36.10183334350586
1700868028918135600,2.417135498046875,1.985485315322876,-9.05750560760498,32.24207305908203
1700868028935107300,2.434107421875,3.1240813732147217,-15.829612731933594,24.622562408447266
1700868028952103000,2.45110302734375,2.9685096740722656,-21.867610931396484,16.511308670043945
1700868028969097700,2.46809765625,4.203088760375977,-26.35736846923828,9.871320724487305
1700868028986083600,2.48508349609375,6.1750288009643555,-29.239543914794922,4.331441402435303
1700868029003067100,2.502067138671875,7.7672905921936035,-31.220888137817383,0.6126738786697388
1700868029020059000,2.519058837890625,10.240767478942871,-32.31517791748047,-2.10544490814209
1700868029037048800,2.536048828125,13.025708198547363,-33.13225555419922,-3.3385064601898193
1700868029054032000,2.553031982421875,12.814395904541016,-33.24916458129883,-1.6187224388122559
1700868029071028500,2.570028564453125,10.024328231811523,-32.37241744995117,0.16535043716430664
1700868029088009500,2.587009521484375,6.5165300369262695,-30.66411018371582,1.1729896068572998
1700868029105006300,2.60400634765625,3.6159846782684326,-28.423816680908203,1.3757200241088867
1700868029121981000,2.62098095703125,1.3262312412261963,-26.524044036865234,4.191946506500244
1700868029138968300,2.63796826171875,0.3913400173187256,-25.600326538085938,12.139363288879395
1700868029155960300,2.654960205078125,3.4311375617980957,-22.475366592407227,20.8073673248291
1700868029172951000,2.671950927734375,3.9393868446350098,-17.701642990112305,24.17498207092285
1700868029189937400,2.6889375,-1.3388714790344238,-15.81747817993164,22.20608901977539
1700868029206928100,2.70592822265625,-6.751060962677002,-8.783186912536621,18.799724578857422
1700868029223917800,2.722917724609375,-8.051780700683594,-3.6737513542175293,39.567909240722656
1700868029240903200,2.739903076171875,-0.4512648582458496,1.8300564289093018,75.37189483642578
1700868029257905000,2.75690478515625,6.600225448608398,12.604914665222168,68.1751708984375
1700868029274893000,2.77389306640625,9.962699890136719,19.952068328857422,31.054779052734375
1700868029291869400,2.790869384765625,6.327182769775391,19.774194717407227,9.367673873901367
1700868029308865500,2.807865478515625,1.2928462028503418,20.34954071044922,1.645064353942871
1700868029325851100,2.82485107421875,-3.7219655513763428,23.266740798950195,-1.5683956146240234
1700868029342846200,2.84184619140625,-4.511853218078613,24.99785804748535,1.401784896850586
1700868029359834400,2.85883447265625,-2.2091331481933594,26.500377655029297,1.2920007705688477
1700868029376831500,2.87583154296875,0.01602804660797119,26.71347999572754,-2.6009883880615234
1700868029393810200,2.89281005859375,1.6553305387496948,25.250452041625977,-5.114418983459473
1700868029410802700,2.909802734375,1.678555965423584,23.03899574279785,-5.644225120544434
1700868029427787300,2.926787353515625,-1.0696418285369873,21.1695499420166,-4.254395008087158
1700868029444782000,2.943781982421875,-2.81343936920166,18.926237106323242,-0.17960357666015625
1700868029461770500,2.9607705078125,-1.0686631202697754,16.50020408630371,3.912984848022461
1700868029478757400,2.97775732421875,1.337742567062378,15.652159690856934,8.65752124786377
1700868029495746300,2.994746337890625,1.0641932487487793,14.43000316619873,18.379188537597656
1700868029512733700,3.011733642578125,-2.123615264892578,12.884387969970703,26.748056411743164
1700868029529724400,3.028724365234375,-0.433693528175354,13.760994911193848,31.167436599731445
1700868029546713600,3.045713623046875,2.1281538009643555,10.393238067626953,40.33491516113281
1700868029563694300,3.0626943359375,3.94819974899292,5.58181095123291,43.15259552001953
1700868029580691200,3.079691162109375,0.542567253112793,-2.4038872718811035,42.596866607666016
1700868029597677800,3.096677734375,-2.4590306282043457,-10.031357765197754,33.93656921386719
1700868029614671600,3.113671630859375,-1.8209753036499023,-15.986871719360352,23.654970169067383
1700868029631648000,3.13064794921875,1.7372527122497559,-22.677143096923828,17.52904510498047
1700868029648646700,3.147646728515625,9.453254699707031,-28.83294677734375,10.821290969848633
1700868029665625600,3.16462548828125,16.325109481811523,-32.43081283569336,4.547451496124268
1700868029682624500,3.18162451171875,15.559937477111816,-33.39501190185547,0.30977585911750793
1700868029699614000,3.198614013671875,11.378432273864746,-34.13684844970703,-0.849383533000946
1700868029716599800,3.215599853515625,8.523345947265625,-35.90708541870117,-0.6218843460083008
1700868029733583400,3.232583251953125,8.563318252563477,-35.64402770996094,-4.3474297523498535
1700868029750567000,3.24956689453125,9.608293533325195,-33.01601791381836,-9.28015422821045
1700868029767565300,3.2665654296875,10.426061630249023,-31.691322326660156,-7.152115345001221
1700868029784562000,3.28356201171875,11.222614288330078,-31.891342163085938,4.064260482788086
1700868029801547000,3.300547119140625,8.40120792388916,-29.70822525024414,16.822620391845703
1700868029818535200,3.31753515625,1.2922241687774658,-24.043216705322266,21.15474510192871
1700868029835514000,3.33451416015625,-3.6452901363372803,-19.17439842224121,18.79193878173828
1700868029852512800,3.3515126953125,-5.529740810394287,-17.440418243408203,15.659232139587402
1700868029869502500,3.36850244140625,-8.631589889526367,-12.395874977111816,14.405898094177246
1700868029886490600,3.38549072265625,-10.955910682678223,-5.992796897888184,35.72959899902344
1700868029903469300,3.40246923828125,-3.0323686599731445,1.0780210494995117,70.30561828613281
1700868029920465400,3.41946533203125,4.230230331420898,15.181304931640625,66.38516998291016
1700868029937450500,3.436450439453125,2.4221351146698,22.820720672607422,34.98643493652344
1700868029954446000,3.453446044921875,-3.454650640487671,22.982378005981445,17.225910186767578
1700868029971435300,3.470435302734375,-2.752164125442505,20.42400550842285,10.660411834716797
1700868029988423700,3.487423583984375,0.9675993919372559,19.741437911987305,2.97031307220459
1700868030005413000,3.5044130859375,2.9635262489318848,19.539997100830078,-1.7984137535095215
1700868030022391300,3.521391357421875,3.8238301277160645,20.20021629333496,-4.4859395027160645
1700868030039392800,3.538392822265625,2.3813636302948,21.36345672607422,-6.943716526031494
1700868030056364000,3.555364013671875,-0.5593075752258301,21.468168258666992,-8.596320152282715
1700868030073363700,3.57236376953125,-2.88576602935791,21.162324905395508,-10.267455101013184
1700868030090352000,3.58935205078125,-3.494046449661255,20.82978057861328,-11.068671226501465
1700868030107337500,3.60633740234375,-3.2506139278411865,19.94065284729004,-9.87162971496582
1700868030124323600,3.623323486328125,-1.1445338726043701,18.026838302612305,-6.531996726989746
1700868030141316600,3.640316650390625,0.5004866123199463,17.119356155395508,-0.9793729782104492
1700868030158300700,3.65730078125,0.858044445514679,16.343259811401367,9.763325691223145
1700868030175292700,3.674292724609375,1.1101701259613037,15.189200401306152,17.16829490661621
1700868030192280000,3.691280029296875,2.7786433696746826,14.710055351257324,20.52916717529297
1700868030209268700,3.708268798828125,4.558449745178223,12.87204647064209,26.09406280517578
1700868030226259200,3.72525927734375,5.97462797164917,11.490631103515625,30.010433197021484
1700868030243247900,3.742247802734375,3.8069353103637695,8.70748519897461,31.379180908203125
1700868030260234500,3.759234375,-2.4009408950805664,3.376091480255127,37.26188278198242
1700868030277227500,3.7762275390625,-7.763091087341309,-7.151637077331543,41.20941162109375
1700868030294212000,3.793212158203125,-0.720099687576294,-15.21216106414795,27.766633987426758
1700868030311206100,3.8102060546875,9.309953689575195,-22.395498275756836,14.443379402160645
1700868030328193000,3.827193115234375,14.678388595581055,-26.756366729736328,5.662248611450195
1700868030345192200,3.844192138671875,12.156368255615234,-29.212303161621094,1.0363593101501465
1700868030362178300,3.86117822265625,7.120375156402588,-30.49211311340332,-0.6723406910896301
1700868030379163100,3.8781630859375,6.036493301391602,-33.10328674316406,-0.17538964748382568
1700868030396160000,3.895159912109375,8.4044771194458,-34.79463577270508,-2.1269466876983643
1700868030413143600,3.9121435546875,10.60892391204834,-33.8699836730957,-6.3324456214904785
1700868030430135300,3.92913525390625,9.114252090454102,-31.356199264526367,-8.849373817443848
1700868030447123000,3.946123046875,5.909435749053955,-29.124378204345703,-5.844718933105469
1700868030464111000,3.963111083984375,4.460357666015625,-28.47215461730957,1.8735389709472656
1700868030481090000,3.980090087890625,3.1012625694274902,-26.921504974365234,10.087129592895508
1700868030498089500,3.99708935546875,0.39962029457092285,-23.55484390258789,16.937023162841797
1700868030515077600,4.01407763671875,-3.8917343616485596,-20.205547332763672,18.865379333496094
1700868030532066600,4.031066650390625,-10.133418083190918,-13.878718376159668,12.504903793334961
1700868030549056000,4.048055908203125,-14.847795486450195,-6.9503278732299805,16.390640258789062
1700868030566044200,4.065044189453125,-9.029333114624023,-6.329494953155518,43.69646453857422
1700868030583034400,4.082034423828125,7.416866302490234,-0.4853542447090149,72.94975280761719
1700868030600018700,4.099018798828125,19.264007568359375,14.761163711547852,58.8417854309082
1700868030617003300,4.116003173828125,17.812257766723633,24.06085777282715,24.157718658447266
1700868030633999600,4.13299951171875,-2.7338321208953857,24.131366729736328,12.96627426147461
1700868030650989000,4.149989013671875,-11.611958503723145,20.92835807800293,9.568343162536621
1700868030667967500,4.166967529296875,-2.5366857051849365,17.709592819213867,1.6080923080444336
1700868030684966000,4.1839658203125,6.206488609313965,16.377132415771484,-4.650180816650391
1700868030701945000,4.200945068359375,9.542701721191406,17.1481876373291,-8.143904685974121
1700868030718944500,4.217944580078125,7.726954460144043,18.459548950195312,-9.079316139221191
1700868030735932700,4.2349326171875,1.2109665870666504,18.94446563720703,-10.100729942321777
1700868030752912600,4.25191259765625,-5.588064670562744,19.14478874206543,-13.64478874206543
1700868030769910500,4.26891064453125,-6.668504238128662,20.48560333251953,-16.54739761352539
1700868030786899700,4.285899658203125,-1.2142512798309326,20.007827758789062,-12.357534408569336
1700868030803888000,4.30288818359375,4.13165283203125,19.13062286376953,-2.8590011596679688
1700868030820874200,4.319874267578125,5.606540679931641,17.571428298950195,9.103618621826172
1700868030837869000,4.336869140625,4.3715925216674805,16.36228370666504,11.994258880615234
1700868030854847000,4.353846923828125,2.4217491149902344,15.61722183227539,13.357718467712402
1700868030871835400,4.37083544921875,5.722837448120117,18.2496280670166,19.429004669189453
1700868030888835300,4.38783544921875,5.358885288238525,14.616273880004883,33.76032638549805
1700868030905821200,4.4048212890625,2.2661075592041016,11.418243408203125,38.21174240112305
1700868030922810600,4.421810546875,-4.339948654174805,6.118748664855957,37.26386642456055
1700868030939798500,4.438798583984375,-7.030793190002441,-4.068934440612793,35.44481658935547
1700868030956788200,4.455788330078125,0.432450532913208,-15.330181121826172,27.510971069335938
1700868030973766000,4.472765869140625,9.137566566467285,-21.87192153930664,15.417320251464844
1700868030990765800,4.489765869140625,12.800240516662598,-26.148326873779297,7.309622764587402
1700868031007751400,4.50675146484375,9.616018295288086,-29.313432693481445,3.8412363529205322
1700868031024746000,4.52374609375,4.678081035614014,-30.41074562072754,2.1395673751831055
1700868031041721000,4.54072119140625,1.9712071418762207,-30.721206665039062,1.0815550088882446
1700868031058720000,4.557719970703125,4.07086706161499,-32.60669708251953,-0.11687922477722168
1700868031075710200,4.574710205078125,8.275651931762695,-32.78938293457031,-4.1228861808776855
1700868031092699000,4.591698974609375,9.69447135925293,-30.108346939086914,-7.862829208374023
1700868031109687000,4.60868701171875,8.065258026123047,-26.9720458984375,-7.0340189933776855
1700868031126686200,4.625686279296875,6.341711044311523,-25.217296600341797,0.3436775207519531
1700868031143665000,4.642664794921875,4.517369747161865,-22.890960693359375,10.01272201538086
1700868031160654300,4.659654296875,1.5596702098846436,-18.86977195739746,16.383766174316406
1700868031177641200,4.67664111328125,0.31922459602355957,-14.573729515075684,16.64675521850586
1700868031194633000,4.693633056640625,1.045149326324463,-10.244062423706055,12.346100807189941
1700868031211626500,4.71062646484375,-4.820394992828369,-1.9878737926483154,11.135385513305664
1700868031228609500,4.727609619140625,-11.609952926635742,1.386042833328247,35.60379409790039
1700868031245596000,4.744595947265625,-7.508387565612793,4.127948760986328,60.941734313964844
1700868031262589200,4.761589111328125,10.128180503845215,13.564008712768555,47.89912414550781
1700868031279562800,4.778562744140625,13.057648658752441,18.175025939941406,23.462871551513672
1700868031296566000,4.79556591796875,2.3927736282348633,17.4178524017334,10.669328689575195
1700868031313541400,4.812541259765625,-5.245231628417969,15.875699996948242,4.589382171630859
1700868031330542300,4.829542236328125,-4.397030353546143,14.907096862792969,-1.6908268928527832
1700868031347530800,4.84653076171875,-1.195173978805542,15.001729011535645,-5.895380020141602
1700868031364520200,4.863520263671875,1.0273401737213135,16.6671199798584,-8.806638717651367
1700868031381508600,4.880508544921875,0.2167377471923828,19.120121002197266,-11.143840789794922
1700868031398491400,4.897491455078125,-4.910480499267578,20.674419403076172,-11.812936782836914
1700868031415483400,4.9144833984375,-8.035882949829102,21.146915435791016,-12.456899642944336
1700868031432475400,4.931475341796875,-2.5195472240448,19.82352066040039,-13.254182815551758
1700868031449463800,4.9484638671875,8.3259916305542,18.502225875854492,-11.525815963745117
1700868031466442500,4.9654423828125,15.675775527954102,18.23770523071289,-5.685878276824951
1700868031483442000,4.98244189453125,14.00386905670166,17.090362548828125,4.765419960021973
1700868031500430600,4.9994306640625,4.500126838684082,15.73437786102295,13.837505340576172
1700868031517406000,5.016406005859375,-6.486802577972412,14.764888763427734,15.975248336791992
1700868031534408700,5.03340869140625,-6.408191680908203,15.376150131225586,16.470584869384766
1700868031551399000,5.05039892578125,1.9918577671051025,13.525520324707031,24.201465606689453
1700868031568386000,5.067385986328125,7.927870750427246,9.823530197143555,33.70047378540039
1700868031585374500,5.08437451171875,3.08396577835083,2.0038299560546875,41.25607681274414
1700868031602363600,5.10136376953125,-3.1000397205352783,-5.659763336181641,37.394378662109375
1700868031619349500,5.118349609375,-1.3202550411224365,-11.498315811157227,23.982559204101562
1700868031636344000,5.135343994140625,2.9769840240478516,-16.299867630004883,13.78725814819336
1700868031653341000,5.1523408203125,4.60847282409668,-20.32378387451172,8.677663803100586
1700868031670319000,5.169319091796875,6.0201334953308105,-23.06747817993164,5.901180744171143
1700868031687296800,5.186296875,6.107296943664551,-25.848800659179688,3.091493844985962
1700868031704296400,5.20329638671875,6.202875137329102,-28.459793090820312,0.07843470573425293
1700868031721288700,5.220288818359375,7.414312839508057,-30.40890884399414,-2.675408124923706
1700868031738271000,5.23727099609375,8.385995864868164,-30.985149383544922,-5.183610439300537
1700868031755252200,5.254252197265625,7.383214473724365,-30.956283569335938,-6.519851207733154
1700868031772254700,5.271254638671875,5.848341941833496,-29.75945472717285,-6.985494613647461
1700868031789234700,5.288234619140625,5.362053394317627,-27.68415069580078,-5.418675422668457
1700868031806232000,5.305232177734375,5.153770923614502,-25.938562393188477,0.6526780128479004
1700868031823216400,5.32221630859375,2.4370646476745605,-24.267398834228516,11.00503921508789
1700868031840209000,5.339208984375,-1.5620791912078857,-22.251331329345703,17.073694229125977
1700868031857195800,5.35619580078125,-6.264252662658691,-13.552803039550781,11.49073600769043
1700868031874185200,5.373185302734375,-13.869075775146484,-4.698003768920898,12.241767883300781
1700868031891173600,5.390173583984375,-8.396476745605469,-2.7857565879821777,35.54059982299805
1700868031908160000,5.407159912109375,4.309548854827881,2.3705101013183594,59.107505798339844
1700868031925153800,5.42415380859375,14.576888084411621,12.740121841430664,54.315277099609375
1700868031942140200,5.44114013671875,16.220544815063477,19.424556732177734,27.555068969726562
1700868031959127300,5.458127197265625,3.1321969032287598,20.52630615234375,11.50621223449707
1700868031976119300,5.475119384765625,-8.672881126403809,18.393600463867188,6.4902544021606445
1700868031993106200,5.492106201171875,-6.934464454650879,15.961115837097168,-0.35689544677734375
1700868032010097200,5.50909716796875,0.43807244300842285,13.985036849975586,-5.371103763580322
1700868032027082200,5.526082275390625,6.195742607116699,13.961871147155762,-8.271577835083008
1700868032044073200,5.5430732421875,9.703264236450195,15.945478439331055,-10.390881538391113
1700868032061051400,5.560051513671875,7.539608478546143,17.690185546875,-10.966197967529297
1700868032078047200,5.577047119140625,1.6031608581542969,19.09489631652832,-12.30245590209961
1700868032095039200,5.594039306640625,-4.461167335510254,20.26323699951172,-14.06059741973877
1700868032112018400,5.611018310546875,-4.574110507965088,20.316999435424805,-12.749444007873535
1700868032129016800,5.628016845703125,2.0534937381744385,18.87013816833496,-8.019524574279785
1700868032146006300,5.64500634765625,7.167139530181885,17.594654083251953,-1.572404384613037
1700868032162994400,5.661994384765625,6.660467147827148,16.6776123046875,4.231019020080566
1700868032179983600,5.678983642578125,3.3398220539093018,18.071395874023438,10.978029251098633
1700868032196972000,5.695971923828125,3.503084182739258,19.444833755493164,18.467863082885742
1700868032213951000,5.712950927734375,7.276967525482178,16.691097259521484,28.95604705810547
1700868032230948900,5.729948974609375,7.050940990447998,14.193532943725586,36.11758041381836
1700868032247939800,5.74693994140625,1.1517435312271118,6.5806884765625,41.353912353515625
1700868032264927700,5.763927734375,-2.362442970275879,-3.770368814468384,38.253726959228516
1700868032281906200,5.78090625,1.2733449935913086,-12.354132652282715,27.049579620361328
1700868032298904800,5.79790478515625,5.355318546295166,-18.379371643066406,16.494670867919922
1700868032315894500,5.81489453125,8.198651313781738,-23.407516479492188,11.034299850463867
1700868032332883000,5.831883056640625,9.13868522644043,-26.859962463378906,7.022250652313232
1700868032349862400,5.8488623046875,8.222692489624023,-29.52030372619629,3.634337902069092
1700868032366860500,5.865860595703125,7.162854194641113,-31.63127899169922,1.0005323886871338
1700868032383849700,5.882849609375,5.711036682128906,-33.16214370727539,-2.657773494720459
1700868032400839400,5.89983935546875,3.6465461254119873,-32.64999008178711,-8.444363594055176
1700868032417815300,5.916815185546875,1.1556370258331299,-30.74643325805664,-13.062468528747559
1700868032434818300,5.933818359375,1.5514836311340332,-28.640567779541016,-13.000478744506836
1700868032451794400,5.95079443359375,5.343177795410156,-27.754680633544922,-7.555947303771973
1700868032468793300,5.96779345703125,6.8087687492370605,-26.662643432617188,3.4227585792541504
1700868032485782500,5.984782470703125,3.602445602416992,-23.563159942626953,14.258768081665039
1700868032502771000,6.00177099609375,-1.9889001846313477,-20.489856719970703,16.31277847290039
1700868032519760100,6.018760009765625,-7.65228271484375,-14.732694625854492,9.546191215515137
1700868032536748500,6.03574853515625,-11.616228103637695,-7.330958366394043,11.236714363098145
1700868032553738000,6.052738037109375,-4.990867614746094,-5.030786514282227,33.85667419433594
1700868032570723300,6.069723388671875,9.363990783691406,0.2821216583251953,61.6224365234375
1700868032587715300,6.08671533203125,17.21722984313965,12.104011535644531,57.73784637451172
1700868032604706600,6.10370654296875,12.2225341796875,20.547718048095703,31.621315002441406
1700868032621694000,6.12069384765625,-5.808847904205322,21.88664436340332,17.208770751953125
1700868032638679300,6.13767919921875,-12.820690155029297,18.989416122436523,10.699949264526367
1700868032655662000,6.154662109375,-5.3892927169799805,16.191211700439453,2.296966552734375
1700868032672648200,6.171648193359375,3.793614387512207,16.104389190673828,-3.0511488914489746
1700868032689638700,6.188638671875,7.646087646484375,18.352527618408203,-5.633564472198486
1700868032706631000,6.205630859375,3.0433473587036133,18.821884155273438,-7.754512786865234
1700868032723615200,6.222615234375,-4.772259712219238,18.03421401977539,-11.587479591369629
1700868032740606200,6.239606201171875,-8.792065620422363,19.186290740966797,-18.065704345703125
1700868032757600300,6.256600341796875,-4.822956085205078,19.493114471435547,-19.921836853027344
1700868032774578700,6.27357861328125,4.588433265686035,18.796314239501953,-14.599456787109375
1700868032791578600,6.29057861328125,10.308910369873047,17.11028480529785,-2.328338623046875
1700868032808569300,6.3075693359375,7.927076816558838,14.131495475769043,6.217989921569824
1700868032825553200,6.32455322265625,1.9087071418762207,13.26939582824707,7.204669952392578
1700868032842544600,6.341544677734375,-2.0036044120788574,14.999011993408203,7.464260101318359
1700868032859539200,6.358539306640625,2.7375049591064453,17.241159439086914,15.978209495544434
1700868032876524800,6.37552490234375,8.520648002624512,14.464073181152344,33.123233795166016
1700868032893503700,6.392503662109375,4.327286243438721,10.984781265258789,38.013526916503906
1700868032910491600,6.40949169921875,-5.230112075805664,7.370969295501709,37.16947937011719
1700868032927491800,6.426491943359375,-7.0894775390625,-1.5583715438842773,36.99662780761719
1700868032944469200,6.44346923828125,1.570434808731079,-12.310551643371582,28.81873321533203
1700868032961470000,6.460469970703125,11.7844820022583,-19.941125869750977,17.919301986694336
1700868032978457600,6.47745751953125,16.487775802612305,-24.60988998413086,10.96098518371582
1700868032995447000,6.494447021484375,13.5794677734375,-27.463756561279297,7.354221820831299
1700868033012435200,6.511435302734375,7.558617115020752,-29.053564071655273,4.4808831214904785
1700868033029425000,6.5284248046875,3.4886674880981445,-30.373659133911133,1.243133783340454
1700868033046410200,6.54541015625,2.613476037979126,-30.25765609741211,-3.733558177947998
1700868033063401000,6.56240087890625,3.100557804107666,-29.785951614379883,-8.266271591186523
1700868033080390400,6.579390380859375,3.8151087760925293,-28.639617919921875,-10.97943115234375
1700868033097365200,6.596365234375,4.620156764984131,-27.538949966430664,-9.657877922058105
1700868033114366200,6.6133662109375,5.638274669647217,-26.123905181884766,-6.274031639099121
1700868033131358700,6.630358642578125,5.058389186859131,-24.915462493896484,0.43055248260498047
1700868033148345900,6.647345947265625,2.4018707275390625,-22.523033142089844,9.04101276397705
1700868033165335300,6.664335205078125,-3.1383981704711914,-18.997295379638672,15.885030746459961
1700868033182313000,6.68131298828125,-7.4466094970703125,-14.070453643798828,13.375621795654297
1700868033199310600,6.698310546875,-9.878122329711914,-3.243077278137207,7.462638854980469
1700868033216300500,6.715300537109375,-13.975790023803711,1.4264919757843018,22.383316040039062
1700868033233280500,6.732280517578125,-8.421416282653809,-0.4752148389816284,53.66910934448242
1700868033250279000,6.74927880859375,12.15041446685791,6.5593976974487305,58.40778732299805
1700868033267268000,6.76626806640625,23.60788345336914,15.844061851501465,33.22578811645508
1700868033284243500,6.783243408203125,16.171977996826172,19.832338333129883,14.263233184814453
1700868033301243400,6.800243408203125,-3.750978946685791,18.641111373901367,9.757753372192383
1700868033318236200,6.817236083984375,-10.403660774230957,16.978010177612305,2.87692928314209
1700868033335223300,6.834223388671875,-4.187386512756348,14.39150619506836,-4.982694149017334
1700868033352211700,6.851211669921875,3.475858449935913,12.7155122756958,-7.769012451171875
1700868033369198600,6.868198486328125,7.398078441619873,13.286968231201172,-8.45426082611084
1700868033386191400,6.88519140625,5.665652275085449,14.940350532531738,-10.043594360351562
1700868033403165000,6.9021650390625,-0.1844933032989502,16.559913635253906,-12.884664535522461
1700868033420167000,6.9191669921875,-3.909219264984131,17.579256057739258,-15.914224624633789
1700868033437156400,6.93615625,-0.6035888195037842,17.97007179260254,-16.21862030029297
1700868033454144000,6.95314404296875,6.763607025146484,17.61917495727539,-11.5677490234375
1700868033471115800,6.97011572265625,12.000677108764648,17.572586059570312,-2.193187713623047
1700868033488119300,6.987119384765625,10.871576309204102,16.666933059692383,8.225563049316406
1700868033505113600,7.004113525390625,6.281661033630371,17.349205017089844,15.13986587524414
1700868033522099500,7.021099365234375,4.468645095825195,19.65691375732422,18.820655822753906
1700868033539089700,7.038089599609375,2.949047088623047,17.752090454101562,27.00476837158203
1700868033556063700,7.055063720703125,-0.09299564361572266,14.732866287231445,34.542640686035156
1700868033573056300,7.07205615234375,-4.3087005615234375,6.160327911376953,42.42767333984375
1700868033590046000,7.0890458984375,-3.3437728881835938,-3.9091250896453857,39.942787170410156
1700868033607036700,7.10603662109375,2.0800957679748535,-12.314715385437012,27.888561248779297
1700868033624022000,7.12302197265625,4.561404228210449,-17.938722610473633,17.87356185913086
1700868033641011200,7.14001123046875,4.308065414428711,-22.339519500732422,12.832983016967773
1700868033657999400,7.156999267578125,4.385313987731934,-25.922733306884766,8.972018241882324
1700868033674991900,7.173991943359375,5.472477436065674,-29.152667999267578,4.138665676116943
1700868033691975700,7.1909755859375,8.103360176086426,-32.21276092529297,-1.2554503679275513
1700868033708968400,7.207968505859375,11.325980186462402,-33.35026931762695,-6.295472145080566
1700868033725958400,7.22495849609375,10.4542818069458,-33.403099060058594,-9.476024627685547
1700868033742943700,7.24194384765625,6.715105056762695,-31.90180778503418,-10.512558937072754
1700868033759932000,7.258931884765625,3.619276523590088,-29.046161651611328,-8.900918006896973
1700868033776924200,7.275924072265625,2.439391613006592,-25.94442367553711,-4.264191150665283
1700868033793909200,7.2929091796875,2.59102725982666,-23.87300682067871,3.959475517272949
1700868033810901500,7.309901611328125,3.463796854019165,-20.797405242919922,11.774425506591797
1700868033827900400,7.326900390625,1.4311461448669434,-17.96086883544922,13.020803451538086
1700868033844887300,7.34388720703125,-2.148475408554077,-13.590452194213867,8.721301078796387
1700868033861875700,7.360875732421875,-8.563863754272461,-6.698781490325928,10.925143241882324
1700868033878856200,7.377856201171875,-10.145254135131836,-3.017880439758301,35.44345474243164
1700868033895850800,7.394850830078125,0.9399218559265137,5.664553165435791,54.89104461669922
1700868033912844800,7.4118447265625,10.323826789855957,15.088469505310059,45.603248596191406
1700868033929832000,7.42883203125,7.087698936462402,19.24749755859375,27.474092483520508
1700868033946815000,7.44581494140625,-0.6494832038879395,20.138648986816406,15.328194618225098
1700868033963810800,7.462810791015625,-3.2161757946014404,18.803850173950195,7.442264556884766
1700868033980798000,7.4797978515625,-0.4080500602722168,17.67746353149414,0.13347721099853516
1700868033997785900,7.496785888671875,1.9614677429199219,17.1204776763916,-4.318138122558594
1700868034014775300,7.513775390625,2.381568431854248,18.520017623901367,-8.015329360961914
1700868034031763700,7.530763671875,0.9281377792358398,20.494348526000977,-10.096373558044434
1700868034048753000,7.5477529296875,-1.2555086612701416,21.469179153442383,-11.533245086669922
1700868034065743000,7.5647431640625,-2.4459869861602783,20.706804275512695,-10.966217041015625
1700868034082730500,7.58173046875,-1.8051767349243164,19.67572593688965,-9.763776779174805
1700868034099716000,7.598716064453125,-0.046309709548950195,18.521465301513672,-6.105653285980225
1700868034116702700,7.61570263671875,2.121509075164795,17.076515197753906,0.0983285903930664
1700868034133699300,7.63269921875,2.269195318222046,14.839113235473633,7.306729316711426
1700868034150675000,7.649675048828125,2.2184247970581055,13.984148979187012,12.438941955566406
1700868034167663400,7.666663330078125,3.2485973834991455,13.508432388305664,18.90796661376953
1700868034184663300,7.683663330078125,5.015810012817383,13.375516891479492,26.512834548950195
1700868034201651500,7.7006513671875,3.269408702850342,9.501277923583984,33.53150939941406
1700868034218641000,7.717640869140625,-1.4091122150421143,5.2151288986206055,38.01081466674805
1700868034235629000,7.734629150390625,-3.8636794090270996,-2.2906084060668945,38.04895782470703
1700868034252618200,7.7516181640625,1.6850624084472656,-9.617532730102539,29.077651977539062
1700868034269606700,7.768606689453125,8.637353897094727,-15.736973762512207,17.698686599731445
1700868034286596000,7.78559619140625,12.016167640686035,-19.634916305541992,9.201704025268555
1700868034303584300,7.802584228515625,11.157310485839844,-22.321762084960938,4.732244968414307
1700868034320573400,7.819573486328125,7.820199489593506,-23.902198791503906,2.1871159076690674
1700868034337561600,7.8365615234375,6.345252990722656,-25.789487838745117,-0.18428611755371094
1700868034354550800,7.85355078125,9.022278785705566,-27.888221740722656,-3.4171674251556396
1700868034371538000,7.870537841796875,11.524469375610352,-29.004518508911133,-6.734466075897217
1700868034388530200,7.8875302734375,9.953914642333984,-28.52355194091797,-9.199335098266602
1700868034405506600,7.904506591796875,5.933152675628662,-26.243247985839844,-10.411123275756836
1700868034422504700,7.921504638671875,3.5088162422180176,-24.28703498840332,-7.983390808105469
1700868034439487000,7.938487060546875,4.4029221534729,-23.29136085510254,-3.337587356567383
1700868034456483800,7.95548388671875,4.898080825805664,-22.908632278442383,3.3073577880859375
1700868034473470200,7.97247021484375,3.5745606422424316,-20.938583374023438,7.251183032989502
1700868034490463200,7.989463134765625,-1.5633125305175781,-18.72917938232422,9.090187072753906
1700868034507449300,8.006449462890625,-6.083520412445068,-15.485235214233398,8.99087905883789
1700868034524438800,8.023438720703124,-9.635560989379883,-7.897331714630127,13.232610702514648
1700868034541416700,8.040416748046875,-11.15834903717041,-1.7331775426864624,30.807331085205078
1700868034558416600,8.057416748046874,0.5016601085662842,2.6504926681518555,49.73303985595703
1700868034575404800,8.07440478515625,19.22214698791504,10.30738639831543,50.43659210205078
1700868034592385500,8.091385498046876,24.533645629882812,17.80903434753418,34.542327880859375
1700868034609382400,8.10838232421875,9.386739730834961,20.09326171875,20.05274200439453
1700868034626371600,8.12537158203125,-7.533361911773682,19.261560440063477,10.419766426086426
1700868034643360000,8.142360107421876,-10.291160583496094,16.84894561767578,-1.1434431076049805
1700868034660349200,8.15934912109375,-2.160421133041382,14.672418594360352,-9.955500602722168
1700868034677337300,8.17633740234375,4.547354698181152,14.466033935546875,-12.720173835754395
1700868034694327000,8.1933271484375,6.488821983337402,15.744516372680664,-12.082308769226074
1700868034711315000,8.21031494140625,2.863386869430542,16.17247200012207,-10.398218154907227
1700868034728304400,8.227304443359374,-3.2161600589752197,16.78342056274414,-10.506977081298828
1700868034745293000,8.24429296875,-5.757599353790283,17.750076293945312,-13.15786075592041
1700868034762281700,8.26128173828125,-2.6854934692382812,18.15207290649414,-12.953693389892578
1700868034779259600,8.278259765625,4.2336812019348145,17.29388999938965,-7.689196586608887
1700868034796255500,8.29525537109375,9.466678619384766,15.917356491088867,0.25641536712646484
1700868034813251600,8.31225146484375,7.602320671081543,14.53885555267334,8.400434494018555
1700868034830226700,8.329226806640625,3.120607376098633,16.74642562866211,14.2083158493042
1700868034847225300,8.346225341796876,2.063851833343506,18.66994285583496,20.504852294921875
1700868034864214500,8.363214599609375,2.6913137435913086,15.570805549621582,28.17563819885254
1700868034881192200,8.380192138671875,3.0092172622680664,13.004133224487305,30.209280014038086
1700868034898192100,8.397192138671874,1.0782971382141113,8.179556846618652,35.96142578125
1700868034915178200,8.41417822265625,0.21092677116394043,-0.984550952911377,41.061737060546875
1700868034932171800,8.431171875,4.138655185699463,-11.774922370910645,32.51716995239258
1700868034949158100,8.448158203125,12.235692024230957,-18.679147720336914,17.10765838623047
1700868034966154000,8.465154052734375,15.364166259765625,-23.302003860473633,8.457176208496094
1700868034983135500,8.482135498046874,12.818257331848145,-26.065494537353516,4.316946029663086
1700868035000125000,8.499125,7.979629039764404,-27.09933853149414,1.0800395011901855
1700868035017095000,8.516094970703126,4.37042760848999,-27.726478576660156,-2.3224618434906006
1700868035034099700,8.533099609375,3.99741268157959,-27.91783905029297,-5.6971845626831055
1700868035051093000,8.550093017578124,4.2303853034973145,-28.160980224609375,-7.462646484375
1700868035068079900,8.567079833984375,4.698641300201416,-27.783355712890625,-7.704558372497559
1700868035085068300,8.584068359375,4.97175407409668,-26.372901916503906,-7.339193344116211
1700868035102053000,8.60105322265625,4.934177875518799,-24.458385467529297,-5.52181339263916
1700868035119046000,8.6180458984375,4.094871520996094,-23.232196807861328,-0.06645727157592773
1700868035136034800,8.635034912109376,1.2732017040252686,-21.66691780090332,6.08854866027832
1700868035153023200,8.652023193359375,-4.273966312408447,-20.351041793823242,11.164307594299316
1700868035170012400,8.669012451171875,-8.185022354125977,-16.58338165283203,8.077035903930664
1700868035187000600,8.68600048828125,-9.120182037353516,-11.289041519165039,10.36906909942627
1700868035203990000,8.702989990234375,-5.356501579284668,-5.806347846984863,28.43390655517578
1700868035220973800,8.719973876953125,2.317126750946045,0.41811132431030273,51.14738845825195
1700868035237970000,8.736969970703125,10.222075462341309,8.58211898803711,53.502685546875
1700868035254943200,8.753943115234375,11.530576705932617,17.228666305541992,34.72248077392578
1700868035271949600,8.770949462890625,3.7813289165496826,20.587617874145508,23.339387893676758
1700868035288931800,8.787931884765625,-2.5144946575164795,19.065895080566406,16.06529998779297
1700868035305922800,8.8049228515625,-0.4603443145751953,16.544021606445312,5.241634368896484
1700868035322911000,8.821910888671875,3.9790396690368652,14.939881324768066,-3.897402286529541
1700868035339889700,8.8388896484375,8.300546646118164,14.737481117248535,-7.257631301879883
1700868035356886000,8.855885986328126,9.259963989257812,15.5670166015625,-7.540663719177246
1700868035373880300,8.87288037109375,4.970794677734375,16.125144958496094,-9.054795265197754
1700868035390866200,8.8898662109375,-2.276031970977783,17.483543395996094,-13.291837692260742
1700868035407852800,8.906852783203124,-5.646202087402344,18.39204978942871,-16.302249908447266
1700868035424846000,8.92384619140625,-0.8589472770690918,18.456716537475586,-15.295024871826172
1700868035441819100,8.940819091796875,7.088976860046387,18.30678939819336,-10.360595703125
1700868035458824200,8.95782421875,9.717254638671875,18.000181198120117,-1.8432130813598633
1700868035475807200,8.97480712890625,5.320737838745117,17.336536407470703,4.236835479736328
1700868035492798700,8.991798828125,-0.06711888313293457,17.184648513793945,8.496490478515625
1700868035509785600,9.00878564453125,0.7451426982879639,18.233484268188477,12.250038146972656
1700868035526779000,9.02577880859375,4.672653675079346,16.972097396850586,23.463411331176758
1700868035543765500,9.042765625,3.4449305534362793,13.000045776367188,32.36191177368164
1700868035560754000,9.05975390625,-1.928589105606079,9.319637298583984,33.26184844970703
1700868035577742800,9.076742919921875,-3.423058271408081,1.1672711372375488,35.809608459472656
1700868035594731300,9.093731201171876,0.911442756652832,-10.407822608947754,33.08524703979492
1700868035611720400,9.110720458984375,9.39045524597168,-18.170413970947266,20.54110336303711
1700868035628696600,9.127696533203125,12.84226131439209,-22.10886573791504,9.231759071350098
1700868035645697500,9.144697509765624,10.352252960205078,-24.55412483215332,3.0440590381622314
1700868035662687000,9.16168701171875,5.73226261138916,-25.579959869384766,-0.6979076862335205
1700868035679675600,9.178675537109376,3.274643659591675,-25.551647186279297,-3.939976692199707
1700868035696661500,9.19566162109375,3.152188301086426,-25.156238555908203,-6.071174621582031
1700868035713655600,9.212655517578124,4.659976005554199,-25.219131469726562,-6.401126861572266
1700868035730641400,9.229641357421874,6.209192276000977,-25.041122436523438,-6.251132011413574
1700868035747630600,9.246630615234375,5.713796615600586,-23.211111068725586,-7.1321916580200195
1700868035764618800,9.26361865234375,5.217559814453125,-21.715070724487305,-7.050895690917969
1700868035781597700,9.28059765625,5.737727165222168,-21.990615844726562,-5.123287677764893
1700868035798585900,9.2975859375,6.4861040115356445,-21.719572067260742,0.687255859375
1700868035815585500,9.31458544921875,3.1151576042175293,-19.452856063842773,7.878103733062744
1700868035832575700,9.33157568359375,-5.358279228210449,-17.1308650970459,14.37026309967041
1700868035849561300,9.348561279296876,-9.420083045959473,-8.805785179138184,7.596617698669434
1700868035866551300,9.36555126953125,-10.232964515686035,-0.6892349720001221,14.030014038085938
1700868035883542300,9.382542236328124,-9.178840637207031,-0.12292098999023438,42.990325927734375
1700868035900527900,9.39952783203125,5.62577486038208,5.156316757202148,56.22037124633789
1700868035917518300,9.416518310546875,18.92654800415039,15.539100646972656,43.7759895324707
1700868035934506200,9.43350634765625,12.847618103027344,18.195283889770508,25.925697326660156
1700868035951498000,9.450498046875,2.287477970123291,16.16122055053711,13.59575366973877
1700868035968472800,9.467472900390625,-0.27062058448791504,13.146156311035156,2.7922792434692383
1700868035985473000,9.48447314453125,1.0566401481628418,10.748068809509277,-4.933598518371582
1700868036002461700,9.501461669921875,2.29935884475708,9.687162399291992,-8.134156227111816
1700868036019440400,9.5184404296875,3.270005226135254,9.920533180236816,-10.108996391296387
1700868036036438800,9.535438720703125,4.4273295402526855,10.991680145263672,-11.222984313964844
1700868036053428200,9.55242822265625,3.897224187850952,11.679730415344238,-11.980031967163086
1700868036070416400,9.56941650390625,1.1040732860565186,11.79843807220459,-13.725902557373047
1700868036087405800,9.58640576171875,-1.8938722610473633,12.09404468536377,-16.112823486328125
1700868036104394000,9.60339404296875,-2.4213972091674805,12.587522506713867,-17.189239501953125
1700868036121370600,9.62037060546875,-0.032526493072509766,12.817270278930664,-13.604974746704102
1700868036138366000,9.637365966796875,2.750819206237793,12.371752738952637,-6.406615734100342
1700868036155348200,9.65434814453125,4.284012317657471,11.76272964477539,0.28360652923583984
1700868036172340000,9.671340087890625,3.7160353660583496,11.583831787109375,3.831997871398926
1700868036189330000,9.688329833984374,2.5183165073394775,14.03369140625,5.2793450355529785
1700868036206316800,9.70531689453125,5.713590621948242,16.278793334960938,12.411775588989258
1700868036223305500,9.722305419921875,8.883512496948242,18.068973541259766,23.591928482055664
1700868036240295000,9.739294921875,5.135008811950684,18.383695602416992,30.878000259399414
1700868036257295000,9.756295166015626,-3.6260104179382324,10.865671157836914,40.03266525268555
1700868036274279000,9.77327880859375,-3.4058027267456055,-1.273880958557129,37.51161575317383
1700868036291273500,9.7902734375,7.05405330657959,-11.43059253692627,21.14926528930664
1700868036308260900,9.8072607421875,14.631783485412598,-16.114171981811523,8.098343849182129
1700868036325248800,9.824248779296875,11.350467681884766,-20.13217544555664,4.546612739562988
1700868036342236200,9.841236083984375,5.763132095336914,-22.39809799194336,2.4359848499298096
1700868036359226000,9.85822607421875,2.351452112197876,-23.80982208251953,0.010110139846801758
1700868036376214300,9.87521435546875,1.9132492542266846,-24.770755767822266,-3.132838249206543
1700868036393204500,9.89220458984375,3.8282978534698486,-25.45891761779785,-5.894784927368164
1700868036410190000,9.909190185546874,4.910129070281982,-25.88169288635254,-7.613698959350586
1700868036427181000,9.92618115234375,4.295075416564941,-25.445009231567383,-8.19967269897461
1700868036444169000,9.9431689453125,3.3573827743530273,-24.025653839111328,-7.489926338195801
1700868036461148000,9.96014794921875,4.048826694488525,-22.558704376220703,-5.434360504150391
1700868036478146600,9.977146484375,5.186201572418213,-22.3581600189209,-0.41452455520629883
1700868036495123200,9.994123291015624,5.502900123596191,-21.718257904052734,5.859725475311279
1700868036512124200,10.011124267578126,0.6065125465393066,-19.892606735229492,9.905847549438477
1700868036529115100,10.028115234375,-7.962897777557373,-15.810815811157227,7.317925930023193
1700868036546101500,10.0451015625,-13.778644561767578,-5.7652788162231445,8.090266227722168
1700868036563091000,10.062091064453124,-12.587773323059082,-0.4903700351715088,32.54191207885742
1700868036580068900,10.07906884765625,0.5725924968719482,1.4141275882720947,61.224464416503906
1700868036597066500,10.09606640625,19.857891082763672,9.361517906188965,54.27938461303711
1700868036614054700,10.1130546875,25.67386817932129,14.956341743469238,28.125835418701172
1700868036631046000,10.1300458984375,13.456672668457031,14.637457847595215,9.933526039123535
1700868036648034000,10.147033935546874,-1.1837053298950195,13.442312240600586,2.88333797454834
1700868036665023200,10.164023193359375,-7.139140605926514,12.487533569335938,-2.6441898345947266
1700868036682011400,10.181011474609376,-4.470821380615234,11.4606351852417,-7.223437309265137
1700868036699000600,10.19800048828125,1.758034110069275,10.588638305664062,-9.416443824768066
1700868036715988700,10.21498876953125,7.997137069702148,11.527286529541016,-11.003713607788086
1700868036732975900,10.231975830078126,9.84786605834961,12.544695854187012,-10.099649429321289
1700868036749969000,10.248968994140625,6.15839147567749,13.677973747253418,-9.771484375
1700868036766937300,10.265937255859376,0.7804460525512695,15.553183555603027,-12.89841365814209
1700868036783942100,10.282942138671874,-2.6199910640716553,17.447900772094727,-14.704134941101074
1700868036800935200,10.29993505859375,-0.10906863212585449,16.942153930664062,-10.434406280517578
1700868036817921500,10.316921630859374,6.3767476081848145,15.75915241241455,-4.497478485107422
1700868036834910500,10.333910400390625,7.98346471786499,13.405375480651855,1.5896730422973633
1700868036851898600,10.350898681640626,7.8595733642578125,12.974802017211914,4.245258331298828
1700868036868888000,10.36788818359375,8.142364501953125,15.798408508300781,8.985498428344727
1700868036885876200,10.384876220703125,5.88372802734375,17.919239044189453,20.255414962768555
1700868036902865700,10.40186572265625,0.4933128356933594,17.037883758544922,33.44187927246094
1700868036919853800,10.418853759765625,-4.450839996337891,10.070152282714844,42.33702850341797
1700868036936839200,10.435839111328125,-3.1096863746643066,0.2654905319213867,36.762020111083984
1700868036953835300,10.452835205078125,3.3862686157226562,-9.830702781677246,24.014381408691406
1700868036970820400,10.4698203125,8.568827629089355,-15.186975479125977,11.615615844726562
1700868036987808800,10.486808837890624,8.572157859802246,-18.344738006591797,6.530267715454102
1700868037004787500,10.503787353515625,6.625998497009277,-20.751142501831055,3.947604179382324
1700868037021784600,10.52078466796875,5.319199085235596,-22.598033905029297,1.0872011184692383
1700868037038764500,10.5377646484375,4.919948577880859,-24.223304748535156,-2.0616555213928223
1700868037055754500,10.55475439453125,5.761044025421143,-26.180124282836914,-4.856612205505371
1700868037072746200,10.571746337890625,6.013187885284424,-27.25096321105957,-7.824725151062012
1700868037089730800,10.588730712890625,5.236797332763672,-26.81116485595703,-10.769718170166016
1700868037106722800,10.605722900390624,4.48774528503418,-26.123023986816406,-11.050131797790527
1700868037123709400,10.62270947265625,4.444819450378418,-24.946990966796875,-8.983695983886719
1700868037140697900,10.63969775390625,5.478772163391113,-23.313148498535156,-4.591287612915039
1700868037157686300,10.656686279296874,4.461528301239014,-21.697071075439453,3.5395827293395996
1700868037174677800,10.673677734375,0.15494871139526367,-19.67742347717285,10.73048210144043
1700868037191662300,10.690662353515625,-6.779918670654297,-15.993947982788086,9.720873832702637
1700868037208658000,10.707657958984376,-11.273176193237305,-7.8612565994262695,7.43701696395874
1700868037225643300,10.724643310546876,-8.046960830688477,-4.447077751159668,22.187328338623047
1700868037242629600,10.741629638671874,5.868099689483643,-0.12829279899597168,51.718868255615234
1700868037259617500,10.758617431640625,19.59955596923828,9.141349792480469,58.38056182861328
1700868037276607000,10.77560693359375,21.04803466796875,15.980395317077637,35.770599365234375
1700868037293597700,10.79259765625,6.270977020263672,17.37516212463379,14.295015335083008
1700868037310597600,10.80959765625,-8.601893424987793,15.957137107849121,5.936282157897949
1700868037327583200,10.826583251953124,-9.834814071655273,13.897512435913086,-0.5179262161254883
1700868037344572700,10.84357275390625,-3.434331178665161,12.29244613647461,-6.496485710144043
1700868037361550300,10.86055029296875,2.9668827056884766,11.663408279418945,-8.475749015808105
1700868037378550000,10.877550048828125,6.413059234619141,12.243677139282227,-8.899002075195312
1700868037395536000,10.894535888671875,5.505424499511719,12.62118148803711,-8.34697151184082
1700868037412530000,10.911530029296875,1.0586261749267578,13.345083236694336,-9.61849308013916
1700868037429511000,10.928510986328124,-3.9789178371429443,14.848592758178711,-13.632622718811035
1700868037446502700,10.945502685546876,-4.586880683898926,15.724381446838379,-13.939879417419434
1700868037463495700,10.96249560546875,0.07877564430236816,15.082950592041016,-10.312736511230469
1700868037480482600,10.979482666015626,6.937580108642578,13.884551048278809,-3.67189359664917
1700868037497470500,10.996470458984374,8.279644966125488,12.703094482421875,3.0718259811401367
1700868037514460000,11.0134599609375,3.8469178676605225,12.952901840209961,5.385040283203125
1700868037531448000,11.030447998046874,1.5366928577423096,15.312044143676758,7.683177947998047
1700868037548437200,11.047437255859375,4.647800445556641,14.160310745239258,14.405515670776367
1700868037565425700,11.06442578125,8.882231712341309,14.161812782287598,18.84527587890625
1700868037582417200,11.081417236328125,4.180023193359375,13.691119194030762,26.78612518310547
1700868037599394300,11.098394287109375,-2.9611082077026367,6.741077899932861,39.185543060302734
1700868037616382500,11.115382568359376,-1.9678220748901367,-2.8518624305725098,36.463035583496094
1700868037633379300,11.13237939453125,6.60480260848999,-12.506542205810547,21.970930099487305
1700868037650370800,11.149370849609374,14.351612091064453,-18.518686294555664,9.001962661743164
1700868037667358000,11.16635791015625,14.424226760864258,-22.57914161682129,3.092047691345215
1700868037684347100,11.18334716796875,9.083456039428711,-25.151870727539062,-0.6623320579528809
1700868037701334300,11.200334228515626,3.5507559776306152,-25.977985382080078,-5.110780715942383
1700868037718324700,11.21732470703125,1.6543872356414795,-26.407352447509766,-7.355623245239258
1700868037735310000,11.23431005859375,2.0558691024780273,-26.84339714050293,-8.38417911529541
1700868037752304600,11.2513046875,3.8446929454803467,-26.636873245239258,-10.349163055419922
1700868037769290500,11.26829052734375,5.503559589385986,-25.36233139038086,-11.580757141113281
1700868037786280200,11.2852802734375,5.657835960388184,-24.14385223388672,-8.638395309448242
1700868037803267600,11.302267578125,5.1747212409973145,-23.718650817871094,-2.1112005710601807
1700868037820257000,11.319257080078126,4.149077415466309,-22.837078094482422,3.7212443351745605
1700868037837245200,11.3362451171875,-1.0508027076721191,-21.74853515625,6.182641506195068
1700868037854242000,11.353241943359375,-8.12744140625,-20.931604385375977,4.986538887023926
1700868037871220700,11.370220703125,-9.72367000579834,-16.647226333618164,8.188575744628906
1700868037888213500,11.387213623046875,-6.374914646148682,-13.74654769897461,31.6193904876709
1700868037905200000,11.4042001953125,7.298188209533691,-6.051016807556152,66.48115539550781
1700868037922189300,11.421189208984375,24.64963722229004,10.378256797790527,60.72832489013672
1700868037939177200,11.43817724609375,19.085140228271484,19.016170501708984,31.735313415527344
1700868037956168400,11.45516845703125,0.525606632232666,19.122228622436523,19.225732803344727
1700868037973150200,11.472150146484376,-3.9456515312194824,17.217195510864258,10.625544548034668
1700868037990146800,11.489146728515625,2.942519187927246,15.476641654968262,2.450922966003418
1700868038007132400,11.50613232421875,7.612986087799072,15.45203971862793,-1.1175403594970703
1700868038024121300,11.523121337890625,6.8452043533325195,16.389171600341797,-3.0804600715637207
1700868038041098500,11.540098388671876,4.15446662902832,18.216922760009766,-7.523432731628418
1700868038058099700,11.557099609375,0.7435522079467773,18.65298843383789,-12.220368385314941
1700868038075086300,11.57408642578125,-1.2076680660247803,18.827421188354492,-15.283075332641602
1700868038092076500,11.59107666015625,-1.6554241180419922,19.24122428894043,-14.869149208068848
1700868038109064400,11.608064453125,1.5291633605957031,19.098262786865234,-11.474552154541016
1700868038126053600,11.6250537109375,3.090789794921875,19.02477264404297,-4.297048091888428
1700868038143039500,11.64203955078125,2.411968231201172,19.436973571777344,3.910637855529785
1700868038160033800,11.65903369140625,0.9778457880020142,16.936229705810547,11.570920944213867
1700868038177020000,11.67602001953125,-1.1328356266021729,13.13418960571289,18.055992126464844
1700868038194005000,11.6930048828125,0.511345386505127,11.770078659057617,19.209091186523438
1700868038210996200,11.709996337890624,6.841805934906006,12.3991117477417,21.346057891845703
1700868038227986200,11.726986083984375,10.158764839172363,7.997501373291016,26.354101181030273
1700868038244974300,11.743974365234376,11.12452507019043,5.59773063659668,23.242572784423828
1700868038261963500,11.760963623046875,4.838752269744873,-1.2224254608154297,23.38379669189453
1700868038278938600,11.777938720703125,-1.558500051498413,-6.306944370269775,23.83824920654297
1700868038295940600,11.794940673828124,-4.734393119812012,-10.85521411895752,19.763437271118164
1700868038312929000,11.811928955078125,-0.8513679504394531,-15.851395606994629,13.897046089172363
1700868038329918200,11.828918212890626,8.175544738769531,-21.853456497192383,8.449374198913574
1700868038346906600,11.84590673828125,14.608262062072754,-25.9073429107666,4.798242092132568
1700868038363895600,11.8628955078125,13.952703475952148,-28.25255012512207,4.168761253356934
1700868038380884000,11.879884033203124,9.940038681030273,-29.94729995727539,5.7381367683410645
1700868038397873200,11.896873046875,7.199648857116699,-29.823593139648438,5.814133644104004
1700868038414861000,11.913861083984376,5.154447078704834,-29.002145767211914,3.9578890800476074
1700868038431850500,11.9308505859375,5.187499046325684,-28.515460968017578,1.5921425819396973
1700868038448838400,11.94783837890625,7.273552894592285,-28.610136032104492,2.1596436500549316
1700868038465817300,11.9648173828125,7.5510053634643555,-28.582828521728516,6.96016788482666
1700868038482816300,11.981816162109375,3.241267442703247,-27.39781379699707,15.510470390319824
1700868038499795000,11.998794921875,-0.9755837917327881,-23.18024253845215,18.53026580810547
1700868038516791300,12.015791259765624,-2.0515847206115723,-20.12432289123535,18.495929718017578
1700868038533785000,12.03278515625,-2.1450791358947754,-16.89729118347168,17.21359634399414
1700868038550760200,12.04976025390625,-6.963921546936035,-10.24411392211914,24.039764404296875
1700868038567760400,12.066760498046875,-8.993951797485352,-2.9139530658721924,49.9779167175293
1700868038584747800,12.083747802734376,2.311748504638672,3.0618910789489746,79.01778411865234
1700868038601737500,12.100737548828125,25.03985595703125,16.625062942504883,64.07579040527344
1700868038618723300,12.117723388671875,23.44881248474121,23.483613967895508,31.480995178222656
1700868038635713000,12.134713134765626,5.738225936889648,22.481966018676758,16.66068458557129
1700868038652703200,12.151703125,-3.128620147705078,21.258085250854492,8.484750747680664
1700868038669692400,12.1686923828125,-3.404994487762451,19.468902587890625,1.5214338302612305
1700868038686680300,12.185680419921875,-1.2197473049163818,17.99651336669922,-2.8554720878601074
1700868038703669500,12.20266943359375,3.2457191944122314,17.54978370666504,-6.835864067077637
1700868038720658000,12.219657958984374,7.022499084472656,18.622400283813477,-9.014933586120605
1700868038737647000,12.236647216796875,7.506137847900391,18.665660858154297,-8.388795852661133
1700868038754635300,12.25363525390625,3.3388233184814453,17.7220401763916,-9.243170738220215
1700868038771624400,12.27062451171875,-1.9517474174499512,16.934539794921875,-13.452796936035156
1700868038788602000,12.28760205078125,-5.781058311462402,17.40434455871582,-16.668853759765625
1700868038805601800,12.304601806640624,-4.1370134353637695,18.43034553527832,-11.898975372314453
1700868038822590200,12.321590087890625,-0.0183103084564209,18.04030418395996,2.2269372940063477
1700868038839569200,12.338569091796876,4.889831066131592,15.752880096435547,15.507915496826172
1700868038856567600,12.355567626953125,5.898982048034668,13.854987144470215,16.01534652709961
1700868038873556500,12.372556396484375,6.9647216796875,15.855960845947266,11.49421501159668
1700868038890545000,12.389544921875,10.890766143798828,19.570890426635742,19.95490264892578
1700868038907531500,12.406531494140625,12.379034042358398,15.313055038452148,35.79012680053711
1700868038924526300,12.4235263671875,13.0736083984375,10.402457237243652,38.210838317871094
1700868038941511400,12.440511474609375,6.962196350097656,6.286620140075684,34.9639892578125
1700868038958499600,12.45749951171875,-3.1955204010009766,-1.5522236824035645,35.19272232055664
1700868038975478300,12.474478271484376,-5.4308366775512695,-12.350425720214844,29.832286834716797
1700868038992477200,12.491477294921875,0.89229416847229,-19.99081039428711,18.758617401123047
1700868039009467000,12.508466796875,8.835380554199219,-26.831478118896484,12.319988250732422
1700868039026453500,12.52545361328125,13.749561309814453,-31.131961822509766,9.250454902648926
1700868039043443700,12.542443603515625,11.46912956237793,-32.59814453125,7.46624755859375
1700868039060432000,12.559431884765624,6.067758560180664,-33.44318389892578,7.202342987060547
1700868039077421000,12.576421142578125,3.996758222579956,-33.46002197265625,4.978521347045898
1700868039094409000,12.593408935546876,5.358295440673828,-31.676971435546875,-0.8652359247207642
1700868039111398100,12.610398193359375,7.64906120300293,-29.26749610900879,-6.066982746124268
1700868039128367900,12.627367919921875,7.9829559326171875,-28.881309509277344,-3.0671472549438477
1700868039145371400,12.644371337890625,6.561528205871582,-28.79252052307129,6.533178806304932
1700868039162368300,12.6613681640625,2.9063940048217773,-27.330711364746094,16.14231300354004
1700868039179352800,12.678352783203126,0.16329431533813477,-23.774675369262695,17.850391387939453
1700868039196341200,12.69534130859375,-2.802222728729248,-20.12905502319336,13.582487106323242
1700868039213330400,12.712330322265625,-4.847286224365234,-14.917496681213379,12.51859188079834
1700868039230317800,12.72931787109375,-3.8995680809020996,-11.346084594726562,26.376922607421875
1700868039247308500,12.74630859375,0.49292516708374023,-4.034761428833008,51.26465606689453
1700868039264296200,12.763296142578126,7.277407646179199,8.111927032470703,62.89514923095703
1700868039281285400,12.780285400390625,10.624577522277832,21.62455940246582,47.4236946105957
1700868039298262800,12.7972626953125,2.9693384170532227,25.431554794311523,32.90481185913086
1700868039315254800,12.8142548828125,-0.25629687309265137,23.852235794067383,25.150348663330078
1700868039332255000,12.8312548828125,1.0206308364868164,20.633350372314453,16.092872619628906
1700868039349238000,12.848238037109375,5.263713359832764,19.095754623413086,5.521061897277832
1700868039366228200,12.865228271484375,7.307320594787598,19.2246036529541,-2.930716037750244
1700868039383217400,12.882217529296875,5.214980125427246,19.758981704711914,-5.945719242095947
1700868039400187400,12.8991875,1.2758625745773315,20.42814826965332,-7.126919746398926
1700868039417197600,12.916197509765626,-1.702157974243164,20.456768035888672,-9.645064353942871
1700868039434179800,12.933179931640625,-4.1268110275268555,20.73049545288086,-14.240617752075195
1700868039451171800,12.950171875,-4.290247917175293,20.773334503173828,-16.213977813720703
1700868039468152600,12.967152587890626,-1.4157171249389648,20.23525047302246,-12.622457504272461
1700868039485149400,12.9841494140625,2.498526096343994,18.493410110473633,-2.9685134887695312
1700868039502137600,13.0011376953125,4.011417388916016,15.757871627807617,6.143649101257324
1700868039519126800,13.018126708984376,2.5172908306121826,14.302067756652832,10.15951156616211
1700868039536115000,13.035114990234375,3.6231775283813477,14.90822982788086,13.593417167663574
1700868039553107500,13.052107421875,9.416098594665527,14.777660369873047,22.120420455932617
1700868039570089000,13.0690888671875,14.357370376586914,10.533548355102539,34.26952362060547
1700868039587073500,13.086073486328125,16.384414672851562,5.76461935043335,36.06951141357422
1700868039604067000,13.103067138671875,10.517142295837402,2.4004411697387695,33.38941192626953
1700868039621050600,13.120050537109375,2.1377015113830566,-1.735888957977295,34.69990921020508
1700868039638047200,13.137047119140625,-1.5633056163787842,-10.739423751831055,33.87369155883789
1700868039655023400,13.1540234375,2.0703561305999756,-17.59859848022461,23.621379852294922
1700868039672016600,13.1710166015625,6.783698558807373,-22.5974178314209,13.067140579223633
1700868039689005000,13.188005126953126,7.743865966796875,-26.4468994140625,5.375972747802734
1700868039705993500,13.204993408203125,6.6696271896362305,-28.502172470092773,-0.14085716009140015
1700868039722980400,13.22198046875,6.19805908203125,-29.36541175842285,-3.215968608856201
1700868039739968500,13.238968505859376,6.822807312011719,-29.792278289794922,-4.362297534942627
1700868039756962300,13.25596240234375,7.574031829833984,-29.512287139892578,-4.600000858306885
1700868039773948200,13.2729482421875,6.228147506713867,-28.289093017578125,-4.253005504608154
1700868039790945500,13.289945556640625,4.655202865600586,-27.16570472717285,-3.045891523361206
1700868039807933700,13.30693359375,4.526987075805664,-26.048362731933594,-0.3458127975463867
1700868039824904200,13.323904296875,5.290769100189209,-24.83502960205078,2.487666130065918
1700868039841913000,13.3409130859375,4.504502296447754,-23.02727508544922,5.395176410675049
1700868039858898200,13.357898193359375,0.8419497013092041,-20.91083526611328,12.076383590698242
1700868039875888400,13.374888427734374,-5.566773414611816,-18.47093391418457,15.826848983764648
1700868039892877600,13.391877685546875,-8.851238250732422,-12.679031372070312,11.245198249816895
1700868039909865700,13.40886572265625,-10.362773895263672,-5.644533634185791,17.435192108154297
1700868039926855000,13.42585498046875,-5.272249221801758,-2.0263941287994385,48.810543060302734
1700868039943843000,13.442843017578125,4.059680461883545,5.614690780639648,72.58877563476562
1700868039960832300,13.459832275390625,20.74956703186035,15.782227516174316,49.408077239990234
1700868039977820700,13.476820556640625,20.358203887939453,19.643102645874023,19.39950942993164
1700868039994801700,13.4938017578125,0.8675365447998047,18.894695281982422,9.027276039123535
1700868040011797500,13.510797607421875,-10.13908863067627,17.504810333251953,4.601635932922363
1700868040028786000,13.527785888671875,-5.501344680786133,16.24452018737793,-2.5518574714660645
1700868040045776100,13.544776123046875,2.245875835418701,15.462709426879883,-7.684957504272461
1700868040062764300,13.561764404296875,8.026739120483398,17.449565887451172,-10.572491645812988
1700868040079752400,13.57875244140625,8.137882232666016,19.028751373291016,-9.08141803741455
1700868040096729900,13.595729736328124,2.465740203857422,19.56336212158203,-8.462862968444824
1700868040113721600,13.6127216796875,-4.514695167541504,20.2443790435791,-12.277070045471191
1700868040130719000,13.629718994140624,-5.52543830871582,21.192405700683594,-16.2856502532959
1700868040147707100,13.64670703125,0.7189161777496338,20.2095947265625,-12.598357200622559
1700868040164696600,13.663696533203124,10.09912109375,18.18837547302246,-3.5129947662353516
1700868040181684500,13.6806845703125,12.895545959472656,15.89059829711914,5.375059127807617
1700868040198673700,13.697673583984376,7.870849609375,14.728825569152832,10.4511079788208
1700868040215659000,13.714658935546876,4.2053961753845215,14.88469409942627,13.310397148132324
1700868040232642800,13.731642822265625,9.228472709655762,17.637279510498047,18.087114334106445
1700868040249639200,13.74863916015625,13.394708633422852,13.67386245727539,31.043115615844727
1700868040266628000,13.765628173828125,13.870614051818848,9.475276947021484,33.228172302246094
1700868040283612000,13.78261181640625,8.179791450500488,5.270023822784424,31.066387176513672
1700868040300606500,13.7996064453125,-0.3131275177001953,-0.09708595275878906,32.46309280395508
1700868040317592800,13.8165927734375,-3.179880380630493,-8.901697158813477,31.25979232788086
1700868040334582800,13.833582763671876,1.1314587593078613,-15.526147842407227,21.65673065185547
1700868040351571000,13.850571044921875,6.151010513305664,-20.80941390991211,13.412664413452148
1700868040368560000,13.86756005859375,10.920226097106934,-24.744720458984375,8.065069198608398
1700868040385548300,13.88454833984375,12.156791687011719,-27.442337036132812,4.312533378601074
1700868040402537700,13.901537841796875,8.693367004394531,-28.141752243041992,1.7238916158676147
1700868040419515100,13.91851513671875,3.942878246307373,-27.139450073242188,-0.730613112449646
1700868040436512500,13.935512451171874,2.3966968059539795,-26.590068817138672,-2.217454433441162
1700868040453505300,13.95250537109375,4.547924518585205,-26.243473052978516,-3.7196316719055176
1700868040470477300,13.969477294921875,8.066431045532227,-25.26634979248047,-4.315507411956787
1700868040487477800,13.986477783203124,9.430888175964355,-23.82833480834961,-3.1873483657836914
1700868040504481300,14.003481201171875,8.468761444091797,-22.64603614807129,1.2363033294677734
1700868040521457700,14.020457763671875,5.240634918212891,-21.079853057861328,7.767828941345215
1700868040538440000,14.03743994140625,-1.7365798950195312,-19.545551300048828,14.323111534118652
1700868040555424500,14.054424560546876,-7.880335807800293,-14.945302963256836,10.735942840576172
1700868040572419000,14.071419189453126,-10.19021224975586,-6.8013081550598145,7.535573959350586
1700868040589403100,14.088403076171875,-10.740886688232422,-3.3166186809539795,24.75759506225586
1700868040606394600,14.10539453125,-3.8176040649414062,-0.5445756912231445,49.45204544067383
1700868040623380700,14.122380615234375,9.259560585021973,6.441763877868652,52.64667892456055
1700868040640371200,14.13937109375,19.253986358642578,16.124303817749023,31.73345184326172
1700868040657357300,14.156357421875,9.828608512878418,19.528905868530273,18.298629760742188
1700868040674345500,14.173345458984375,-4.090928554534912,18.351783752441406,15.168427467346191
1700868040691338800,14.1903388671875,-5.907539367675781,16.842615127563477,7.542835235595703
1700868040708325000,14.2073251953125,0.8936440944671631,15.170241355895996,0.9526338577270508
1700868040725314600,14.224314453125,8.778055191040039,14.803886413574219,-2.5885415077209473
1700868040742302000,14.241302001953125,11.267515182495117,14.94343376159668,-4.200257301330566
1700868040759288300,14.258288330078125,8.822639465332031,14.700902938842773,-5.784353256225586
1700868040776279600,14.275279541015625,3.956261157989502,14.534608840942383,-10.925613403320312
1700868040793270300,14.292270263671876,-0.05412173271179199,15.435060501098633,-18.724014282226562
1700868040810267100,14.30926708984375,0.299633264541626,16.88495445251465,-22.08059310913086
1700868040827253500,14.32625341796875,3.8337793350219727,17.943025588989258,-16.12860870361328
1700868040844242400,14.343242431640626,5.650057792663574,18.226661682128906,-3.908888816833496
1700868040861220000,14.36022021484375,4.196830749511719,17.656787872314453,4.851184844970703
1700868040878220300,14.37722021484375,0.6193177700042725,16.42151641845703,6.874046325683594
1700868040895209200,14.394209228515624,2.1830954551696777,16.75139045715332,6.938023090362549
1700868040912195600,14.411195556640624,5.9087934494018555,16.623193740844727,13.03468132019043
1700868040929185000,14.42818505859375,6.68475341796875,13.227622985839844,24.000905990600586
1700868040946174500,14.445174560546874,5.40725040435791,15.718705177307129,28.315534591674805
1700868040963162600,14.46216259765625,-1.1991820335388184,12.400123596191406,38.917118072509766
1700868040980151800,14.47915185546875,-5.676167011260986,1.1638646125793457,43.1234016418457
1700868040997139700,14.4961396484375,-1.917900562286377,-10.498092651367188,30.761577606201172
1700868041014129200,14.513129150390625,4.366076946258545,-17.00713348388672,15.037393569946289
1700868041031117000,14.530116943359374,9.314970016479492,-20.94036865234375,7.36539363861084
1700868041048106500,14.5471064453125,11.22950553894043,-23.732437133789062,4.273799896240234
1700868041065094700,14.5640947265625,9.731881141662598,-25.245288848876953,2.6416943073272705
1700868041082068700,14.58106884765625,6.425515651702881,-25.612260818481445,1.020052194595337
1700868041099076400,14.598076416015624,4.3666534423828125,-26.121631622314453,-0.34872424602508545
1700868041116061000,14.61506103515625,5.0689473152160645,-26.282268524169922,-2.8667118549346924
1700868041133038300,14.632038330078124,6.808629989624023,-25.948747634887695,-5.698210716247559
1700868041150036000,14.649035888671875,8.530731201171875,-24.748424530029297,-7.43937873840332
1700868041167028500,14.666028564453125,8.878887176513672,-23.586071014404297,-4.941196918487549
1700868041184015600,14.683015625,7.011141777038574,-22.449256896972656,1.5206120014190674
1700868041200993000,14.699992919921876,2.722538709640503,-20.7705135345459,8.548765182495117
1700868041217992700,14.71699267578125,-1.1305265426635742,-18.925031661987305,9.22683048248291
1700868041234979300,14.733979248046875,-5.419778347015381,-13.728601455688477,3.3738574981689453
1700868041251971600,14.7509716796875,-9.571117401123047,-6.387847900390625,8.400494575500488
1700868041268958000,14.7679580078125,-7.434674263000488,-2.8996963500976562,32.440128326416016
1700868041285947400,14.784947509765624,2.8168303966522217,1.0105724334716797,51.30405807495117
1700868041302935600,14.801935546875,19.052215576171875,9.183388710021973,38.68793869018555
1700868041319914000,14.8189140625,20.861011505126953,15.860546112060547,23.35193634033203
1700868041336910000,14.83591015625,6.8742547035217285,18.1710147857666,17.73023796081543
1700868041353904400,14.852904296875,-3.8841562271118164,18.162677764892578,11.427786827087402
1700868041370890000,14.869889892578126,-2.213653802871704,16.26618194580078,4.17169189453125
1700868041387879000,14.88687890625,4.568278789520264,14.360934257507324,-2.4933910369873047
1700868041404867000,14.9038671875,10.564374923706055,14.454399108886719,-6.408836364746094
1700868041421856500,14.9208564453125,10.210640907287598,14.821029663085938,-7.999545097351074
1700868041438844400,14.937844482421875,5.374004364013672,15.161582946777344,-9.559294700622559
1700868041455833900,14.954833740234376,-0.7385654449462891,16.00128746032715,-13.380898475646973
1700868041472819200,14.971819091796876,-2.1930549144744873,17.15065574645996,-15.94015884399414
1700868041489813500,14.9888134765625,2.3422272205352783,15.703484535217285,-12.162239074707031
1700868041506799000,15.005799072265624,10.835691452026367,13.784854888916016,-5.424896240234375
1700868041523788000,15.0227880859375,13.528645515441895,11.11676025390625,1.2681751251220703
1700868041540776200,15.039776123046876,8.895312309265137,9.896081924438477,5.689011573791504
1700868041557765400,15.056765380859375,1.255911111831665,11.470439910888672,8.595452308654785
1700868041574753500,15.07375341796875,-1.6623296737670898,15.043830871582031,14.57081413269043
1700868041591732200,15.090732177734376,4.435108184814453,14.168797492980957,26.10165786743164
1700868041608728300,15.107728271484374,8.395708084106445,11.500579833984375,31.68838882446289
1700868041625722400,15.124722412109374,2.8845620155334473,5.675278186798096,35.87639617919922
1700868041642708200,15.141708251953125,-3.0683231353759766,-2.861715316772461,33.69686508178711
1700868041659697400,15.158697509765625,1.4040071964263916,-9.729071617126465,21.410144805908203
1700868041676671200,15.175671142578125,6.7791571617126465,-14.457382202148438,10.816499710083008
1700868041693674500,15.192674560546875,8.430423736572266,-17.74005126953125,6.021592140197754
1700868041710662700,15.20966259765625,7.470273971557617,-19.939050674438477,3.0443718433380127
1700868041727651800,15.22665185546875,5.586697101593018,-21.50893783569336,-0.17937564849853516
1700868041744626700,15.243626708984374,4.301615238189697,-23.06401824951172,-2.770864725112915
1700868041761631700,15.2606318359375,5.1549391746521,-24.449787139892578,-4.991832733154297
1700868041778617000,15.2776171875,6.533477783203125,-25.664535522460938,-7.118575572967529
1700868041795591200,15.294591064453124,6.991293430328369,-25.001338958740234,-9.489076614379883
1700868041812598800,15.311598876953125,6.171559810638428,-23.488956451416016,-9.67868423461914
1700868041829583600,15.32858349609375,5.368146896362305,-22.165508270263672,-6.2428202629089355
1700868041846571800,15.34557177734375,5.365548610687256,-21.14582061767578,-0.964730978012085
1700868041863560700,15.362560791015625,4.616063594818115,-20.06643295288086,4.242696762084961
1700868041880548900,15.379548828125,1.5879981517791748,-19.053714752197266,8.333930969238281
1700868041897537800,15.396537841796874,-2.838418960571289,-16.312393188476562,6.281419277191162
1700868041914526000,15.41352587890625,-4.768603324890137,-10.625507354736328,9.264677047729492
1700868041931515400,15.430515380859376,-4.163252353668213,-5.312895774841309,25.72880744934082
1700868041948502300,15.447502197265624,1.2030296325683594,-1.6392722129821777,48.206138610839844
1700868041965493500,15.464493408203126,10.936481475830078,6.205387592315674,45.22428894042969
1700868041982478000,15.48147802734375,11.405984878540039,12.190423011779785,29.200786590576172
1700868041999455700,15.498455810546876,2.7856979370117188,14.900917053222656,19.144309997558594
1700868042016457700,15.515457763671876,-5.144626617431641,15.238286972045898,13.42464828491211
1700868042033446700,15.53244677734375,-3.426135540008545,14.787023544311523,6.058542251586914
1700868042050427000,15.549427001953125,2.682650089263916,14.614439964294434,0.2606840133666992
1700868042067424300,15.56642431640625,8.9994535446167,15.577919960021973,-1.3762845993041992
1700868042084412400,15.583412353515625,9.976678848266602,17.123794555664062,-3.1116862297058105
1700868042101401600,15.600401611328126,6.159811973571777,17.25479507446289,-6.548803329467773
1700868042118393000,15.61739306640625,0.8563742637634277,17.838987350463867,-11.454944610595703
1700868042135372500,15.63437255859375,-3.4285666942596436,18.32124900817871,-14.556756973266602
1700868042152369400,15.651369384765625,-2.309741497039795,17.746652603149414,-12.600180625915527
1700868042169355800,15.668355712890625,3.586479663848877,16.20071792602539,-8.536913871765137
1700868042186344000,15.685343994140625,7.003141403198242,15.089104652404785,-3.7220120429992676
1700868042203333000,15.7023330078125,5.498591423034668,14.314513206481934,0.4497241973876953
1700868042220321500,15.719321533203125,0.6315317153930664,14.433160781860352,6.029634475708008
1700868042237318400,15.736318359375,-2.921509265899658,14.343464851379395,12.738127708435059
1700868042254301700,15.7533017578125,2.9969654083251953,18.40968132019043,18.37328338623047
1700868042271284200,15.7702841796875,8.066393852233887,15.107397079467773,29.962278366088867
1700868042288275700,15.787275634765624,9.28101634979248,12.231423377990723,31.855037689208984
1700868042305265000,15.804264892578125,3.8018665313720703,7.396312236785889,32.86726379394531
1700868042322254300,15.82125439453125,-0.6625504493713379,-1.0114002227783203,35.624755859375
1700868042339231500,15.8382314453125,3.8262746334075928,-10.97166919708252,29.377798080444336
1700868042356230100,15.855230224609375,11.488432884216309,-18.46575164794922,16.823549270629883
1700868042373219300,15.87221923828125,15.277060508728027,-22.560081481933594,8.394063949584961
1700868042390207700,15.889207763671875,11.374640464782715,-25.14946746826172,4.341538429260254
1700868042407196400,15.906196533203126,4.4249467849731445,-26.356624603271484,0.9806802272796631
1700868042424174000,15.923174072265626,0.5645341873168945,-26.592987060546875,-2.6919233798980713
1700868042441162000,15.940161865234375,-0.6384906768798828,-26.73912811279297,-5.5653276443481445
1700868042458163000,15.957162841796874,1.0092999935150146,-26.951112747192383,-7.111201763153076
1700868042475148500,15.9741484375,4.321765422821045,-26.646699905395508,-8.664649963378906
1700868042492128500,15.99112841796875,6.467108726501465,-24.915157318115234,-8.819937705993652
1700868042509142300,16.008142333984374,6.361744403839111,-23.33638572692871,-5.2379150390625
1700868042526116400,16.025116455078123,5.1103081703186035,-22.448902130126953,1.65150785446167
1700868042543105500,16.04210546875,2.769810199737549,-21.067989349365234,7.536777019500732
1700868042560093700,16.05909375,-1.0648550987243652,-18.73137664794922,10.712940216064453
1700868042577075200,16.0760751953125,-6.539282321929932,-15.871722221374512,7.690279006958008
1700868042594070500,16.093070556640626,-9.481147766113281,-8.808006286621094,6.772938251495361
1700868042611060000,16.11006005859375,-9.391369819641113,-4.723359107971191,23.957748413085938
1700868042628048100,16.127048095703124,0.640925407409668,0.47255420684814453,49.65454864501953
1700868042645026600,16.144026611328126,15.461088180541992,8.755861282348633,53.558677673339844
1700868042662025200,16.161025146484373,20.410709381103516,17.300537109375,34.066097259521484
1700868042679014400,16.178014404296874,9.64555549621582,19.627845764160156,18.55286407470703
1700868042695992300,16.194992431640625,-2.323451519012451,17.595041275024414,11.630454063415527
1700868042712988700,16.21198876953125,-2.6509957313537598,15.014381408691406,2.9662866592407227
1700868042729982200,16.228982177734373,3.280794382095337,12.769189834594727,-3.307368755340576
1700868042746968800,16.24596875,7.912677764892578,11.745027542114258,-5.499664306640625
1700868042763957000,16.26295703125,9.694623947143555,11.942744255065918,-7.047275066375732
1700868042780940800,16.27994091796875,7.849880695343018,13.010507583618164,-9.859130859375
1700868042797934000,16.29693408203125,4.2480788230896,14.076823234558105,-12.248323440551758
1700868042814923000,16.313923095703124,1.271385669708252,15.204645156860352,-13.784749984741211
1700868042831911400,16.330911376953125,1.2032394409179688,15.941096305847168,-13.394315719604492
1700868042848900400,16.347900390625,2.658020496368408,16.954544067382812,-9.842752456665039
1700868042865888300,16.36488818359375,2.3844594955444336,17.384197235107422,-4.924652099609375
1700868042882891800,16.381891845703127,2.608274459838867,18.05251121520996,1.5449333190917969
1700868042899865600,16.398865478515624,2.5301294326782227,18.049612045288086,10.176480293273926
1700868042916852700,16.415852783203125,2.799541473388672,17.21064567565918,17.21043586730957
1700868042933844700,16.4328447265625,6.358871936798096,17.945846557617188,22.63031578063965
1700868042950829300,16.449829345703126,8.714006423950195,14.209127426147461,30.716590881347656
1700868042967812400,16.466812255859374,6.638077735900879,11.207174301147461,31.833051681518555
1700868042984809200,16.483809326171876,-2.098001480102539,5.926947593688965,32.20980453491211
1700868043001797400,16.50079736328125,-5.859731197357178,-3.3608694076538086,34.347808837890625
1700868043018786300,16.517786376953126,2.1483688354492188,-13.686044692993164,27.22614860534668
1700868043035774500,16.5347744140625,12.70689868927002,-20.30087661743164,15.21079158782959
1700868043052763600,16.551763671875,16.26730728149414,-23.437742233276367,7.575362682342529
1700868043069745000,16.568744873046874,10.847137451171875,-25.548320770263672,3.8459720611572266
1700868043086740500,16.585740478515625,2.9140172004699707,-26.638887405395508,1.3674815893173218
1700868043103729000,16.60272900390625,-0.40507936477661133,-26.956172943115234,-1.9708976745605469
1700868043120717800,16.6197177734375,0.5385360717773438,-27.102195739746094,-5.743631362915039
1700868043137706200,16.636706298828123,4.5165534019470215,-26.678272247314453,-8.604911804199219
1700868043154682000,16.65368212890625,7.359823226928711,-25.457763671875,-8.771568298339844
1700868043171675100,16.670675048828127,7.227768421173096,-23.78823471069336,-4.9183807373046875
1700868043188664000,16.6876640625,5.032942771911621,-21.62854766845703,0.5001785755157471
1700868043205652700,16.70465283203125,2.7639472484588623,-19.934404373168945,5.378637313842773
1700868043222639400,16.721639404296877,1.0820186138153076,-18.771286010742188,8.645573616027832
1700868043239627000,16.738626953125,0.10788297653198242,-18.18787384033203,7.497775077819824
1700868043256617000,16.755616943359374,-3.0230627059936523,-10.799772262573242,4.776529788970947
1700868043273617000,16.772616943359374,-9.171260833740234,-5.047802448272705,19.487083435058594
1700868043290601700,16.789601806640626,-10.230552673339844,-0.8883271217346191,46.145240783691406
1700868043307594000,16.806593994140623,-0.16918706893920898,1.437060832977295,54.05924987792969
1700868043324581000,16.8235810546875,18.55259132385254,9.121902465820312,31.5799560546875
1700868043341569300,16.8405693359375,23.395973205566406,14.78349494934082,16.325939178466797
1700868043358548000,16.8575478515625,11.980997085571289,14.025776863098145,18.104995727539062
1700868043375543800,16.874543701171874,2.8065459728240967,13.124292373657227,14.622457504272461
1700868043392537900,16.891537841796875,0.7697381973266602,12.56790542602539,3.8393821716308594
1700868043409523500,16.9085234375,1.9459075927734375,11.692573547363281,-5.360110282897949
1700868043426512600,16.9255126953125,3.8718910217285156,11.001348495483398,-8.960260391235352
1700868043443488300,16.94248828125,6.317739486694336,10.856266975402832,-8.78396224975586
1700868043460489700,16.95948974609375,9.020892143249512,11.406269073486328,-8.426739692687988
1700868043477477600,16.9764775390625,8.99160099029541,12.920650482177734,-10.16882038116455
1700868043494467000,16.993467041015624,6.214846611022949,14.09575080871582,-13.239887237548828
1700868043511453000,17.010452880859376,2.6334848403930664,15.407431602478027,-14.951343536376953
1700868043528446500,17.027446533203126,1.2694957256317139,15.297832489013672,-11.266915321350098
1700868043545417500,17.04441748046875,6.087234020233154,13.94945240020752,-4.325382232666016
1700868043562419000,17.0614189453125,10.99954605102539,12.910534858703613,4.967315673828125
1700868043579420200,17.078420166015626,14.269659996032715,12.981099128723145,10.345163345336914
1700868043596398300,17.0953984375,15.412922859191895,16.878440856933594,14.920572280883789
1700868043613376000,17.1123759765625,9.45401382446289,13.724981307983398,25.91451072692871
1700868043630375400,17.12937548828125,4.779727935791016,11.530040740966797,28.731229782104492
1700868043647363800,17.14636376953125,-2.5725228786468506,9.534282684326172,30.594085693359375
1700868043664353000,17.16335302734375,-8.712335586547852,4.309528350830078,33.3636589050293
1700868043681341000,17.1803408203125,-6.5658979415893555,-5.291729927062988,30.306669235229492
1700868043698330000,17.197330078125,2.895390748977661,-13.282066345214844,20.86359977722168
1700868043715315500,17.2143154296875,10.819059371948242,-18.254682540893555,13.572046279907227
1700868043732305000,17.231304931640626,12.337943077087402,-22.43935775756836,9.479659080505371
1700868043749295400,17.24829541015625,9.943920135498047,-26.057605743408203,6.1175537109375
1700868043766284000,17.265283935546876,5.839705467224121,-28.04998779296875,1.6357643604278564
1700868043783272400,17.2822724609375,3.1156880855560303,-27.511829376220703,-4.190096855163574
1700868043800261600,17.29926171875,2.370924472808838,-26.874584197998047,-7.290187358856201
1700868043817239000,17.316239013671876,4.054739952087402,-27.686874389648438,-7.070108413696289
1700868043834238700,17.33323876953125,7.79147481918335,-27.97588539123535,-7.330103397369385
1700868043851226600,17.3502265625,9.89948844909668,-26.651714324951172,-7.779242038726807
1700868043868215800,17.3672158203125,9.746719360351562,-25.8850154876709,-4.55894660949707
1700868043885204200,17.384204345703125,7.879777908325195,-25.63727569580078,3.4589316844940186
1700868043902192600,17.401192626953126,2.937878370285034,-24.640090942382812,10.096715927124023
1700868043919181300,17.418181396484375,-3.5690736770629883,-21.415142059326172,10.637998580932617
1700868043936170200,17.435170166015624,-8.96312427520752,-15.643030166625977,13.416559219360352
1700868043953151200,17.452151123046875,-7.988920211791992,-9.511898040771484,27.268688201904297
1700868043970147600,17.469147705078125,2.6084303855895996,-6.356093406677246,50.518272399902344
1700868043987135200,17.48613525390625,11.595232009887695,3.8268189430236816,52.250518798828125
1700868044004116700,17.50311669921875,7.228488445281982,11.688573837280273,37.35320281982422
1700868044021105000,17.52010498046875,-2.3331360816955566,19.45568084716797,27.169519424438477
1700868044038093800,17.53709375,-12.126123428344727,21.007877349853516,25.332292556762695
1700868044055081700,17.554081787109375,-8.555771827697754,18.80405616760254,18.878223419189453
1700868044072063500,17.5710634765625,1.158385992050171,15.556001663208008,9.110249519348145
1700868044089056300,17.58805615234375,8.403064727783203,14.635356903076172,-0.37090015411376953
1700868044106048500,17.605048583984374,10.038530349731445,14.757583618164062,-5.36082649230957
1700868044123034600,17.62203466796875,9.268268585205078,14.929445266723633,-7.0111002922058105
1700868044140023000,17.63902294921875,6.390938758850098,14.057140350341797,-7.083782196044922
1700868044157012000,17.656011962890624,2.3512630462646484,13.191264152526855,-8.887059211730957
1700868044174003500,17.67300341796875,0.1786184310913086,12.26688003540039,-12.12826156616211
1700868044190987500,17.689987548828125,0.9996740818023682,12.074403762817383,-16.285308837890625
1700868044207978800,17.706978759765626,2.5263595581054688,12.94002914428711,-17.77821922302246
1700868044224968400,17.723968505859375,1.241917371749878,13.975748062133789,-12.942591667175293
1700868044241956400,17.740956298828124,-2.625864267349243,14.48031234741211,-2.526176929473877
1700868044258942700,17.757942626953124,-5.171555042266846,17.16384506225586,2.6152820587158203
1700868044275931100,17.77493115234375,-1.0010907649993896,21.07653045654297,9.1387939453125
1700868044292932400,17.791932373046876,3.03829288482666,21.57579231262207,22.635189056396484
1700868044309918700,17.808918701171876,2.370637893676758,19.7315731048584,36.383121490478516
1700868044326907100,17.8259072265625,0.8430757522583008,14.018453598022461,42.618038177490234
1700868044343896000,17.84289599609375,-0.6387186050415039,7.845292568206787,43.16307830810547
1700868044360884000,17.859884033203127,-0.7954645156860352,-1.3257241249084473,42.772438049316406
1700868044377876200,17.876876220703124,-0.18071699142456055,-10.015121459960938,35.3645133972168
1700868044394860300,17.8938603515625,2.6436069011688232,-14.250663757324219,25.716678619384766
1700868044411851000,17.91085107421875,7.044301986694336,-17.889707565307617,20.82993507385254
1700868044428838400,17.92783837890625,12.321191787719727,-21.957401275634766,17.0145320892334
1700868044445827300,17.944827392578127,15.012964248657227,-24.87319564819336,11.925220489501953
1700868044462804700,17.9618046875,13.832599639892578,-27.299259185791016,6.715758800506592
1700868044479801900,17.9788017578125,12.100557327270508,-28.97460174560547,2.0166730880737305
1700868044496792600,17.99579248046875,12.249776840209961,-29.706851959228516,-3.2153592109680176
1700868044513784000,18.0127841796875,14.201713562011719,-28.104331970214844,-7.545289039611816
1700868044530770000,18.02977001953125,14.617258071899414,-27.134672164916992,-6.670627117156982
1700868044547758600,18.046758544921875,11.83318042755127,-25.947040557861328,-4.267271518707275
1700868044564747000,18.0637470703125,7.790501594543457,-23.88131332397461,-2.8586933612823486
1700868044581736200,18.080736083984377,6.204832553863525,-22.482019424438477,-2.214383602142334
1700868044598737200,18.097737060546876,7.132096767425537,-22.133888244628906,-1.4551554918289185
1700868044615712800,18.114712646484374,5.4753217697143555,-21.688125610351562,-3.4991350173950195
1700868044632701000,18.131700927734375,-2.1578469276428223,-19.176109313964844,-0.9391958713531494
1700868044649702400,18.148702392578127,-12.313321113586426,-15.193724632263184,15.54494571685791
1700868044666675700,18.16567578125,-15.272857666015625,-11.708135604858398,37.894012451171875
1700868044683669800,18.182669677734374,-0.9601602554321289,-3.510974884033203,37.82196044921875
1700868044700655400,18.1996552734375,9.032003402709961,2.290670871734619,28.08456039428711
1700868044717644500,18.21664453125,-1.1091747283935547,5.757043838500977,26.308773040771484
1700868044734644700,18.233644775390626,-12.23082160949707,8.403307914733887,29.96743392944336
1700868044751621400,18.250621337890625,-9.617179870605469,11.528730392456055,31.413902282714844
1700868044768609800,18.26760986328125,-1.1994423866271973,14.711031913757324,26.59039878845215
1700868044785598700,18.2845986328125,5.917543411254883,15.500409126281738,16.037614822387695
1700868044802586600,18.301586669921875,8.041531562805176,16.156599044799805,7.535154342651367
1700868044819565300,18.3185654296875,6.15632438659668,16.52721405029297,2.3945484161376953
1700868044836563700,18.335563720703124,2.4882428646087646,16.289325714111328,-3.3056201934814453
1700868044853549600,18.352549560546876,-5.012314319610596,14.61486530303955,-6.075571060180664
1700868044870544100,18.369544189453126,-11.584329605102539,14.340656280517578,-11.538419723510742
1700868044887530200,18.3865302734375,-8.155461311340332,14.490775108337402,-17.911352157592773
1700868044904518000,18.403517822265623,2.218127965927124,14.4352388381958,-19.181026458740234
1700868044921496800,18.420496826171874,9.786544799804688,15.056793212890625,-13.460378646850586
1700868044938495200,18.4374951171875,9.587869644165039,13.26213264465332,-2.7303481101989746
1700868044955484400,18.454484375,6.1403961181640625,10.754226684570312,3.9466676712036133
1700868044972469500,18.471469482421874,6.538449287414551,9.614801406860352,3.0702362060546875
1700868044989464000,18.488464111328124,10.914539337158203,12.95687198638916,5.400366306304932
1700868045006449700,18.50544970703125,9.871156692504883,14.14135456085205,20.094160079956055
1700868045023438300,18.522438232421877,7.734204292297363,11.644854545593262,36.70204162597656
1700868045040424000,18.539423828125,5.253282070159912,10.069249153137207,40.013851165771484
1700868045057418000,18.55641796875,-0.459836483001709,5.5884175300598145,37.282684326171875
1700868045074393000,18.57339306640625,0.15837812423706055,0.26894283294677734,32.114437103271484
1700868045091392000,18.59039208984375,4.934619426727295,-6.0249457359313965,25.658781051635742
1700868045108381200,18.607381103515625,7.75152587890625,-10.87100601196289,17.697710037231445
1700868045125369900,18.624369873046874,6.540528297424316,-13.063432693481445,12.651817321777344
1700868045142358000,18.64135791015625,3.045083999633789,-14.477598190307617,10.050360679626465
1700868045159347000,18.658346923828127,0.5185229778289795,-15.066821098327637,6.1888604164123535
1700868045176335000,18.675335205078124,-0.7587614059448242,-16.05756378173828,2.2448043823242188
1700868045193323800,18.69232373046875,-0.4540226459503174,-16.170089721679688,-0.710080623626709
1700868045210312200,18.709312255859373,0.5407694578170776,-15.950180053710938,-2.024348497390747
1700868045227301000,18.726301025390626,1.0055224895477295,-14.990752220153809,-3.0839438438415527
1700868045244289000,18.7432890625,0.7845499515533447,-13.630444526672363,-3.969533681869507
1700868045261279200,18.760279296875,0.3339214324951172,-11.38559341430664,-4.754929542541504
1700868045278266000,18.77726611328125,0.0653231143951416,-10.233373641967773,-2.6375632286071777
1700868045295252500,18.79425244140625,-0.030966758728027344,-8.186573028564453,-1.8637443780899048
1700868045312246000,18.81124609375,-2.1615304946899414,-5.572364807128906,-3.7208092212677
1700868045329232400,18.828232421875,-3.412489414215088,-3.8545970916748047,-4.53999662399292
1700868045346218000,18.845218017578127,-1.8471570014953613,-3.42624568939209,-2.933913230895996
1700868045363210000,18.8622099609375,1.936086654663086,-3.3406996726989746,-0.9281829595565796
1700868045380197400,18.879197265625,5.250766754150391,-3.122389793395996,-0.8501557111740112
1700868045397186600,18.8961865234375,7.337871074676514,-2.3642759323120117,-2.121295690536499
1700868045414174500,18.913174560546874,7.180117607116699,-2.147458076477051,-2.862389326095581
1700868045431163600,18.93016357421875,11.763614654541016,-0.3212928771972656,4.532705307006836
1700868045448152000,18.947152099609376,2.105396270751953,-0.28725290298461914,1.1633174419403076
1700868045465141000,18.96414111328125,0.4542670249938965,-0.12307214736938477,-2.202054977416992
1700868045482122500,18.98112255859375,1.1413393020629883,-1.328962802886963,-4.046121597290039
1700868045499118000,18.9981181640625,2.523587703704834,-2.266591787338257,-4.43352746963501
1700868045516105700,19.015105712890627,1.9382781982421875,-2.662014961242676,-4.225386619567871
1700868045533087500,19.03208740234375,0.1483020782470703,-2.903864860534668,-4.048369407653809
1700868045550083000,19.0490830078125,-1.0064730644226074,-3.1925501823425293,-4.220653057098389
1700868045567072000,19.066072021484374,-1.7856168746948242,-3.075320243835449,-3.249128580093384
1700868045584060200,19.08306005859375,-1.014657974243164,-2.561462640762329,-3.0286834239959717
1700868045601046000,19.1000458984375,0.22431659698486328,-2.2154009342193604,-3.576298236846924
1700868045618024400,19.1170244140625,1.260178565979004,-2.2517764568328857,-4.033877849578857
1700868045635030500,19.134030517578125,1.6819815635681152,-2.660266637802124,-3.713780403137207
1700868045652012300,19.15101220703125,2.121893882751465,-2.873882532119751,-2.84509539604187
1700868045669003300,19.168003173828126,1.454451084136963,-2.4417896270751953,-2.33748197555542
1700868045685981000,19.18498095703125,0.8265395164489746,-2.0206406116485596,-2.1694610118865967
1700868045702980900,19.20198095703125,1.1520485877990723,-1.8002536296844482,-2.0936126708984375
1700868045719968300,19.21896826171875,2.393716335296631,-1.772778034210205,-2.3413443565368652
1700868045736955100,19.235955078125,3.363241195678711,-1.5311870574951172,-1.899106740951538
1700868045753948200,19.2529482421875,2.9685287475585938,-1.0989689826965332,-2.1026194095611572
1700868045770934800,19.269934814453126,1.9232454299926758,-0.3513474464416504,-2.1708574295043945
1700868045787922700,19.286922607421875,1.5329093933105469,0.22593116760253906,-1.6287750005722046
1700868045804911600,19.30391162109375,4.055421829223633,-0.14190673828125,-0.3748281002044678
1700868045821899800,19.320899658203125,5.778594970703125,-0.48399949073791504,0.04875755310058594
1700868045838888700,19.337888671875,5.236833572387695,-0.5686237812042236,-0.6964232921600342
1700868045855876900,19.354876953125,2.9375438690185547,-0.31525659561157227,-0.6267037391662598
1700868045872865800,19.37186572265625,0.8374814987182617,0.01822948455810547,-1.2100228071212769
1700868045889854000,19.38885400390625,-0.3619260787963867,0.34253358840942383,-1.3549995422363281
1700868045906843100,19.405843017578125,0.18800735473632812,0.4240396022796631,-1.4812912940979004
1700868045923831000,19.4228310546875,1.107161521911621,0.3962845802307129,-1.2824314832687378
1700868045940820000,19.439820068359374,1.8395757675170898,0.2158031463623047,-0.9216824769973755
1700868045957808400,19.456808349609375,1.3697938919067383,-0.31577634811401367,-1.054196834564209
1700868045974797000,19.473797119140624,0.13246822357177734,-0.38752126693725586,-1.476584553718567
1700868045991774500,19.4907744140625,-1.133984088897705,-0.03433036804199219,-1.847046971321106
1700868046008767200,19.507767333984376,-1.679436206817627,0.3656597137451172,-1.9929139614105225
1700868046025764600,19.5247646484375,-1.0214948654174805,0.654808521270752,-1.658486008644104
1700868046042751500,19.54175146484375,-0.2687673568725586,0.7125639915466309,-0.7937662601470947
1700868046059739400,19.558739501953124,0.13355636596679688,0.5694379806518555,-0.33747363090515137
1700868046076717000,19.575717041015626,-0.5129852294921875,0.3388957977294922,-0.6791607737541199
1700868046093717800,19.5927177734375,-1.1503000259399414,0.18586206436157227,-1.4452834129333496
1700868046110705400,19.609705322265626,-1.301347255706787,0.2848639488220215,-1.7216285467147827
1700868046127693600,19.626693603515626,-0.791008472442627,0.5118198394775391,-1.6599242687225342
1700868046144681000,19.643680908203127,-0.39261913299560547,0.6774406433105469,-1.0218048095703125
1700868046161672400,19.66067236328125,-0.6141757965087891,0.973271369934082,-0.7445007562637329
1700868046178659600,19.67765966796875,-1.1308765411376953,0.8410329818725586,-1.1757662296295166
1700868046195647700,19.694647705078125,-1.4588446617126465,0.5104012489318848,-1.606172800064087
1700868046212637000,19.711636962890626,-1.4300942420959473,0.2836785316467285,-1.2868404388427734
1700868046229624600,19.72862451171875,-0.5227022171020508,0.4085984230041504,-0.39702463150024414
1700868046246609400,19.745609375,-0.9307441711425781,0.4698781967163086,0.14840233325958252
1700868046263606300,19.762606201171874,-1.2813000679016113,0.7044796943664551,0.2793532609939575
1700868046280590800,19.7795908203125,-1.1678481101989746,1.123824119567871,-0.3026946783065796
1700868046297579000,19.7965791015625,-1.2074074745178223,1.1908183097839355,-0.951073169708252
1700868046314567700,19.813567626953127,-0.31745052337646484,0.8211774826049805,-0.992777943611145
