time,seconds_elapsed,z,y,x
1700958029400084000,0.114083984375,0.1353745460510254,-0.09369754791259766,0.2818882465362549
1700958029417078500,0.13107861328125,-0.2894124984741211,0.2164454460144043,0.6772403717041016
1700958029434071300,0.1480712890625,-0.9603462219238281,0.40741777420043945,0.5966819524765015
1700958029451059500,0.1650595703125,-1.112694263458252,0.5841264724731445,-0.033672332763671875
1700958029468041000,0.182041015625,-1.0561189651489258,0.4493231773376465,-0.10637521743774414
1700958029485046500,0.199046630859375,-0.577021598815918,0.30089235305786133,0.1412583589553833
1700958029502033700,0.21603369140625,-0.0975046157836914,0.07339715957641602,0.3007246255874634
1700958029519030000,0.233030029296875,0.5161190032958984,-0.06306886672973633,0.3075439929962158
1700958029536030200,0.2500302734375,1.1844496726989746,-0.40210676193237305,0.0008637905120849609
1700958029553020700,0.267020751953125,1.346491813659668,-0.8410077095031738,-0.7630575895309448
1700958029570000100,0.284000244140625,0.9465036392211914,-1.5248942375183105,-1.6267813444137573
1700958029586994200,0.300994140625,0.6728549003601074,-2.4803614616394043,-2.163426160812378
1700958029603987200,0.3179873046875,-0.10165834426879883,-3.3484652042388916,-2.4869282245635986
1700958029620975400,0.334975341796875,-1.650885820388794,-3.9496912956237793,-2.67873215675354
1700958029637963300,0.35196337890625,-2.764155864715576,-3.98762583732605,-2.7517552375793457
1700958029654960400,0.36896044921875,-3.295806646347046,-4.054646968841553,-2.620631694793701
1700958029671947000,0.385947021484375,-2.7517545223236084,-4.291508674621582,-2.652129888534546
1700958029688949200,0.40294921875,-2.008676052093506,-4.583660125732422,-2.8188095092773438
1700958029705936000,0.419935791015625,-1.1303789615631104,-4.88853120803833,-2.550291061401367
1700958029722927900,0.436927978515625,-0.37688329815864563,-4.783449172973633,-2.183527708053589
1700958029739906800,0.45390673828125,-0.09336472302675247,-4.489601135253906,-1.8990707397460938
1700958029756912600,0.47091259765625,-0.25588151812553406,-4.468723297119141,-1.3814377784729004
1700958029773901000,0.487901123046875,-0.1448456048965454,-4.6067070960998535,-0.747197151184082
1700958029790886700,0.50488671875,0.1515268087387085,-5.051442623138428,0.14128494262695312
1700958029807884800,0.521884765625,0.5581567287445068,-5.433987617492676,1.405806541442871
1700958029824878300,0.53887841796875,0.6128599643707275,-5.537757396697998,2.095263957977295
1700958029841865200,0.555865234375,0.41804230213165283,-5.644834041595459,2.247865676879883
1700958029858850300,0.572850341796875,0.09672904014587402,-5.873896598815918,2.2272133827209473
1700958029875851300,0.589851318359375,-0.630666971206665,-6.348021030426025,2.2375240325927734
1700958029892844800,0.6068447265625,-1.3243552446365356,-7.13602352142334,2.953333854675293
1700958029909832000,0.62383203125,-0.9034397602081299,-7.393882751464844,3.8474464416503906
1700958029926816000,0.64081591796875,-0.2469329833984375,-7.828061103820801,4.726244926452637
1700958029943819300,0.6578193359375,0.30549001693725586,-7.908285617828369,4.455534934997559
1700958029960807200,0.67480712890625,0.7586430907249451,-8.115279197692871,4.180213928222656
1700958029977783300,0.691783203125,0.9137582778930664,-8.247106552124023,4.434037208557129
1700958029994792000,0.7087919921875,0.8713417649269104,-8.115511894226074,5.670239448547363
1700958030011783400,0.725783447265625,0.63938969373703,-7.511081695556641,9.55506420135498
1700958030028777200,0.742777099609375,0.6709031462669373,-6.1280436515808105,10.723593711853027
1700958030045765400,0.759765380859375,1.3863773345947266,-4.493776321411133,9.222625732421875
1700958030062766800,0.776766845703125,2.456803560256958,-2.987901210784912,7.667680740356445
1700958030079747800,0.793747802734375,2.9448115825653076,-0.9266183376312256,7.4770965576171875
1700958030096741600,0.81074169921875,2.9309403896331787,1.1102347373962402,10.175512313842773
1700958030113742800,0.827742919921875,2.995851993560791,3.5004305839538574,14.187557220458984
1700958030130716200,0.844716064453125,3.81060791015625,6.029835224151611,14.732843399047852
1700958030147718100,0.86171826171875,4.556575775146484,7.95299768447876,11.908246994018555
1700958030164714500,0.878714599609375,4.37080717086792,8.581147193908691,8.889476776123047
1700958030181700600,0.89570068359375,3.587523937225342,9.198472023010254,6.874454975128174
1700958030198692900,0.91269287109375,2.3270201683044434,10.248971939086914,6.840507507324219
1700958030215682800,0.929682861328125,0.707646906375885,11.754867553710938,7.31982946395874
1700958030232677000,0.946677001953125,-0.904536247253418,12.93719482421875,7.38688850402832
1700958030249659000,0.963658935546875,-2.0139894485473633,14.438823699951172,5.923891067504883
1700958030266658300,0.980658203125,-4.130099296569824,15.468622207641602,2.685741424560547
1700958030283651300,0.9976513671875,-6.65493106842041,16.976451873779297,0.22768783569335938
1700958030300639200,1.01463916015625,-6.114604473114014,17.978776931762695,2.0782785415649414
1700958030317625900,1.0316259765625,-1.9919906854629517,18.314695358276367,6.213727951049805
1700958030334626600,1.04862646484375,2.2857089042663574,17.14226722717285,9.97661304473877
1700958030351613400,1.065613525390625,3.965193748474121,14.225093841552734,10.811286926269531
1700958030368606500,1.0826064453125,3.659813165664673,11.60968017578125,8.165931701660156
1700958030385591300,1.09959130859375,2.60530424118042,9.23443603515625,9.3372802734375
1700958030402593000,1.116593017578125,1.9251002073287964,7.3195414543151855,15.56018352508545
1700958030419580200,1.133580078125,1.7230247259140015,5.135099411010742,20.70555305480957
1700958030436575200,1.1505751953125,4.606863021850586,3.108348846435547,22.205116271972656
1700958030453564000,1.16756396484375,9.805252075195312,1.110353946685791,22.625307083129883
1700958030470557700,1.1845576171875,11.251381874084473,-1.2632346153259277,26.120431900024414
1700958030487538200,1.2015380859375,9.410055160522461,-4.782658576965332,30.26905059814453
1700958030504551200,1.21855126953125,5.737489700317383,-9.320477485656738,32.372764587402344
1700958030521529600,1.235529541015625,2.786311626434326,-14.2247314453125,27.33788299560547
1700958030538525000,1.25252490234375,1.6150074005126953,-17.131364822387695,18.16655158996582
1700958030555515100,1.26951513671875,2.9030418395996094,-19.219236373901367,10.821183204650879
1700958030572509000,1.286509033203125,6.527917385101318,-20.603967666625977,5.821703910827637
1700958030589487400,1.3034873046875,8.885467529296875,-21.7490234375,3.4794986248016357
1700958030606490600,1.32049072265625,8.974934577941895,-22.970922470092773,2.064338207244873
1700958030623482000,1.337482177734375,8.955231666564941,-25.379104614257812,0.6048562526702881
1700958030640472600,1.35447265625,7.615262031555176,-26.86605453491211,-2.7130768299102783
1700958030657467100,1.371467041015625,5.638005256652832,-25.545841217041016,-7.299958229064941
1700958030674457300,1.388457275390625,4.624593734741211,-24.056926727294922,-8.04028034210205
1700958030691445500,1.405445556640625,5.096862316131592,-23.764333724975586,-4.709083080291748
1700958030708447500,1.422447509765625,4.934205055236816,-22.245933532714844,-1.1927082538604736
1700958030725428700,1.4394287109375,2.8551290035247803,-19.385944366455078,1.5214977264404297
1700958030742423800,1.456423828125,-0.2905144691467285,-16.243206024169922,1.3204345703125
1700958030759412700,1.473412841796875,-1.023186206817627,-13.983661651611328,0.7899136543273926
1700958030776396000,1.49039599609375,-2.00842022895813,-12.347488403320312,9.070578575134277
1700958030793403100,1.507403076171875,-4.522838592529297,-7.20314884185791,17.998458862304688
1700958030810388000,1.524387939453125,-4.794133186340332,1.3864917755126953,23.39077377319336
1700958030827381000,1.541381103515625,-5.807236194610596,7.363252639770508,30.72889518737793
1700958030844371700,1.558371826171875,-6.896259307861328,9.307921409606934,35.41162872314453
1700958030861356800,1.575356689453125,-2.7370400428771973,11.597661972045898,28.297969818115234
1700958030878357000,1.59235693359375,0.7400538921356201,12.180465698242188,18.243778228759766
1700958030895341600,1.609341552734375,1.588645577430725,11.570351600646973,11.320070266723633
1700958030912337400,1.62633740234375,2.1383302211761475,11.45527172088623,6.702401161193848
1700958030929331200,1.643331298828125,2.6620378494262695,11.613358497619629,2.4915428161621094
1700958030946310700,1.660310546875,3.673600912094116,12.433404922485352,-2.728046417236328
1700958030963306200,1.67730615234375,4.695953369140625,13.825961112976074,-7.2312726974487305
1700958030980298000,1.694298095703125,5.951491355895996,15.404691696166992,-9.073640823364258
1700958030997289500,1.71128955078125,7.816952705383301,16.889301300048828,-9.000473976135254
1700958031014290400,1.72829052734375,8.389057159423828,16.981914520263672,-8.352422714233398
1700958031031277300,1.74527734375,6.046356678009033,14.620631217956543,-8.182472229003906
1700958031048273000,1.76227294921875,2.3994569778442383,12.857513427734375,-10.34192943572998
1700958031065263400,1.779263427734375,-0.7950036525726318,12.068705558776855,-10.600764274597168
1700958031082253600,1.796253662109375,-1.464020013809204,10.911998748779297,-6.7550153732299805
1700958031099236600,1.813236572265625,0.6925745606422424,11.225863456726074,-0.07581424713134766
1700958031116227000,1.83022705078125,1.5467767715454102,10.44015121459961,7.794687271118164
1700958031133220900,1.847220947265625,3.193155288696289,9.682231903076172,11.923182487487793
1700958031150219800,1.8642197265625,7.994208335876465,11.70635986328125,12.341392517089844
1700958031167212800,1.881212890625,8.524275779724121,11.804664611816406,18.184600830078125
1700958031184206600,1.89820654296875,5.929213047027588,8.99188232421875,24.835147857666016
1700958031201194000,1.915194091796875,2.890690326690674,4.855664253234863,26.707197189331055
1700958031218180400,1.932180419921875,-0.2123243808746338,-1.3704066276550293,26.493667602539062
1700958031235177500,1.949177490234375,0.3124680519104004,-8.180334091186523,23.87511444091797
1700958031252167000,1.9661669921875,4.611958026885986,-14.170941352844238,17.374868392944336
1700958031269163000,1.9831630859375,8.56106185913086,-18.501480102539062,9.955824851989746
1700958031286155500,2.000155517578125,9.016157150268555,-21.836576461791992,4.374261856079102
1700958031303149300,2.0171494140625,6.29842472076416,-23.867534637451172,0.7368431091308594
1700958031320135400,2.034135498046875,3.3524434566497803,-24.38912582397461,-1.7556495666503906
1700958031337118200,2.0511181640625,1.5390830039978027,-23.897857666015625,-3.6175355911254883
1700958031354119400,2.068119384765625,2.1646969318389893,-23.213878631591797,-4.061135292053223
1700958031371112700,2.08511279296875,2.7877955436706543,-22.299293518066406,-2.64841365814209
1700958031388104200,2.102104248046875,2.8164725303649902,-20.615753173828125,-1.8702671527862549
1700958031405097000,2.119096923828125,2.3719592094421387,-18.424213409423828,-1.7147510051727295
1700958031422084900,2.1360849609375,1.228618860244751,-16.59436798095703,-1.2111051082611084
1700958031439079400,2.153079345703125,-0.6617238521575928,-15.498807907104492,0.4990839958190918
1700958031456058400,2.170058349609375,-2.4722678661346436,-14.440995216369629,4.090399265289307
1700958031473058800,2.187058837890625,-5.22380256652832,-13.553621292114258,11.061297416687012
1700958031490051300,2.20405126953125,-5.522763729095459,-10.57979965209961,12.418497085571289
1700958031507044900,2.221044921875,-3.0272579193115234,-0.3953971862792969,6.842795372009277
1700958031524028700,2.238028564453125,-6.904078483581543,5.413300514221191,13.154704093933105
1700958031541022000,2.25502197265625,-8.239169120788574,6.7981858253479,31.112945556640625
1700958031558013700,2.272013671875,-2.144158363342285,8.154821395874023,40.06905746459961
1700958031575013000,2.28901318359375,5.178668022155762,12.20138931274414,30.20214080810547
1700958031591998500,2.30599853515625,9.377009391784668,14.159789085388184,15.400263786315918
1700958031608998000,2.322997802734375,7.644711971282959,13.0881986618042,5.198469161987305
1700958031625986800,2.33998681640625,3.551988124847412,11.700057029724121,-2.1298208236694336
1700958031642979300,2.356979248046875,1.7821619510650635,11.967653274536133,-7.620874881744385
1700958031659966000,2.373966064453125,1.5835496187210083,12.720778465270996,-10.557198524475098
1700958031676950500,2.390950439453125,3.6575448513031006,13.126045227050781,-10.752699851989746
1700958031693954800,2.407954833984375,5.403873443603516,13.38615608215332,-10.491990089416504
1700958031710941700,2.424941650390625,5.3026018142700195,13.12952709197998,-9.687793731689453
1700958031727936500,2.4419365234375,3.320284843444824,11.863165855407715,-8.799615859985352
1700958031744929000,2.458928955078125,1.136244773864746,10.371822357177734,-8.425887107849121
1700958031761917200,2.475917236328125,0.07103276252746582,8.850785255432129,-7.798696517944336
1700958031778896400,2.492896484375,0.2961050271987915,7.772190093994141,-5.451521873474121
1700958031795903200,2.5099033203125,0.7759654521942139,7.647026538848877,-0.6037230491638184
1700958031812895500,2.5268955078125,1.3029876947402954,8.151687622070312,6.00645637512207
1700958031829883600,2.543883544921875,1.861995816230774,8.725793838500977,12.664239883422852
1700958031846877000,2.560876953125,4.716909408569336,10.85558032989502,13.77260971069336
1700958031863871000,2.57787109375,7.245474815368652,11.514762878417969,14.502913475036621
1700958031880857900,2.59485791015625,6.223720550537109,9.71970272064209,18.328962326049805
1700958031897860400,2.6118603515625,3.104344606399536,6.972458839416504,20.822277069091797
1700958031914835200,2.628835205078125,-0.11033201217651367,2.8758926391601562,24.56494140625
1700958031931835400,2.64583544921875,-1.1711945533752441,-3.5330705642700195,25.326034545898438
1700958031948825900,2.662825927734375,1.6249041557312012,-10.150053024291992,18.329320907592773
1700958031965819000,2.67981884765625,7.03378963470459,-15.466114044189453,8.638267517089844
1700958031982812000,2.69681201171875,10.49858283996582,-18.945777893066406,1.2181599140167236
1700958031999799800,2.7137998046875,9.666152954101562,-20.96448516845703,-2.0363593101501465
1700958032016793300,2.73079345703125,5.354072093963623,-22.04375457763672,-1.8109086751937866
1700958032033787400,2.747787353515625,1.6458680629730225,-22.21344757080078,-1.2684260606765747
1700958032050774000,2.76477392578125,0.14727163314819336,-22.106884002685547,-0.8408076763153076
1700958032067768600,2.7817685546875,-0.1349332332611084,-21.85052490234375,-1.6754333972930908
1700958032084761300,2.79876123046875,0.8298559188842773,-20.798282623291016,-3.325758695602417
1700958032101749500,2.81574951171875,1.776743769645691,-18.97187614440918,-4.592729568481445
1700958032118756600,2.832756591796875,0.8777244091033936,-17.326454162597656,-2.8726513385772705
1700958032135741700,2.84974169921875,-0.9465534687042236,-16.065919876098633,1.4878606796264648
1700958032152720100,2.86672021484375,-1.7669024467468262,-14.675854682922363,7.323156356811523
1700958032169704700,2.88370458984375,-0.8658468723297119,-11.426713943481445,12.186161994934082
1700958032186715000,2.90071484375,-0.9062995910644531,-5.293540000915527,9.842397689819336
1700958032203704600,2.91770458984375,-6.381557941436768,3.8883161544799805,7.510756969451904
1700958032220690200,2.934690185546875,-10.892134666442871,7.478382110595703,19.692493438720703
1700958032237670400,2.95167041015625,-5.114870548248291,7.009619235992432,34.57788848876953
1700958032254667300,2.968667236328125,4.913053512573242,7.539638996124268,39.46885681152344
1700958032271665400,2.98566552734375,13.267656326293945,10.956022262573242,28.441328048706055
1700958032288660000,3.002659912109375,15.616058349609375,12.465803146362305,11.343465805053711
1700958032305651200,3.019651123046875,9.33346939086914,9.942018508911133,1.060373306274414
1700958032322643700,3.036643798828125,1.2959837913513184,8.868307113647461,-5.899329662322998
1700958032339633400,3.05363330078125,-3.7706873416900635,8.936741828918457,-10.183602333068848
1700958032356623600,3.07062353515625,-4.199302673339844,9.04265022277832,-10.54030990600586
1700958032373615000,3.087614990234375,-0.9020090103149414,9.061239242553711,-9.104761123657227
1700958032390613000,3.104613037109375,2.441399574279785,9.285035133361816,-8.963120460510254
1700958032407602000,3.121601806640625,3.970924139022827,9.455864906311035,-10.758676528930664
1700958032424593000,3.138593017578125,3.4459853172302246,9.096359252929688,-13.165996551513672
1700958032441585000,3.1555849609375,1.8536639213562012,8.740921020507812,-13.60926628112793
1700958032458576400,3.172576416015625,1.23374605178833,8.563291549682617,-11.02808952331543
1700958032475568400,3.189568359375,1.610582947731018,8.676048278808594,-5.679154396057129
1700958032492559400,3.206559326171875,2.0257184505462646,9.616130828857422,0.8644003868103027
1700958032509551600,3.223551513671875,0.9376484155654907,10.991043090820312,7.00950288772583
1700958032526542800,3.24054296875,-0.48711252212524414,13.667882919311523,10.836324691772461
1700958032543546000,3.257546142578125,0.30108439922332764,15.642093658447266,14.670509338378906
1700958032560525600,3.274525634765625,1.6681039333343506,14.316022872924805,19.735252380371094
1700958032577518000,3.29151806640625,1.9661699533462524,11.524384498596191,23.613056182861328
1700958032594509000,3.308509033203125,3.052692174911499,6.5892438888549805,24.331378936767578
1700958032611501300,3.325501220703125,5.455009460449219,-1.0202736854553223,22.451114654541016
1700958032628492300,3.3424921875,8.143529891967773,-9.236760139465332,17.139856338500977
1700958032645484800,3.35948486328125,10.198719024658203,-15.433839797973633,8.991583824157715
1700958032662475500,3.3764755859375,9.841381072998047,-19.55236053466797,2.43560528755188
1700958032679468000,3.393468017578125,7.227004051208496,-22.144527435302734,-1.0464235544204712
1700958032696459000,3.410458984375,2.794766664505005,-23.405454635620117,-2.792083263397217
1700958032713448700,3.42744873046875,-0.034879207611083984,-23.426002502441406,-3.9085617065429688
1700958032730444300,3.4444443359375,0.145186185836792,-23.45892333984375,-3.4488296508789062
1700958032747434200,3.461434326171875,2.377075672149658,-23.129104614257812,-2.1636500358581543
1700958032764425200,3.47842529296875,4.035811901092529,-22.01001739501953,-0.8992664813995361
1700958032781407500,3.495407470703125,4.046141147613525,-19.981063842773438,-0.33632421493530273
1700958032798391000,3.51239111328125,2.221193552017212,-17.820751190185547,-0.03730201721191406
1700958032815400400,3.529400390625,-1.1149253845214844,-16.18584442138672,2.176699638366699
1700958032832391700,3.5463916015625,-3.6765620708465576,-15.086021423339844,8.078461647033691
1700958032849382100,3.563382080078125,-5.457856178283691,-12.998838424682617,12.885232925415039
1700958032866370300,3.580370361328125,-5.212225914001465,-5.644628524780273,9.781723022460938
1700958032883357000,3.59735693359375,-8.919215202331543,3.6549015045166016,11.727702140808105
1700958032900352800,3.614352783203125,-11.926031112670898,6.5908966064453125,27.172447204589844
1700958032917347300,3.631347412109375,-1.6325507164001465,5.91348123550415,39.119876861572266
1700958032934335700,3.648335693359375,8.103238105773926,7.395534992218018,38.717655181884766
1700958032951333600,3.665333740234375,12.916507720947266,10.732080459594727,23.581138610839844
1700958032968316700,3.682316650390625,10.973492622375488,11.2900390625,8.204254150390625
1700958032985313800,3.699313720703125,4.475106716156006,8.935934066772461,0.8546581268310547
1700958033002305500,3.716305419921875,-0.43952107429504395,7.454469203948975,-3.671274185180664
1700958033019300400,3.73330029296875,-2.8633651733398438,6.9810791015625,-7.425912857055664
1700958033036272000,3.750272216796875,-1.73500394821167,7.281185150146484,-8.498665809631348
1700958033053283600,3.76728369140625,0.34798431396484375,7.773462772369385,-8.2485933303833
1700958033070274300,3.7842744140625,2.9882359504699707,8.497827529907227,-8.628201484680176
1700958033087266600,3.8012666015625,3.873448610305786,8.747049331665039,-10.391702651977539
1700958033104247000,3.8182470703125,2.577486753463745,8.945764541625977,-13.354148864746094
1700958033121249800,3.835249755859375,1.732421636581421,9.567839622497559,-15.52311897277832
1700958033138241000,3.852240966796875,1.1778264045715332,10.046621322631836,-14.529546737670898
1700958033155233300,3.8692333984375,3.327573299407959,9.67477798461914,-9.033894538879395
1700958033172224300,3.886224365234375,6.290595531463623,8.428173065185547,-0.45582151412963867
1700958033189216300,3.90321630859375,6.282731056213379,8.477785110473633,3.803493022918701
1700958033206207200,3.920207275390625,5.351282596588135,9.693544387817383,4.761699676513672
1700958033223199700,3.93719970703125,8.190722465515137,12.648567199707031,7.912234306335449
1700958033240193000,3.954193115234375,9.692554473876953,12.814752578735352,14.975191116333008
1700958033257180400,3.971180419921875,8.360553741455078,12.90707015991211,20.072778701782227
1700958033274174000,3.988174072265625,2.562891721725464,11.989476203918457,25.41472053527832
1700958033291164000,4.005163818359375,-2.17659068107605,5.12161922454834,30.84797477722168
1700958033308159200,4.0221591796875,-1.9901490211486816,-4.56749963760376,26.671842575073242
1700958033325149400,4.0391494140625,3.575695037841797,-10.649544715881348,13.959817886352539
1700958033342140200,4.05614013671875,7.6120195388793945,-15.183168411254883,4.823402404785156
1700958033359132700,4.073132568359375,8.321094512939453,-18.45745086669922,1.3132109642028809
1700958033376125400,4.09012548828125,5.566097736358643,-20.761455535888672,0.9541220664978027
1700958033393114000,4.107114013671875,1.626488447189331,-21.455562591552734,0.7020819187164307
1700958033410107000,4.12410693359375,-1.7860567569732666,-21.370088577270508,0.17356157302856445
1700958033427096300,4.141096435546875,-1.898026466369629,-21.603023529052734,-0.6747198104858398
1700958033444093000,4.158093017578125,0.33250927925109863,-21.822521209716797,-2.740314483642578
1700958033461082000,4.17508203125,1.9602155685424805,-21.045185089111328,-4.976035118103027
1700958033478081800,4.192081787109375,1.9223356246948242,-19.344345092773438,-5.4040021896362305
1700958033495065300,4.2090654296875,0.8758318424224854,-17.579673767089844,-2.671020984649658
1700958033512057300,4.226057373046875,0.5098803043365479,-16.299732208251953,2.669114112854004
1700958033529048000,4.243048095703125,1.2187395095825195,-14.935375213623047,6.855834007263184
1700958033546039800,4.260039794921875,1.5665764808654785,-12.179835319519043,7.851473331451416
1700958033563032000,4.277031982421875,-0.23402738571166992,-4.2526397705078125,5.607390403747559
1700958033580023000,4.29402294921875,-5.689192771911621,2.477217674255371,12.796415328979492
1700958033597015300,4.311015380859375,-5.522843360900879,5.395522594451904,29.509187698364258
1700958033614006300,4.32800634765625,4.057836055755615,7.107071876525879,40.3743896484375
1700958033630998500,4.34499853515625,11.526968002319336,10.048717498779297,35.539371490478516
1700958033647989800,4.36198974609375,13.115166664123535,12.54642105102539,18.032100677490234
1700958033664981800,4.378981689453125,8.806007385253906,11.328224182128906,6.307947158813477
1700958033681956600,4.39595654296875,2.443584680557251,8.994359970092773,1.285405158996582
1700958033698965200,4.41296533203125,-1.826767921447754,7.218104362487793,-3.017533779144287
1700958033715956200,4.429956298828125,-3.204665184020996,6.148613452911377,-7.14030647277832
1700958033732948000,4.446947998046875,-1.7010979652404785,6.0953521728515625,-9.517271041870117
1700958033749939500,4.463939453125,1.158911943435669,6.60659122467041,-9.920815467834473
1700958033766931500,4.480931396484375,3.816472053527832,7.3639817237854,-9.455650329589844
1700958033783922700,4.497922607421875,5.197187900543213,7.709207057952881,-8.669305801391602
1700958033800914700,4.514914794921875,3.944821357727051,7.5516767501831055,-9.568649291992188
1700958033817906000,4.531906005859375,1.8180592060089111,7.857960224151611,-11.884079933166504
1700958033834898200,4.548898193359375,-0.13869595527648926,7.779686450958252,-11.16222858428955
1700958033851889000,4.565888916015625,0.692232072353363,7.592866897583008,-8.024028778076172
1700958033868881200,4.582881103515625,3.6281862258911133,7.565426826477051,-2.5722336769104004
1700958033885883100,4.599883056640625,6.586119174957275,7.825168132781982,4.379370212554932
1700958033902861800,4.61686181640625,8.773250579833984,10.309264183044434,7.946220397949219
1700958033919845400,4.633845458984375,9.898317337036133,13.155048370361328,10.524801254272461
1700958033936848000,4.650847900390625,9.43127727508545,12.979307174682617,16.233762741088867
1700958033953838600,4.667838623046875,8.677950859069824,13.70114517211914,20.13518524169922
1700958033970831000,4.6848310546875,4.779698371887207,9.751301765441895,26.709835052490234
1700958033987822000,4.701822021484375,2.79878568649292,1.6989870071411133,28.139925003051758
1700958034004814000,4.71881396484375,4.288087844848633,-6.111943244934082,20.62016487121582
1700958034021805600,4.7358056640625,6.673429489135742,-10.919965744018555,10.066089630126953
1700958034038797600,4.752797607421875,7.359705924987793,-14.615917205810547,4.115435600280762
1700958034055788800,4.769788818359375,5.819402694702148,-17.383426666259766,2.63694167137146
1700958034072780500,4.786780517578125,3.1100077629089355,-19.340133666992188,2.259805202484131
1700958034089771800,4.803771728515625,0.9080898761749268,-20.650646209716797,1.7257459163665771
1700958034106764000,4.820763916015625,-0.694706916809082,-21.075260162353516,-0.224534273147583
1700958034123755000,4.837755126953125,-0.6406893730163574,-20.908964157104492,-2.7927041053771973
1700958034140747000,4.8547470703125,0.6399989128112793,-20.68268585205078,-4.329322814941406
1700958034157727200,4.871727294921875,1.4297723770141602,-19.672607421875,-4.290733814239502
1700958034174728200,4.888728271484375,1.005964994430542,-17.79123306274414,-3.357947587966919
1700958034191724300,4.905724365234375,0.9540150165557861,-16.079601287841797,-0.76462721824646
1700958034208713700,4.922713623046875,1.4333140850067139,-15.388006210327148,4.061829090118408
1700958034225704700,4.93970458984375,2.2257606983184814,-14.701467514038086,6.943829536437988
1700958034242696700,4.95669677734375,2.294189453125,-12.862086296081543,5.365108489990234
1700958034259688200,4.973688232421875,-2.6647849082946777,-3.9117720127105713,0.49220705032348633
1700958034276685300,4.990685302734375,-10.82447338104248,0.7729945182800293,6.832590103149414
1700958034293671400,5.00767138671875,-10.463180541992188,-1.4445834159851074,22.76871109008789
1700958034310663700,5.02466357421875,0.0578610897064209,-4.342432022094727,40.28429412841797
1700958034327654700,5.041654541015625,7.082230567932129,-6.1562886238098145,45.8317985534668
1700958034344634000,5.058634033203125,17.05086326599121,5.560506820678711,22.908573150634766
1700958034361629000,5.07562890625,18.765602111816406,6.1259260177612305,9.974552154541016
1700958034378624300,5.092624267578125,16.56885528564453,5.688299655914307,3.458531379699707
1700958034395621000,5.10962109375,6.265409469604492,3.9132370948791504,6.519878387451172
1700958034412613000,5.126613037109375,0.185805082321167,7.338027000427246,4.446802139282227
1700958034429604400,5.143604248046875,-0.8148367404937744,11.044207572937012,-4.208495140075684
1700958034446590700,5.1605908203125,1.295562505722046,11.577512741088867,-8.491618156433105
1700958034463583000,5.1775830078125,4.6384758949279785,10.482013702392578,-8.891885757446289
1700958034480580000,5.194580078125,7.389810085296631,10.165424346923828,-10.496354103088379
1700958034497567200,5.211567138671875,8.115971565246582,10.622197151184082,-10.966143608093262
1700958034514555100,5.22855517578125,6.660423278808594,11.0565185546875,-10.49036693572998
1700958034531544300,5.24554443359375,5.072475433349609,10.85915756225586,-8.387955665588379
1700958034548538000,5.2625380859375,4.559344291687012,10.89627742767334,-4.569703102111816
1700958034565528800,5.27952880859375,4.182736396789551,10.647177696228027,1.0319766998291016
1700958034582521900,5.29652197265625,4.1270432472229,10.84841537475586,7.213418483734131
1700958034599511000,5.313510986328125,7.192281723022461,12.932710647583008,10.436250686645508
1700958034616504600,5.330504638671875,10.88564395904541,12.823770523071289,15.467127799987793
1700958034633501200,5.347501220703125,12.749043464660645,11.038660049438477,19.559480667114258
1700958034650498800,5.364498779296875,13.534106254577637,10.144546508789062,20.863563537597656
1700958034667487200,5.3814873046875,11.646624565124512,6.4313740730285645,23.69400978088379
1700958034684479500,5.3984794921875,9.487271308898926,0.06853389739990234,24.390056610107422
1700958034701470700,5.415470703125,8.889898300170898,-5.707526206970215,19.94978904724121
1700958034718458400,5.432458251953125,7.938896179199219,-11.182696342468262,14.138906478881836
1700958034735451100,5.449451171875,6.164240837097168,-16.396987915039062,8.819122314453125
1700958034752448500,5.466448486328125,3.5952835083007812,-19.82098388671875,2.9154415130615234
1700958034769437000,5.48343701171875,1.026270866394043,-22.436752319335938,-0.534783124923706
1700958034786429000,5.500428955078125,-1.065582275390625,-23.8651065826416,-2.8601746559143066
1700958034803409700,5.51740966796875,-0.2842235565185547,-24.800758361816406,-4.888117790222168
1700958034820412400,5.534412353515625,1.753474473953247,-24.631893157958984,-6.634608268737793
1700958034837403600,5.551403564453125,2.343472957611084,-23.44487953186035,-7.432338714599609
1700958034854393300,5.568393310546875,1.8039066791534424,-21.65635108947754,-6.232823371887207
1700958034871389000,5.585388916015625,1.271120548248291,-19.947084426879883,-3.0678577423095703
1700958034888379000,5.60237890625,1.591733455657959,-18.351009368896484,0.5034127235412598
1700958034905370000,5.6193701171875,2.795947313308716,-17.021358489990234,6.154522895812988
1700958034922362400,5.6363623046875,3.4149954319000244,-14.609151840209961,11.013246536254883
1700958034939343400,5.65334326171875,3.3622586727142334,-10.950024604797363,8.681594848632812
1700958034956350200,5.67035009765625,0.4835996627807617,-4.684597969055176,2.5644030570983887
1700958034973333800,5.687333740234375,-4.8748674392700195,2.402101993560791,11.403369903564453
1700958034990340600,5.704340576171875,-3.5570425987243652,7.4145636558532715,34.58953857421875
1700958035007317200,5.721317138671875,8.740026473999023,10.390707015991211,44.791751861572266
1700958035024314600,5.738314697265625,17.820322036743164,13.73994255065918,34.93685531616211
1700958035041292300,5.755292236328125,18.280874252319336,14.908424377441406,21.09197998046875
1700958035058284500,5.772284423828125,13.37047290802002,13.268586158752441,10.27014446258545
1700958035075286500,5.78928662109375,5.716089725494385,9.999748229980469,3.972757339477539
1700958035092278800,5.80627880859375,-0.6123063564300537,7.6378326416015625,-0.7474260330200195
1700958035109269800,5.823269775390625,-3.7249317169189453,7.435515403747559,-6.221563339233398
1700958035126261800,5.84026171875,-3.5540497303009033,7.989978790283203,-9.886222839355469
1700958035143252700,5.857252685546875,0.6648614406585693,9.436830520629883,-10.253173828125
1700958035160242400,5.874242431640625,4.572900295257568,10.768332481384277,-8.4859619140625
1700958035177233400,5.8912333984375,6.828426361083984,11.729669570922852,-8.36851978302002
1700958035194228000,5.90822802734375,5.467602729797363,11.858530044555664,-10.124773025512695
1700958035211222000,5.925221923828125,3.879612445831299,11.723370552062988,-12.058201789855957
1700958035228211700,5.942211669921875,3.812769889831543,11.12651538848877,-11.063711166381836
1700958035245202400,5.959202392578125,4.53920841217041,10.647563934326172,-5.797883987426758
1700958035262195000,5.97619482421875,5.652754783630371,10.097188949584961,0.5670080184936523
1700958035279186000,5.99318603515625,6.449662208557129,10.575666427612305,6.280880451202393
1700958035296169200,6.010169189453125,7.10845947265625,13.623495101928711,10.185962677001953
1700958035313169700,6.027169677734375,10.12961196899414,15.65199089050293,13.672160148620605
1700958035330161400,6.044161376953125,13.301874160766602,14.56126880645752,17.39700698852539
1700958035347152400,6.06115234375,12.728915214538574,13.410758972167969,19.776308059692383
1700958035364158500,6.078158447265625,8.491083145141602,11.787635803222656,20.382888793945312
1700958035381133300,6.09513330078125,3.6213455200195312,8.885293960571289,23.034664154052734
1700958035398130400,6.11213037109375,2.7431015968322754,1.3664917945861816,24.925954818725586
1700958035415110700,6.129110595703125,7.911076545715332,-7.768890857696533,18.726594924926758
1700958035432108500,6.146108642578125,15.640365600585938,-15.48532485961914,8.688139915466309
1700958035449104400,6.1631044921875,18.316909790039062,-20.788875579833984,1.7768669128417969
1700958035466095000,6.18009521484375,15.039318084716797,-24.122638702392578,-0.7481898069381714
1700958035483084800,6.197084716796875,8.630424499511719,-25.728803634643555,-1.3018099069595337
1700958035500077800,6.214077880859375,4.064086437225342,-25.564090728759766,-0.4488868713378906
1700958035517068800,6.23106884765625,0.7987308502197266,-24.450185775756836,-0.929675817489624
1700958035534058200,6.248058349609375,0.47605419158935547,-22.628185272216797,-3.2938573360443115
1700958035551054600,6.2650546875,1.958465337753296,-21.130889892578125,-4.102234363555908
1700958035568044000,6.2820439453125,2.1612491607666016,-19.54538917541504,-0.9195866584777832
1700958035585024500,6.2990244140625,1.4381890296936035,-17.012609481811523,5.936188220977783
1700958035602025700,6.316025634765625,1.9110052585601807,-13.693265914916992,11.213397979736328
1700958035619020300,6.333020263671875,3.809267520904541,-10.998884201049805,8.352428436279297
1700958035636000800,6.350000732421875,3.054161548614502,-10.122430801391602,2.7126078605651855
1700958035652999700,6.366999755859375,-2.3477067947387695,-8.398444175720215,1.274266242980957
1700958035669989400,6.3839892578125,-6.837375164031982,-3.584498167037964,9.214442253112793
1700958035686989300,6.4009892578125,-3.4509925842285156,3.9274539947509766,16.189847946166992
1700958035703977700,6.417977783203125,4.918791770935059,9.805058479309082,30.00411033630371
1700958035720956400,6.434956298828125,8.911155700683594,16.24201774597168,41.35703659057617
1700958035737954300,6.451954345703125,11.716169357299805,22.01817512512207,31.99304962158203
1700958035754949400,6.468949462890625,10.105119705200195,21.68990135192871,18.042428970336914
1700958035771941600,6.485941650390625,6.19972038269043,17.470966339111328,8.880258560180664
1700958035788937200,6.502937255859375,2.9067671298980713,12.847280502319336,3.5048837661743164
1700958035805927000,6.519927001953125,2.3721694946289062,10.398477554321289,-2.666325092315674
1700958035822918700,6.536918701171875,2.3474793434143066,9.434486389160156,-7.823348045349121
1700958035839907300,6.5539072265625,2.8688082695007324,9.531644821166992,-10.837732315063477
1700958035856899300,6.5708994140625,3.2351765632629395,9.807256698608398,-11.83384895324707
1700958035873885700,6.5878857421875,2.9230456352233887,10.060669898986816,-11.708351135253906
1700958035890884900,6.604884765625,0.24268651008605957,9.939164161682129,-10.450944900512695
1700958035907874300,6.621874267578125,-2.74338698387146,9.387263298034668,-9.288656234741211
1700958035924870700,6.63887060546875,-3.7696845531463623,8.353734970092773,-8.457433700561523
1700958035941860000,6.655860107421875,-1.6546528339385986,7.423305034637451,-6.778452396392822
1700958035958851600,6.6728515625,0.9401745796203613,6.75474214553833,-3.159262180328369
1700958035975843600,6.689843505859375,2.0749850273132324,7.101956844329834,1.2616844177246094
1700958035992834600,6.70683447265625,1.7090785503387451,7.753992557525635,7.889254093170166
1700958036009827600,6.72382763671875,2.8342268466949463,11.699906349182129,13.412391662597656
1700958036026815500,6.7408154296875,2.21421480178833,12.495096206665039,22.3382568359375
1700958036043812600,6.7578125,0.39470934867858887,9.360163688659668,27.939613342285156
1700958036060804400,6.774804443359375,-3.73997163772583,4.388797283172607,27.06938934326172
1700958036077780700,6.79178076171875,-7.641815662384033,-0.8217148780822754,21.94389533996582
1700958036094786800,6.808786865234375,-5.116734027862549,-6.43783712387085,15.697696685791016
1700958036111778300,6.8257783203125,2.3849735260009766,-12.184683799743652,9.94390869140625
1700958036128766200,6.84276611328125,8.046948432922363,-16.564990997314453,5.024017810821533
1700958036145760000,6.859760009765625,9.784918785095215,-19.571762084960938,1.5371477603912354
1700958036162750700,6.876750732421875,7.540468215942383,-21.412479400634766,-1.410581111907959
1700958036179743000,6.893742919921875,3.6678409576416016,-21.58904457092285,-3.9017701148986816
1700958036196734200,6.910734130859375,1.3224599361419678,-21.04659652709961,-4.912173271179199
1700958036213726200,6.927726318359375,0.758047342300415,-21.067949295043945,-2.8071510791778564
1700958036230708000,6.9447080078125,2.4008429050445557,-20.879159927368164,-1.7529164552688599
1700958036247707100,6.96170703125,4.2228217124938965,-20.015220642089844,-1.5740463733673096
1700958036264693000,6.97869287109375,5.050339698791504,-18.527442932128906,-2.6491079330444336
1700958036281693000,6.99569287109375,4.713748931884766,-17.326826095581055,-2.8713741302490234
1700958036298684200,7.01268408203125,3.9506328105926514,-16.483097076416016,-0.6094508171081543
1700958036315676200,7.02967626953125,2.061354637145996,-15.707395553588867,5.432278633117676
1700958036332654300,7.046654296875,0.28735828399658203,-14.158912658691406,10.75401782989502
1700958036349649700,7.063649658203125,-0.23025035858154297,-6.638411998748779,7.462692737579346
1700958036366644000,7.08064404296875,-3.4568958282470703,4.394744873046875,7.461891174316406
1700958036383634200,7.09763427734375,-8.989274978637695,6.193870544433594,27.12520408630371
1700958036400627500,7.11462744140625,-5.610755920410156,4.567820072174072,44.704673767089844
1700958036417609200,7.131609130859375,6.268941402435303,8.463637351989746,43.2820930480957
1700958036434607900,7.14860791015625,18.442523956298828,15.813865661621094,21.187347412109375
1700958036451602200,7.165602294921875,13.712017059326172,15.340447425842285,9.470233917236328
1700958036468594000,7.182593994140625,1.3094162940979004,12.919913291931152,5.871432304382324
1700958036485593900,7.19959375,-5.961443901062012,11.723684310913086,0.02339935302734375
1700958036502585900,7.2165859375,-7.6199846267700195,11.045136451721191,-5.815415382385254
1700958036519573500,7.233573486328125,-5.310686111450195,10.248798370361328,-8.222253799438477
1700958036536567000,7.250567138671875,-1.7518682479858398,9.581727981567383,-9.535645484924316
1700958036553556500,7.267556396484375,1.8533128499984741,9.773547172546387,-10.37559700012207
1700958036570552600,7.284552490234375,3.164154291152954,9.748650550842285,-10.490691184997559
1700958036587542300,7.301542236328125,1.835269570350647,8.89559555053711,-9.985092163085938
1700958036604533200,7.318533203125,0.12542569637298584,8.34739875793457,-9.579876899719238
1700958036621525500,7.335525390625,-0.40700721740722656,8.567322731018066,-8.250175476074219
1700958036638516700,7.352516845703125,-0.6024894714355469,8.989072799682617,-3.925957202911377
1700958036655509000,7.369509033203125,-1.3410283327102661,8.725870132446289,2.7263097763061523
1700958036672500500,7.38650048828125,-1.5407421588897705,8.774336814880371,5.806387901306152
1700958036689492200,7.4034921875,-0.6518886089324951,11.665486335754395,6.5524468421936035
1700958036706483200,7.420483154296875,1.4564927816390991,14.672042846679688,9.803849220275879
1700958036723472400,7.437472412109375,2.674778938293457,15.3031644821167,16.654605865478516
1700958036740466400,7.454466552734375,1.7997678518295288,13.765485763549805,25.33234405517578
1700958036757458700,7.471458740234375,-0.7063703536987305,6.7578125,29.45682716369629
1700958036774439400,7.488439453125,-0.19572687149047852,-1.8603663444519043,25.290447235107422
1700958036791442000,7.50544189453125,4.0760817527771,-9.008334159851074,17.113204956054688
1700958036808433400,7.522433349609375,6.693598747253418,-14.768287658691406,9.698447227478027
1700958036825425200,7.539425048828125,6.443639755249023,-18.339847564697266,4.641685485839844
1700958036842416600,7.556416748046875,3.9508795738220215,-20.840160369873047,0.818351149559021
1700958036859405300,7.5734052734375,1.9294136762619019,-22.921791076660156,-2.4827280044555664
1700958036876387600,7.5903876953125,1.4110615253448486,-24.39520263671875,-3.7549238204956055
1700958036893388300,7.60738818359375,1.6695932149887085,-26.367536544799805,0.10090398788452148
1700958036910383900,7.6243837890625,2.6096737384796143,-26.605087280273438,1.4958748817443848
1700958036927377700,7.641377685546875,3.4959356784820557,-25.06381607055664,-2.0464251041412354
1700958036944366300,7.658366455078125,2.023961067199707,-22.905845642089844,-5.659952163696289
1700958036961358600,7.675358642578125,-0.022528409957885742,-20.984840393066406,-4.68360710144043
1700958036978349600,7.692349609375,-2.0428061485290527,-19.490741729736328,2.8301219940185547
1700958036995341600,7.709341552734375,-2.9323248863220215,-17.14740753173828,12.668839454650879
1700958037012333000,7.7263330078125,0.6169095039367676,-13.016079902648926,16.0709228515625
1700958037029324800,7.74332470703125,3.2009220123291016,-6.528121471405029,8.494996070861816
1700958037046316300,7.76031640625,-4.825395584106445,1.4914398193359375,7.234253883361816
1700958037063308500,7.77730859375,-12.837921142578125,5.435953617095947,25.742610931396484
1700958037080296700,7.794296630859375,-5.499762535095215,7.143711090087891,45.31499099731445
1700958037097294300,7.81129443359375,7.139043807983398,12.055198669433594,37.76508331298828
1700958037114282000,7.828281982421875,13.643909454345703,15.0649995803833,18.159507751464844
1700958037131275500,7.845275634765625,10.0387601852417,13.989946365356445,7.2695817947387695
1700958037148266000,7.862265869140625,3.8314967155456543,11.846776962280273,2.793328285217285
1700958037165258000,7.879258056640625,0.36545467376708984,10.388543128967285,-1.7354626655578613
1700958037182249200,7.896249267578125,-1.5876429080963135,9.690986633300781,-4.597561836242676
1700958037199241500,7.913241455078125,-0.7679517269134521,9.760457992553711,-8.412088394165039
1700958037216229000,7.93022900390625,1.160799503326416,10.133180618286133,-11.807219505310059
1700958037233224700,7.947224609375,2.6246001720428467,10.208174705505371,-11.986188888549805
1700958037250215700,7.964215576171875,2.856783628463745,10.801406860351562,-11.100914001464844
1700958037267208000,7.9812080078125,1.8465023040771484,10.557722091674805,-9.961638450622559
1700958037284199200,7.99819921875,0.9643481969833374,9.645612716674805,-8.535654067993164
1700958037301191400,8.01519140625,1.5787091255187988,8.625433921813965,-6.915266036987305
1700958037318182400,8.032182373046876,1.675935983657837,8.44888973236084,-4.4085283279418945
1700958037335171800,8.049171875,2.024352550506592,8.78338623046875,0.16618824005126953
1700958037352165600,8.06616552734375,1.3269009590148926,8.760751724243164,7.529199600219727
1700958037369160700,8.08316064453125,1.0704801082611084,9.697163581848145,13.776418685913086
1700958037386148900,8.10014892578125,3.790678024291992,12.344889640808105,17.144641876220703
1700958037403131400,8.11713134765625,7.2792439460754395,11.346258163452148,21.835054397583008
1700958037420132400,8.13413232421875,8.490355491638184,9.151634216308594,22.929004669189453
1700958037437124600,8.15112451171875,4.972440242767334,5.949416160583496,23.172908782958984
1700958037454112800,8.16811279296875,1.301440954208374,-0.971013069152832,22.554424285888672
1700958037471110400,8.1851103515625,2.488821029663086,-8.292898178100586,17.59596824645996
1700958037488098800,8.202098876953125,6.1745758056640625,-14.450626373291016,10.834754943847656
1700958037505090800,8.2190908203125,8.124692916870117,-18.909801483154297,4.288682460784912
1700958037522082300,8.236082275390626,5.909255504608154,-20.981399536132812,-1.2432376146316528
1700958037539071700,8.25307177734375,1.6454862356185913,-21.930103302001953,-3.236502170562744
1700958037556057600,8.2700576171875,-1.0993807315826416,-22.291330337524414,-1.7652543783187866
1700958037573057500,8.2870576171875,-0.8318753242492676,-22.559005737304688,0.9934921264648438
1700958037590048000,8.304048095703125,1.586832046508789,-22.912826538085938,2.929722309112549
1700958037607041800,8.321041748046875,4.3628973960876465,-21.993492126464844,0.6786284446716309
1700958037624028400,8.3380283203125,4.693175792694092,-20.787996292114258,-2.2568359375
1700958037641024000,8.35502392578125,2.3306760787963867,-19.377283096313477,-3.830146312713623
1700958037658015200,8.37201513671875,-0.9011335372924805,-18.12586212158203,-0.7270691394805908
1700958037675007500,8.389007568359375,-2.9592337608337402,-16.65480613708496,4.898514747619629
1700958037691998000,8.405998046875,-2.802302360534668,-15.027557373046875,10.918813705444336
1700958037708991700,8.42299169921875,-0.8380675315856934,-12.188898086547852,12.867877960205078
1700958037725982000,8.43998193359375,-0.9389972686767578,-6.271796226501465,8.697738647460938
1700958037742974200,8.45697412109375,-7.040790557861328,3.068432331085205,7.765137672424316
1700958037759963100,8.473963134765626,-11.867290496826172,5.023233413696289,25.935810089111328
1700958037776959200,8.490959228515624,-5.216145038604736,6.529227256774902,44.56062316894531
1700958037793943000,8.507943115234376,7.017077445983887,10.816080093383789,40.82939147949219
1700958037810938000,8.524938232421874,15.352533340454102,14.723886489868164,22.947803497314453
1700958037827923500,8.54192333984375,13.266589164733887,14.079511642456055,9.17877197265625
1700958037844921300,8.55892138671875,5.300668239593506,11.876917839050293,2.7787303924560547
1700958037861906200,8.57590625,-0.9393205642700195,10.615755081176758,-1.8328757286071777
1700958037878899200,8.592899169921875,-3.5350382328033447,9.46995735168457,-5.74443244934082
1700958037895898000,8.609898193359374,-2.6982736587524414,8.481077194213867,-7.781219482421875
1700958037912880000,8.626880126953125,0.31754422187805176,7.579137802124023,-9.170458793640137
1700958037929881300,8.64388134765625,4.895663261413574,7.524240016937256,-10.670635223388672
1700958037946863900,8.66086376953125,6.499000549316406,7.945981025695801,-11.758447647094727
1700958037963857000,8.67785693359375,3.8742239475250244,7.644435882568359,-12.97164535522461
1700958037980848600,8.6948486328125,0.2600278854370117,7.417950630187988,-13.885095596313477
1700958037997836800,8.7118369140625,-1.3564796447753906,7.148825168609619,-12.177913665771484
1700958038014832600,8.72883251953125,0.12104260921478271,6.548935890197754,-7.1255340576171875
1700958038031820500,8.745820556640625,3.0074965953826904,6.0322489738464355,-1.6489133834838867
1700958038048818200,8.762818115234374,4.2461628913879395,7.101375579833984,2.8566460609436035
1700958038065802800,8.779802734375,4.149296283721924,9.745725631713867,6.808374881744385
1700958038082796500,8.796796630859374,4.375816345214844,14.141317367553711,10.925614356994629
1700958038099788000,8.8137880859375,6.521718502044678,15.799707412719727,18.560285568237305
1700958038116782600,8.830782470703125,8.692471504211426,13.170475006103516,23.86240005493164
1700958038133781200,8.84778125,5.885653495788574,10.318031311035156,25.14885711669922
1700958038150773500,8.8647734375,0.6005027294158936,4.9497833251953125,25.26544952392578
1700958038167764500,8.881764404296876,-0.11135506629943848,-2.1783876419067383,21.74273109436035
1700958038184756700,8.8987568359375,3.365219831466675,-8.91092300415039,14.814760208129883
1700958038201747700,8.915747802734375,7.038288116455078,-14.45167350769043,8.336532592773438
1700958038218738200,8.93273828125,9.55605697631836,-18.557186126708984,3.6203131675720215
1700958038235736600,8.949736572265625,8.288965225219727,-21.517900466918945,0.8441610336303711
1700958038252720000,8.96672021484375,5.29194450378418,-23.545185089111328,-0.9048885703086853
1700958038269714400,8.98371435546875,2.6449508666992188,-24.52208137512207,-1.8498585224151611
1700958038286706700,9.000706787109374,0.7680392265319824,-24.651039123535156,-1.6628210544586182
1700958038303697700,9.01769775390625,0.18003153800964355,-24.154491424560547,-1.2845573425292969
1700958038320690200,9.034690185546875,0.8220546245574951,-22.810768127441406,-1.6243445873260498
1700958038337671700,9.051671630859374,1.5238280296325684,-20.819019317626953,-2.0153253078460693
1700958038354673200,9.068673095703126,2.3376617431640625,-18.878036499023438,-1.8017714023590088
1700958038371664400,9.085664306640625,1.8828792572021484,-17.625030517578125,1.8714573383331299
1700958038388656600,9.10265673828125,-0.8674359321594238,-16.89834976196289,9.216131210327148
1700958038405639700,9.1196396484375,-5.402550220489502,-15.281648635864258,13.415457725524902
1700958038422640000,9.13664013671875,-8.82579231262207,-9.30622673034668,11.999578475952148
1700958038439631000,9.153631103515625,-7.4623637199401855,-0.7605628967285156,13.417492866516113
1700958038456612400,9.1706123046875,-2.3677492141723633,2.64241886138916,27.157922744750977
1700958038473612000,9.187612060546876,3.936774969100952,5.9145073890686035,43.91302490234375
1700958038490609000,9.20460888671875,8.250795364379883,11.33331298828125,48.31749725341797
1700958038507587000,9.221587158203125,7.500638961791992,17.130802154541016,29.618919372558594
1700958038524599300,9.238599365234375,4.043187141418457,16.484970092773438,12.057723045349121
1700958038541581000,9.2555810546875,-0.6859550476074219,13.22262954711914,2.2468090057373047
1700958038558572800,9.27257275390625,-1.531559944152832,11.606912612915039,-4.347728252410889
1700958038575564300,9.289564208984375,0.39452576637268066,11.186534881591797,-8.009459495544434
1700958038592556500,9.306556640625,3.2288453578948975,11.2896089553833,-9.48185920715332
1700958038609547500,9.323547607421874,5.709568977355957,12.570781707763672,-10.281745910644531
1700958038626538500,9.34053857421875,4.7262349128723145,13.450675964355469,-11.67508602142334
1700958038643532000,9.357531982421875,1.641039252281189,12.660938262939453,-13.186971664428711
1700958038660532500,9.374532470703125,-0.24799871444702148,11.043939590454102,-14.553624153137207
1700958038677511400,9.391511474609375,0.02873516082763672,9.163057327270508,-14.012563705444336
1700958038694508800,9.4085087890625,2.166346311569214,8.310626983642578,-10.884183883666992
1700958038711496700,9.42549658203125,4.139276504516602,7.297478199005127,-3.530895709991455
1700958038728489700,9.44248974609375,4.902151107788086,7.414178848266602,3.571082592010498
1700958038745480700,9.459480712890626,3.0614757537841797,7.990403175354004,9.125228881835938
1700958038762472700,9.47647265625,2.051205635070801,12.106916427612305,9.80286693572998
1700958038779464000,9.4934638671875,3.655978202819824,14.897302627563477,12.751839637756348
1700958038796452400,9.510452392578125,5.811583518981934,13.771871566772461,18.423418045043945
1700958038813446100,9.527446044921875,5.140374183654785,13.342694282531738,22.278717041015625
1700958038830429400,9.544429443359375,1.7105889320373535,8.496866226196289,28.747840881347656
1700958038847430700,9.5614306640625,1.9948053359985352,-0.2654247283935547,29.231876373291016
1700958038864422700,9.578422607421874,6.782025337219238,-8.675837516784668,20.28622817993164
1700958038881420500,9.595420654296875,10.486335754394531,-14.38831901550293,10.656990051269531
1700958038898403800,9.61240380859375,9.435505867004395,-17.863693237304688,4.608669757843018
1700958038915399700,9.629399658203125,6.008057117462158,-19.867267608642578,1.4971604347229004
1700958038932392000,9.646391845703125,2.3870649337768555,-21.066722869873047,0.298137903213501
1700958038949383000,9.6633828125,1.1194510459899902,-22.519336700439453,0.36220502853393555
1700958038966370000,9.6803701171875,1.4035706520080566,-23.59140396118164,0.3865467309951782
1700958038983363600,9.697363525390625,3.35931134223938,-23.98806381225586,-0.9071359634399414
1700958039000356000,9.714356201171874,4.895623207092285,-23.855056762695312,-1.651187777519226
1700958039017347000,9.73134716796875,3.783074378967285,-22.475921630859375,-2.4333250522613525
1700958039034339600,9.748339599609375,1.3668763637542725,-20.64734649658203,-0.5905354022979736
1700958039051331800,9.765331787109375,-1.0522150993347168,-18.606706619262695,3.6432371139526367
1700958039068319700,9.78231982421875,-2.4918932914733887,-16.85261344909668,8.146410942077637
1700958039085305600,9.7993056640625,-3.697183132171631,-14.951143264770508,8.748003959655762
1700958039102296600,9.816296630859375,-6.112214088439941,-10.066353797912598,8.22627067565918
1700958039119294500,9.83329443359375,-7.149389743804932,-4.36967134475708,12.839784622192383
1700958039136275500,9.850275390625,-1.9665937423706055,0.6798725128173828,26.624980926513672
1700958039153280300,9.8672802734375,3.668639898300171,2.9188590049743652,42.23687744140625
1700958039170272500,9.8842724609375,9.21645450592041,8.42995834350586,41.197723388671875
1700958039187263500,9.901263427734374,10.749984741210938,14.19812297821045,29.231353759765625
1700958039204255700,9.918255859375,6.916326522827148,15.69903564453125,18.870479583740234
1700958039221247000,9.9352470703125,1.7082841396331787,14.037418365478516,11.915642738342285
1700958039238239000,9.952239013671875,-0.2754080295562744,11.7878999710083,4.71211051940918
1700958039255237600,9.969237548828126,0.4210050106048584,9.951327323913574,-1.9459123611450195
1700958039272222500,9.986222412109376,3.0240652561187744,9.234743118286133,-7.241591453552246
1700958039289213400,10.00321337890625,6.30873966217041,9.95411491394043,-11.041411399841309
1700958039306205400,10.020205322265625,8.582477569580078,11.399384498596191,-12.357370376586914
1700958039323195600,10.037195556640626,8.301726341247559,12.91943359375,-10.752523422241211
1700958039340190500,10.0541904296875,5.623320579528809,13.42378044128418,-8.535881042480469
1700958039357180200,10.07118017578125,1.9355080127716064,13.051117897033691,-9.816590309143066
1700958039374172200,10.088172119140625,-1.8756160736083984,12.130476951599121,-12.729225158691406
1700958039391163100,10.1051630859375,-1.9607226848602295,11.150859832763672,-13.736345291137695
1700958039408155600,10.12215576171875,0.9801222085952759,9.912364959716797,-10.191020965576172
1700958039425147000,10.13914697265625,3.679405689239502,9.194072723388672,-2.7749433517456055
1700958039442138600,10.156138671875,4.037628173828125,9.915786743164062,4.230891227722168
1700958039459130000,10.173130126953126,1.2751773595809937,12.847412109375,8.6376371383667
1700958039476122000,10.1901220703125,-2.1977734565734863,14.898242950439453,13.88838005065918
1700958039493113000,10.207113037109375,1.8118535280227661,15.787897109985352,14.576841354370117
1700958039510105300,10.224105224609374,6.758041858673096,15.280496597290039,19.58694076538086
1700958039527099400,10.241099365234374,8.38353157043457,15.22403621673584,25.65744972229004
1700958039544086000,10.2580859375,8.532797813415527,16.466205596923828,28.446956634521484
1700958039561080000,10.275080078125,6.442446708679199,12.98367977142334,31.25813102722168
1700958039578072000,10.292072021484374,1.0320374965667725,5.153316497802734,29.386131286621094
1700958039595052500,10.309052490234375,-3.364443778991699,-2.2859010696411133,21.949609756469727
1700958039612053000,10.326052978515625,-1.858138084411621,-8.294795989990234,15.23832893371582
1700958039629049000,10.343049072265625,4.651747226715088,-15.158275604248047,10.478778839111328
1700958039646038500,10.36003857421875,12.948795318603516,-20.868560791015625,5.209824562072754
1700958039663029500,10.377029541015625,16.312185287475586,-25.078542709350586,1.573831558227539
1700958039680022500,10.3940224609375,13.651976585388184,-27.02640151977539,-0.31653833389282227
1700958039697013200,10.41101318359375,9.911032676696777,-27.439491271972656,0.7246706485748291
1700958039714001200,10.428001220703125,7.677742958068848,-27.854557037353516,4.135094165802002
1700958039730994000,10.444993896484375,8.492215156555176,-27.893356323242188,5.644484519958496
1700958039747991000,10.461990966796876,9.520822525024414,-26.593564987182617,4.448641300201416
1700958039764980000,10.47897998046875,8.925477981567383,-24.546546936035156,2.958033800125122
1700958039781972000,10.495971923828124,7.98844051361084,-22.85831069946289,3.210489273071289
1700958039798963000,10.512962890625,7.113296031951904,-21.70575714111328,6.131343364715576
1700958039815955200,10.529955078125,5.2879180908203125,-20.26650619506836,7.970171928405762
1700958039832935700,10.546935791015626,3.744699239730835,-19.476179122924805,9.297846794128418
1700958039849930500,10.563930419921874,3.366309642791748,-18.571189880371094,12.349822998046875
1700958039866923000,10.580923095703126,2.5457730293273926,-18.2930850982666,15.347246170043945
1700958039883912400,10.597912353515625,-2.8415310382843018,-16.735233306884766,17.699676513671875
1700958039900904200,10.614904296875,-9.383975982666016,-15.276603698730469,26.821245193481445
1700958039917894100,10.63189404296875,-3.6676390171051025,-16.30083656311035,36.47869110107422
1700958039934888700,10.648888671875,10.815446853637695,-9.962636947631836,39.65910339355469
1700958039951880700,10.665880615234375,13.583539962768555,-1.0025848150253296,43.7026252746582
1700958039968865300,10.682865234375,6.623467445373535,7.048654556274414,49.38767623901367
1700958039985871600,10.69987158203125,-2.017210006713867,12.50163459777832,54.793975830078125
1700958040002865700,10.71686572265625,-6.444222450256348,15.050263404846191,40.752105712890625
1700958040019850200,10.733850341796876,-1.0130295753479004,15.386662483215332,18.927814483642578
1700958040036846000,10.75084619140625,5.0989460945129395,15.555062294006348,8.341248512268066
1700958040053834000,10.767833984375,7.499156951904297,16.280576705932617,7.46567440032959
1700958040070834000,10.784833984375,5.3641252517700195,18.18570327758789,2.8493709564208984
1700958040087821600,10.801821533203125,1.7506159543991089,20.98282241821289,-5.658693313598633
1700958040104812800,10.818812744140626,2.1138579845428467,23.164531707763672,-11.680330276489258
1700958040121804800,10.8358046875,-0.1823892593383789,24.550817489624023,-13.92774772644043
1700958040138796000,10.852796142578125,-4.558480262756348,24.7572078704834,-15.202393531799316
1700958040155788300,10.869788330078125,-7.719974040985107,24.031116485595703,-15.779447555541992
1700958040172779300,10.886779296875,-6.935253143310547,22.19835662841797,-13.99144172668457
1700958040189771800,10.903771728515625,-3.854978561401367,20.03692626953125,-10.935333251953125
1700958040206762800,10.9207626953125,-2.196732759475708,17.550077438354492,-5.278837203979492
1700958040223754800,10.937754638671874,-1.0150126218795776,15.405558586120605,-1.2527475357055664
1700958040240746000,10.95474609375,0.8228188753128052,14.420503616333008,1.0319452285766602
1700958040257727700,10.971727783203125,0.06959271430969238,14.768196105957031,4.300174713134766
1700958040274729700,10.988729736328125,-6.724991798400879,18.87939453125,12.29918098449707
1700958040291721500,11.005721435546874,-12.20759391784668,20.96078109741211,23.21540069580078
1700958040308713000,11.022712890625,-5.089934825897217,20.705677032470703,30.515756607055664
1700958040325705000,11.039705078125,4.465845584869385,19.192096710205078,32.9234619140625
1700958040342696000,11.056696044921875,8.43370246887207,19.708873748779297,36.01357650756836
1700958040359677400,11.073677490234376,4.972217559814453,20.792407989501953,42.640907287597656
1700958040376677600,11.090677734375,-0.3554375171661377,18.14185333251953,45.52292251586914
1700958040393673000,11.1076728515625,-0.33451223373413086,9.67529010772705,42.66603088378906
1700958040410662700,11.12466259765625,2.7964138984680176,1.077174186706543,33.934696197509766
1700958040427655000,11.141655029296874,4.012131214141846,-7.842541694641113,26.116313934326172
1700958040444641800,11.158641845703125,3.8789424896240234,-15.709651947021484,18.623432159423828
1700958040461638100,11.17563818359375,3.0009925365448,-19.972578048706055,13.915213584899902
1700958040478629400,11.19262939453125,2.9216203689575195,-21.735410690307617,14.536951065063477
1700958040495621400,11.209621337890624,6.0013909339904785,-23.963237762451172,14.818214416503906
1700958040512601900,11.226601806640625,11.425300598144531,-27.480960845947266,14.498788833618164
1700958040529604900,11.24360498046875,15.61227035522461,-29.090518951416016,13.564189910888672
1700958040546596000,11.26059619140625,13.652498245239258,-29.071884155273438,13.427499771118164
1700958040563588000,11.277588134765624,10.659286499023438,-28.323820114135742,12.661048889160156
1700958040580579300,11.294579345703125,7.249504089355469,-26.581192016601562,10.477178573608398
1700958040597571000,11.311571044921875,5.28343391418457,-23.984006881713867,8.170424461364746
1700958040614573600,11.328573486328125,3.5785140991210938,-22.46463394165039,9.199615478515625
1700958040631552000,11.345552001953125,2.9326844215393066,-22.48012924194336,14.553598403930664
1700958040648548400,11.36254833984375,3.1116578578948975,-21.847423553466797,18.030349731445312
1700958040665537800,11.379537841796875,2.6317191123962402,-21.1070556640625,18.23094367980957
1700958040682529300,11.396529296875,3.2299671173095703,-19.437686920166016,18.083396911621094
1700958040699521300,11.413521240234376,1.4199413061141968,-18.192848205566406,20.228870391845703
1700958040716512500,11.430512451171875,-7.54482364654541,-15.56096363067627,25.19482421875
1700958040733502200,11.447502197265624,-14.054802894592285,-10.333308219909668,35.39386749267578
1700958040750498600,11.46449853515625,-6.618672847747803,0.8328149318695068,47.0098991394043
1700958040767488000,11.481488037109376,0.09876394271850586,7.452178955078125,58.90096664428711
1700958040784468500,11.498468505859375,7.464871406555176,11.992788314819336,57.69935607910156
1700958040801469400,11.515469482421874,9.16398811340332,17.03736114501953,46.0115852355957
1700958040818464800,11.53246484375,4.042497634887695,19.016082763671875,27.626358032226562
1700958040835464700,11.549464599609376,-2.990116596221924,18.25171661376953,14.362929344177246
1700958040852445200,11.566445068359375,-2.6068472862243652,18.09015655517578,3.99552059173584
1700958040869441300,11.583441162109375,3.5992040634155273,19.50384521484375,-1.1438007354736328
1700958040886429200,11.60042919921875,7.283501148223877,23.053451538085938,-1.4323396682739258
1700958040903421200,11.617421142578126,10.085115432739258,27.600139617919922,-4.165506839752197
1700958040920412700,11.63441259765625,6.154369354248047,29.02623176574707,-8.596755027770996
1700958040937404700,11.65140478515625,-1.84432053565979,27.949298858642578,-14.541707992553711
1700958040954396000,11.66839599609375,-5.670835971832275,26.178237915039062,-18.895709991455078
1700958040971387600,11.6853876953125,-4.788632869720459,23.747905731201172,-18.137693405151367
1700958040988379100,11.702379150390625,-1.1751540899276733,21.451066970825195,-11.05600643157959
1700958041005368600,11.71936865234375,1.8327386379241943,18.770774841308594,-2.3394031524658203
1700958041022364700,11.73636474609375,3.68330717086792,16.4272403717041,2.428821563720703
1700958041039345700,11.753345703125,0.8789945840835571,14.131917953491211,4.963262557983398
1700958041056341500,11.770341552734376,-3.259404420852661,14.475383758544922,6.511187553405762
1700958041073324800,11.78732470703125,-5.4598798751831055,16.56123161315918,14.585526466369629
1700958041090331600,11.80433154296875,-3.240023612976074,18.188961029052734,27.95314598083496
1700958041107321300,11.8213212890625,3.504446268081665,18.129127502441406,39.47858810424805
1700958041124312000,11.83831201171875,9.646233558654785,13.459606170654297,41.555809020996094
1700958041141304600,11.8553046875,12.64970588684082,13.21924877166748,37.14576721191406
1700958041158295800,11.8722958984375,6.838770389556885,9.658590316772461,37.03211975097656
1700958041175287800,11.889287841796875,-3.2475051879882812,2.7053232192993164,40.44477844238281
1700958041192278800,11.90627880859375,-4.338375091552734,-5.793152809143066,35.872230529785156
1700958041209271300,11.923271240234374,1.3568511009216309,-14.306909561157227,24.458602905273438
1700958041226262300,11.94026220703125,7.078436374664307,-19.701061248779297,15.201774597167969
1700958041243250700,11.957250732421874,8.233856201171875,-23.24002456665039,12.598706245422363
1700958041260245800,11.974245849609375,6.424443244934082,-26.313783645629883,11.823410034179688
1700958041277237800,11.99123779296875,5.3253889083862305,-29.848297119140625,11.10794448852539
1700958041294218200,12.00821826171875,5.167668342590332,-33.16761016845703,10.43320083618164
1700958041311221200,12.02522119140625,5.841354846954346,-33.56610107421875,6.612729072570801
1700958041328212500,12.04221240234375,7.878109931945801,-31.826393127441406,1.7502490282058716
1700958041345201700,12.05920166015625,8.133150100708008,-29.988204956054688,1.762500524520874
1700958041362186500,12.0761865234375,4.816669940948486,-27.422788619995117,5.169286251068115
1700958041379190000,12.09318994140625,0.6856725215911865,-24.896862030029297,8.181510925292969
1700958041396169500,12.11016943359375,-1.6574320793151855,-22.744518280029297,12.217873573303223
1700958041413171000,12.1271708984375,-1.2985243797302246,-20.191059112548828,13.368175506591797
1700958041430162200,12.144162109375,-0.7801942825317383,-18.388568878173828,14.532954216003418
1700958041447143700,12.161143798828125,-0.8283994197845459,-18.048288345336914,20.213451385498047
1700958041464138500,12.178138427734375,-4.015130996704102,-13.744009017944336,23.278837203979492
1700958041481129700,12.195129638671874,-11.699189186096191,-4.4415717124938965,25.012508392333984
1700958041498118700,12.21211865234375,-10.406937599182129,3.3316760063171387,40.15198516845703
1700958041515111400,12.229111328125,-0.8131742477416992,7.39877986907959,55.076438903808594
1700958041532105700,12.246105712890625,10.547603607177734,13.938497543334961,48.78458786010742
1700958041549094400,12.263094482421875,17.2067813873291,19.25979232788086,32.72058868408203
1700958041566091000,12.280091064453124,12.2928466796875,18.686391830444336,21.57339859008789
1700958041583077400,12.297077392578124,4.573740005493164,16.962615966796875,12.528325080871582
1700958041600071000,12.31407080078125,-1.0716898441314697,15.371870040893555,4.668715476989746
1700958041617071000,12.331071044921876,0.4726426601409912,14.009880065917969,-0.2789602279663086
1700958041634062000,12.34806201171875,3.9101691246032715,15.628081321716309,-6.730513572692871
1700958041651052000,12.365052001953124,5.830138206481934,19.664430618286133,-12.09967041015625
1700958041668045600,12.382045654296874,4.556061744689941,22.97125244140625,-12.711341857910156
1700958041685041200,12.399041259765625,-0.9068911075592041,23.122758865356445,-11.178194046020508
1700958041702018000,12.41601806640625,-5.031185150146484,21.095199584960938,-10.689452171325684
1700958041719018500,12.4330185546875,-3.133936882019043,18.41680335998535,-13.013237953186035
1700958041736003800,12.45000390625,1.5385276079177856,16.66411590576172,-13.114532470703125
1700958041752997600,12.46699755859375,4.18775749206543,16.260719299316406,-8.243717193603516
1700958041769995500,12.48399560546875,4.190142631530762,14.879570007324219,2.2335071563720703
1700958041786987800,12.50098779296875,3.1454224586486816,14.742454528808594,12.012046813964844
1700958041803978800,12.517978759765626,2.3104655742645264,13.129508972167969,18.536178588867188
1700958041820971000,12.534970947265625,4.1667890548706055,12.704732894897461,17.894207000732422
1700958041837962200,12.551962158203125,10.302030563354492,14.352155685424805,21.33553695678711
1700958041854954500,12.56895458984375,14.5647611618042,13.07939624786377,34.25597381591797
1700958041871945500,12.585945556640626,8.514608383178711,11.668590545654297,40.689414978027344
1700958041888936700,12.602936767578125,-3.5949697494506836,9.647683143615723,39.257049560546875
1700958041905928200,12.61992822265625,-12.51309585571289,4.629009246826172,35.40043640136719
1700958041922921200,12.636921142578124,-6.976711273193359,-4.353445529937744,30.020597457885742
1700958041939912000,12.653911865234376,6.196093559265137,-12.625524520874023,21.43349838256836
1700958041956904200,12.670904296875,14.150390625,-18.94337272644043,13.449642181396484
1700958041973895200,12.687895263671875,14.188150405883789,-23.18024444580078,7.087662696838379
1700958041990887700,12.7048876953125,8.138663291931152,-25.92462921142578,3.9050426483154297
1700958042007879000,12.72187890625,3.390993595123291,-25.800491333007812,3.1629889011383057
1700958042024871200,12.73887109375,3.549016237258911,-25.727672576904297,5.2509002685546875
1700958042041862000,12.75586181640625,6.809006214141846,-27.12010955810547,9.53339672088623
1700958042058854100,12.772854248046874,12.0706787109375,-27.563344955444336,9.455413818359375
1700958042075845600,12.789845703125,15.629846572875977,-26.14722442626953,5.077671051025391
1700958042092824600,12.806824462890624,13.253116607666016,-24.18838882446289,2.8752830028533936
1700958042109823500,12.823823486328125,7.857728481292725,-22.6068058013916,4.897635459899902
1700958042126823200,12.8408232421875,3.0250236988067627,-21.518985748291016,9.65582275390625
1700958042143802600,12.857802734375,-0.3640265464782715,-19.95772933959961,11.776603698730469
1700958042160806000,12.874805908203125,0.3022761344909668,-19.77907943725586,11.41469955444336
1700958042177783600,12.891783447265626,2.4819345474243164,-19.83713150024414,11.29294490814209
1700958042194782000,12.908781982421875,-0.733001708984375,-18.39264488220215,13.392160415649414
1700958042211780400,12.9257802734375,-8.900110244750977,-12.70445728302002,17.187360763549805
1700958042228769500,12.94276953125,-8.346314430236816,-7.515432357788086,29.35449981689453
1700958042245762000,12.959761962890624,5.94754695892334,-1.6863281726837158,46.87165069580078
1700958042262751500,12.97675146484375,13.061700820922852,4.909130096435547,56.525352478027344
1700958042279748000,12.993748046875,12.336973190307617,14.32927417755127,49.867698669433594
1700958042296735000,13.01073486328125,7.126439571380615,19.332592010498047,30.032291412353516
1700958042313731300,13.0277314453125,0.5896763801574707,18.088468551635742,15.31374454498291
1700958042330718700,13.04471875,-1.860971212387085,16.83970832824707,3.4880638122558594
1700958042347715800,13.0617158203125,-0.4487876892089844,17.644763946533203,-5.835573673248291
1700958042364700700,13.07870068359375,2.629817485809326,18.71100425720215,-8.474255561828613
1700958042381695500,13.095695556640624,4.573880672454834,19.960617065429688,-7.336042404174805
1700958042398685000,13.112684814453125,3.562760353088379,21.07973861694336,-6.09991455078125
1700958042415681300,13.129681396484376,0.1458754539489746,20.46101188659668,-7.297635078430176
1700958042432670700,13.146670654296875,-1.8952195644378662,18.188276290893555,-9.116543769836426
1700958042449662200,13.163662109375,-0.34524083137512207,15.332663536071777,-9.2442045211792
1700958042466654200,13.180654296875,1.7929701805114746,13.56557559967041,-7.129673480987549
1700958042483645200,13.197645263671875,1.6331355571746826,12.99232006072998,-2.799132823944092
1700958042500637700,13.2146376953125,0.5190219879150391,13.048868179321289,4.240221977233887
1700958042517628400,13.23162841796875,0.4207390546798706,12.076194763183594,11.606974601745605
1700958042534618400,13.248618408203125,3.186293840408325,10.047239303588867,18.044485092163086
1700958042551614500,13.265614501953126,6.250566005706787,10.104796409606934,20.96780776977539
1700958042568604200,13.282604248046875,9.480521202087402,11.444007873535156,22.74317169189453
1700958042585595100,13.29959521484375,10.700027465820312,8.513622283935547,28.109498977661133
1700958042602591200,13.31659130859375,8.96236515045166,7.6502885818481445,30.174592971801758
1700958042619578600,13.33357861328125,2.088796615600586,1.9025697708129883,33.656314849853516
1700958042636571000,13.35057080078125,-2.457031488418579,-6.360605239868164,31.683856964111328
1700958042653559000,13.36755908203125,-0.7358419895172119,-14.193275451660156,22.64287567138672
1700958042670557000,13.384556884765624,5.0519819259643555,-20.70839500427246,11.283722877502441
1700958042687545000,13.401545166015625,10.24862289428711,-24.39654541015625,1.2978287935256958
1700958042704537300,13.418537353515624,10.455737113952637,-26.42596435546875,-3.6533899307250977
1700958042721528800,13.43552880859375,6.552844524383545,-27.452720642089844,-3.4034950733184814
1700958042738520800,13.452520751953125,4.39900016784668,-27.79831314086914,-0.8096672296524048
1700958042755512000,13.469511962890625,4.514192581176758,-28.413379669189453,4.340511322021484
1700958042772504000,13.486504150390624,7.044879913330078,-27.85660171508789,5.961623191833496
1700958042789495300,13.503495361328126,9.303627014160156,-25.765869140625,3.322213888168335
1700958042806487600,13.520487548828125,8.06047248840332,-23.397905349731445,0.753901481628418
1700958042823478500,13.537478515625,5.583255290985107,-21.368900299072266,0.14286208152770996
1700958042840470800,13.554470703125,3.8074162006378174,-20.319133758544922,2.8181545734405518
1700958042857462000,13.5714619140625,0.7250332832336426,-19.416872024536133,8.417011260986328
1700958042874454300,13.588454345703125,-1.8566131591796875,-17.863510131835938,12.528775215148926
1700958042891445200,13.6054453125,-0.13390731811523438,-16.001182556152344,14.040809631347656
1700958042908437800,13.622437744140624,-0.024248123168945312,-13.970651626586914,14.258539199829102
1700958042925428700,13.6394287109375,-4.986077785491943,-5.7571234703063965,14.351181030273438
1700958042942420700,13.656420654296875,-7.7666521072387695,-1.118335247039795,24.609760284423828
1700958042959406300,13.67340625,5.151117324829102,1.098790168762207,45.216209411621094
1700958042976393700,13.690393798828126,21.668893814086914,4.995553016662598,60.93330383300781
1700958042993391400,13.707391357421875,24.407123565673828,12.757071495056152,40.44114303588867
1700958043010379000,13.72437890625,14.216031074523926,17.963035583496094,9.741832733154297
1700958043027379000,13.74137890625,3.321272373199463,16.525653839111328,0.1716146469116211
1700958043044371000,13.758370849609374,-2.2559337615966797,15.257139205932617,0.8994779586791992
1700958043061357300,13.775357421875,-1.2503985166549683,14.80223274230957,-1.3020095825195312
1700958043078354200,13.792354248046875,3.775010108947754,15.3952054977417,-4.727844715118408
1700958043095345700,13.809345703125,6.04622745513916,16.23833656311035,-9.011908531188965
1700958043112333800,13.826333740234375,3.015378952026367,16.966432571411133,-10.943982124328613
1700958043129328600,13.84332861328125,-2.0629234313964844,16.36977767944336,-10.660682678222656
1700958043146321200,13.860321044921875,-4.241257190704346,14.74042797088623,-8.728487014770508
1700958043163311900,13.877311767578124,-2.516714572906494,13.273484230041504,-7.298463344573975
1700958043180295200,13.894295166015626,2.7374281883239746,13.287565231323242,-6.3866376876831055
1700958043197293800,13.9112939453125,6.557792663574219,13.749246597290039,-2.156111240386963
1700958043214289000,13.928288818359375,6.955779075622559,13.942828178405762,8.101236343383789
1700958043231281700,13.94528173828125,3.5969066619873047,11.898116111755371,16.267017364501953
1700958043248268000,13.96226806640625,0.021573305130004883,8.710033416748047,18.033174514770508
1700958043265261800,13.97926171875,-0.4687633514404297,7.509134769439697,16.29134750366211
1700958043282254600,13.996254638671875,3.162240982055664,9.126419067382812,18.115617752075195
1700958043299245600,14.01324560546875,5.672417640686035,6.7420454025268555,27.163009643554688
1700958043316225500,14.0302255859375,5.279486656188965,2.574422836303711,30.623701095581055
1700958043333219800,14.0472197265625,1.567629337310791,-2.5588579177856445,28.348596572875977
1700958043350218200,14.06421826171875,0.6581196784973145,-8.705400466918945,22.69390106201172
1700958043367202800,14.081202880859376,5.972286224365234,-15.13040542602539,13.764555931091309
1700958043384196400,14.0981962890625,11.78487777709961,-20.063661575317383,4.5880818367004395
1700958043401185000,14.11518505859375,12.74730396270752,-23.414453506469727,-0.8396610617637634
1700958043418176500,14.132176513671874,8.32898235321045,-25.26216697692871,-3.2758255004882812
1700958043435174400,14.14917431640625,4.584797382354736,-25.524478912353516,-4.139310836791992
1700958043452160800,14.166160888671875,2.6647818088531494,-25.35369873046875,-1.9706740379333496
1700958043469159000,14.183158935546874,3.673342227935791,-24.85588264465332,0.859595775604248
1700958043486148400,14.2001484375,6.845154285430908,-24.0805606842041,1.0097966194152832
1700958043503146200,14.217146240234374,9.798272132873535,-23.219356536865234,0.9165148735046387
1700958043520137700,14.2341376953125,9.904216766357422,-22.017784118652344,0.9981958866119385
1700958043537128700,14.251128662109375,7.228187561035156,-20.251243591308594,1.4447832107543945
1700958043554121000,14.268120849609375,3.2924633026123047,-18.817169189453125,4.2769598960876465
1700958043571112000,14.28511181640625,-0.4601573944091797,-17.26721954345703,8.445018768310547
1700958043588104400,14.3021044921875,-2.28082275390625,-15.848018646240234,12.581932067871094
1700958043605095700,14.319095703125,-2.3474717140197754,-15.278980255126953,16.281978607177734
1700958043622087400,14.33608740234375,-4.604321002960205,-12.133527755737305,15.364387512207031
1700958043639079000,14.353078857421876,-7.34619665145874,-6.3625383377075195,18.20831298828125
1700958043656062000,14.37006201171875,-3.7081480026245117,-2.805605888366699,32.48558807373047
1700958043673051600,14.3870517578125,5.703778266906738,0.22567510604858398,50.848026275634766
1700958043690054400,14.404054443359374,14.078182220458984,7.934086322784424,51.45237731933594
1700958043707045600,14.421045654296876,13.5421142578125,15.304181098937988,30.551420211791992
1700958043724037600,14.43803759765625,4.973869323730469,15.705744743347168,14.25599193572998
1700958043741028600,14.455028564453125,0.04590320587158203,15.321577072143555,3.8448314666748047
1700958043758021000,14.472021240234374,1.3864281177520752,16.295631408691406,-2.143453598022461
1700958043775012600,14.4890126953125,5.151950359344482,18.159324645996094,-3.725869655609131
1700958043792002000,14.506001953125,7.468053340911865,20.566377639770508,-4.24859619140625
1700958043808998000,14.522997802734375,4.843647480010986,22.370073318481445,-7.3727521896362305
1700958043825987800,14.53998779296875,-0.8341660499572754,22.632591247558594,-10.997103691101074
1700958043842978800,14.556978759765625,-3.606473684310913,20.394426345825195,-12.538142204284668
1700958043859960000,14.5739599609375,-1.5452702045440674,17.42786979675293,-11.437227249145508
1700958043876964600,14.590964599609375,3.151672601699829,15.066953659057617,-6.680668354034424
1700958043893943000,14.607943115234375,5.393276691436768,14.562923431396484,1.2916507720947266
1700958043910945500,14.624945556640625,5.07335090637207,13.747613906860352,11.60090160369873
1700958043927937800,14.641937744140625,4.258305549621582,11.255054473876953,18.475095748901367
1700958043944929000,14.658928955078125,3.888624668121338,8.682805061340332,20.636760711669922
1700958043961921000,14.675921142578124,6.643701076507568,7.784854412078857,22.120344161987305
1700958043978912300,14.692912353515625,9.014324188232422,6.666868209838867,28.005090713500977
1700958043995904800,14.70990478515625,8.348726272583008,4.0158891677856445,30.853322982788086
1700958044012895700,14.726895751953125,5.449698448181152,0.6542530059814453,30.4718074798584
1700958044029888000,14.743887939453124,0.48376011848449707,-4.172571182250977,28.077295303344727
1700958044046874600,14.76087451171875,-1.8762664794921875,-9.84898853302002,22.402589797973633
1700958044063864800,14.77786474609375,0.9001901149749756,-15.805912017822266,14.381830215454102
1700958044080862500,14.794862548828124,8.000462532043457,-21.94976043701172,6.438364505767822
1700958044097859300,14.811859375,14.156872749328613,-24.861968994140625,-1.6128746271133423
1700958044114845700,14.828845703125,12.729795455932617,-26.232995986938477,-4.734176158905029
1700958044131839700,14.84583984375,7.900790691375732,-26.555316925048828,-2.6569766998291016
1700958044148827000,14.862826904296876,4.572122573852539,-26.42253875732422,3.4630444049835205
1700958044165821200,14.8798212890625,3.9111406803131104,-25.69226837158203,7.0741190910339355
1700958044182802200,14.89680224609375,6.091218948364258,-24.21993637084961,4.748480796813965
1700958044199804400,14.913804443359375,8.421204566955566,-22.789321899414062,0.5724718570709229
1700958044216795600,14.930795654296874,8.346478462219238,-21.503732681274414,-1.947211503982544
1700958044233788200,14.9477880859375,6.138999938964844,-21.123401641845703,2.413437843322754
1700958044250779100,14.964779052734375,2.252545118331909,-19.97319793701172,9.161764144897461
1700958044267768600,14.9817685546875,-0.012857913970947266,-17.855884552001953,12.39703369140625
1700958044284756700,14.9987568359375,-0.18799495697021484,-15.241315841674805,15.289390563964844
1700958044301747000,15.015746826171876,-1.136566162109375,-12.666776657104492,17.49083137512207
1700958044318743300,15.032743408203125,-2.3106179237365723,-9.105620384216309,15.675430297851562
1700958044335740400,15.049740478515625,-7.32819128036499,0.12574291229248047,17.2822265625
1700958044352718600,15.066718505859376,-11.111044883728027,7.585742473602295,37.54262924194336
1700958044369721300,15.083721435546876,-4.300200939178467,12.990403175354004,56.102691650390625
1700958044386712300,15.10071240234375,9.356477737426758,18.282684326171875,48.04051208496094
1700958044403704800,15.117704833984375,12.811620712280273,19.95755386352539,24.275379180908203
1700958044420695800,15.13469580078125,6.834347724914551,17.724727630615234,7.198026657104492
1700958044437672700,15.151672607421874,1.0844554901123047,15.144390106201172,-2.261256694793701
1700958044454679300,15.16867919921875,-1.5664381980895996,14.603934288024902,-7.509070873260498
1700958044471671600,15.185671630859375,-0.20501995086669922,14.085427284240723,-7.979067802429199
1700958044488662500,15.20266259765625,3.456956386566162,13.981618881225586,-7.877296447753906
1700958044505654500,15.219654541015625,5.549948692321777,14.50696086883545,-8.799034118652344
1700958044522655000,15.236655029296875,4.422969818115234,13.95913314819336,-10.544392585754395
1700958044539625000,15.253625,1.911365270614624,12.727205276489258,-13.74211311340332
1700958044556629800,15.270629638671876,0.6145360469818115,11.525672912597656,-16.388830184936523
1700958044573623300,15.287623291015626,0.29418516159057617,11.376749992370605,-14.86634635925293
1700958044590612500,15.304612548828125,1.1346158981323242,11.101009368896484,-7.929087162017822
1700958044607604700,15.321604736328124,3.2167084217071533,10.732643127441406,-0.5351052284240723
1700958044624595700,15.338595703125,4.44572639465332,10.87472915649414,4.568593502044678
1700958044641588200,15.355588134765625,3.4527132511138916,10.23386287689209,7.472123146057129
1700958044658579200,15.3725791015625,2.952949047088623,12.201757431030273,9.381996154785156
1700958044675571500,15.389571533203124,4.376838207244873,17.404258728027344,14.586175918579102
1700958044692552000,15.406552001953125,6.773724555969238,17.423341751098633,27.076074600219727
1700958044709554700,15.4235546875,6.556395530700684,17.12308120727539,34.28586196899414
1700958044726546000,15.4405458984375,-1.601424217224121,10.856988906860352,39.64445877075195
1700958044743520800,15.457520751953124,-3.954613208770752,-1.37327241897583,36.440921783447266
1700958044760526800,15.47452685546875,3.7854487895965576,-11.076656341552734,23.31934928894043
1700958044777524000,15.49152392578125,11.016376495361328,-17.48360824584961,11.116232872009277
1700958044794512600,15.5085126953125,11.732086181640625,-22.320858001708984,5.491796493530273
1700958044811505000,15.5255048828125,6.138935089111328,-25.199329376220703,3.634794235229492
1700958044828496100,15.54249609375,1.2723164558410645,-26.1556396484375,1.7312185764312744
1700958044845480700,15.559480712890625,-0.1398324966430664,-26.52236557006836,0.6958770751953125
1700958044862466600,15.576466552734376,2.5261645317077637,-27.0321044921875,1.4909796714782715
1700958044879464000,15.5934638671875,6.156098365783691,-26.975902557373047,1.5058165788650513
1700958044896462600,15.610462646484375,6.910473823547363,-25.68335723876953,2.084290027618408
1700958044913452000,15.6274521484375,5.596722602844238,-23.310016632080078,2.0968987941741943
1700958044930449400,15.644449462890625,4.933046817779541,-21.076515197753906,2.1038818359375
1700958044947425500,15.661425537109375,4.367889404296875,-19.662248611450195,3.622515916824341
1700958044964422700,15.678422607421876,2.5225718021392822,-18.281606674194336,8.685784339904785
1700958044981413600,15.69541357421875,-1.487990379333496,-16.590808868408203,14.402013778686523
1700958044998402800,15.71240283203125,-3.286214828491211,-13.628646850585938,14.13107681274414
1700958045015395000,15.72939501953125,-5.756745338439941,-4.776569843292236,10.410722732543945
1700958045032387800,15.746387939453125,-10.675639152526855,1.8535938262939453,20.209627151489258
1700958045049380600,15.763380615234375,-8.321235656738281,5.830513954162598,42.84902572631836
1700958045066371800,15.780371826171875,1.0234105587005615,10.569282531738281,52.83827590942383
1700958045083363000,15.797363037109376,9.449932098388672,17.45180320739746,39.326324462890625
1700958045100355600,15.81435546875,9.415864944458008,18.9229793548584,20.399545669555664
1700958045117355000,15.83135498046875,3.2802681922912598,16.07154083251953,7.147639274597168
1700958045134346000,15.848345947265624,0.2856292724609375,14.309343338012695,-3.898167133331299
1700958045151329000,15.8653291015625,1.2659120559692383,14.65661334991455,-10.850390434265137
1700958045168329700,15.882329833984375,4.992462158203125,15.256077766418457,-12.060054779052734
1700958045185321700,15.89932177734375,8.121739387512207,16.16960334777832,-10.32454776763916
1700958045202302500,15.916302490234376,5.640822410583496,16.968154907226562,-10.119531631469727
1700958045219305000,15.933304931640626,-0.011516809463500977,16.855175018310547,-12.993194580078125
1700958045236294100,15.950294189453125,-2.390228509902954,15.38288688659668,-14.946256637573242
1700958045253288200,15.9672880859375,0.37024855613708496,13.389820098876953,-12.781051635742188
1700958045270279700,15.98427978515625,6.351295471191406,11.970553398132324,-7.061005592346191
1700958045287263500,16.001263427734376,10.036317825317383,11.075464248657227,0.16669940948486328
1700958045304263000,16.018262939453123,7.4223527908325195,10.472390174865723,4.215468406677246
1700958045321262300,16.035262451171874,1.334706425666809,12.202341079711914,6.995096206665039
1700958045338247200,16.0522470703125,-3.5284242630004883,13.193300247192383,13.23807144165039
1700958045355237400,16.0692373046875,-0.5921900272369385,15.955556869506836,19.462387084960938
1700958045372230000,16.08622998046875,5.243709087371826,17.04161834716797,28.236473083496094
1700958045389221600,16.1032216796875,11.134258270263672,14.6982421875,33.0061149597168
1700958045406221000,16.120220947265626,9.486234664916992,11.839166641235352,33.904476165771484
1700958045423202600,16.13720263671875,2.0308539867401123,3.13568115234375,35.477569580078125
1700958045440199000,16.154198974609375,0.4959440231323242,-5.271035194396973,27.761686325073242
1700958045457188600,16.171188720703125,4.045877456665039,-12.514517784118652,17.908689498901367
1700958045474179800,16.188179931640626,7.010455131530762,-19.07032012939453,10.468265533447266
1700958045491172000,16.205172119140624,9.235719680786133,-23.496017456054688,4.646978378295898
1700958045508163000,16.2221630859375,8.623895645141602,-26.175132751464844,1.6536394357681274
1700958045525155300,16.2391552734375,6.1187262535095215,-27.17977523803711,0.6426222920417786
1700958045542146600,16.256146484375,4.31751823425293,-27.674732208251953,3.0642242431640625
1700958045559138600,16.273138671875,3.5242371559143066,-28.483734130859375,6.902802467346191
1700958045576129800,16.2901298828125,3.9455714225769043,-27.979141235351562,6.1229376792907715
1700958045593122800,16.307122802734376,4.307488441467285,-25.646923065185547,2.508784770965576
1700958045610112300,16.3241123046875,3.9359707832336426,-22.967544555664062,-0.07466965913772583
1700958045627105500,16.34110546875,4.385820388793945,-22.306766510009766,2.7245826721191406
1700958045644097800,16.358097900390625,4.186609745025635,-21.895401000976562,9.46729850769043
1700958045661087500,16.37508740234375,2.2834174633026123,-20.015289306640625,15.525994300842285
1700958045678079700,16.392079833984376,0.2763381004333496,-16.905786514282227,17.10568618774414
1700958045695072000,16.409072021484373,-2.320523262023926,-12.073101043701172,14.518792152404785
1700958045712052500,16.426052490234376,-5.97515869140625,-3.730369806289673,11.526107788085938
1700958045729043500,16.44304345703125,-8.476280212402344,1.138965129852295,22.2560977935791
1700958045746046700,16.460046630859374,-5.103222846984863,6.708667278289795,43.179866790771484
1700958045763039000,16.4770390625,6.250957489013672,14.364296913146973,51.99944305419922
1700958045780043300,16.494043212890624,14.836223602294922,21.84684181213379,44.16209411621094
1700958045797019600,16.51101953125,13.07135009765625,23.692853927612305,27.132122039794922
1700958045814016000,16.52801611328125,4.294635772705078,21.034591674804688,12.027947425842285
1700958045830990000,16.544989990234374,-0.7316575050354004,17.020111083984375,0.5429487228393555
1700958045847994000,16.561994140625,-2.5662364959716797,15.200118064880371,-7.8199005126953125
1700958045864991500,16.578991455078125,1.0554900169372559,13.048958778381348,-9.861068725585938
1700958045881980000,16.59597998046875,6.752293586730957,11.541827201843262,-10.506781578063965
1700958045898972200,16.61297216796875,9.844764709472656,12.341023445129395,-11.55859375
1700958045915963600,16.629963623046876,7.12227725982666,12.538177490234375,-11.082518577575684
1700958045932955400,16.646955322265626,2.7004055976867676,11.75307846069336,-12.218090057373047
1700958045949947000,16.66394677734375,-0.3669254779815674,10.902403831481934,-15.253883361816406
1700958045966939100,16.680939208984373,0.3287065029144287,10.28653621673584,-14.98543930053711
1700958045983929900,16.697929931640626,3.306971311569214,11.087879180908203,-10.348922729492188
1700958046000918300,16.714918212890623,4.450359344482422,12.775205612182617,-0.6474533081054688
1700958046017913300,16.731913330078125,4.313492774963379,13.886270523071289,11.064892768859863
1700958046034905300,16.7489052734375,3.9222822189331055,14.143575668334961,17.866994857788086
1700958046051897000,16.76589697265625,7.832024574279785,16.573307037353516,17.935745239257812
1700958046068888800,16.782888916015626,12.139156341552734,15.525237083435059,22.46950912475586
1700958046085880000,16.799880126953123,10.453958511352539,15.2562894821167,26.259069442749023
1700958046102872300,16.816872314453125,3.515943765640259,12.602315902709961,32.71144485473633
1700958046119863600,16.833863525390626,-0.6580753326416016,2.5539302825927734,39.03162384033203
1700958046136855800,16.850855712890624,3.993894338607788,-7.932570457458496,30.97036361694336
1700958046153846800,16.8678466796875,10.441412925720215,-14.742502212524414,17.818588256835938
1700958046170839300,16.88483935546875,11.352373123168945,-19.241722106933594,9.729971885681152
1700958046187830300,16.901830322265624,7.6513495445251465,-22.72964859008789,6.426485538482666
1700958046204822300,16.918822265625,3.6030662059783936,-25.203765869140625,4.838521480560303
1700958046221803300,16.93580322265625,1.2101900577545166,-26.99341583251953,3.4195663928985596
1700958046238808600,16.95280859375,1.410698652267456,-28.068313598632812,2.154789686203003
1700958046255794200,16.969794189453125,4.264382362365723,-28.21493148803711,0.6241200566291809
1700958046272789200,16.986789306640624,6.115142345428467,-27.361473083496094,-0.34924444556236267
1700958046289780500,17.003780517578125,5.189056873321533,-25.165517807006836,0.8375418782234192
1700958046306772500,17.0207724609375,2.9722506999969482,-22.162982940673828,2.5225846767425537
1700958046323760600,17.0377607421875,1.9318513870239258,-19.764177322387695,4.350151538848877
1700958046340759300,17.05475927734375,0.9451766014099121,-17.681978225708008,10.312800407409668
1700958046357736700,17.07173681640625,-0.8152294158935547,-13.090688705444336,18.16259002685547
1700958046374739200,17.0887392578125,-0.7635750770568848,-7.811320781707764,17.34463119506836
1700958046391730700,17.105730712890626,-3.988536834716797,-2.309926986694336,11.687517166137695
1700958046408723000,17.122722900390624,-8.435735702514648,3.7038745880126953,10.272672653198242
1700958046425714000,17.1397138671875,-4.62620735168457,7.407153606414795,20.991443634033203
1700958046442706000,17.156705810546875,4.46089506149292,9.744556427001953,40.115570068359375
1700958046459694600,17.173694580078124,11.840676307678223,13.208346366882324,48.67505645751953
1700958046476692000,17.19069189453125,18.381210327148438,17.311960220336914,30.09071922302246
1700958046493670000,17.207669921875,13.226552963256836,17.169620513916016,8.922361373901367
1700958046510673000,17.2246728515625,2.880486011505127,15.914199829101562,-2.2540431022644043
1700958046527663900,17.241663818359374,-4.579596042633057,14.635035514831543,-5.565947532653809
1700958046544656100,17.25865625,-7.561455726623535,13.62519359588623,-4.656814098358154
1700958046561647400,17.2756474609375,-4.881008148193359,12.196125030517578,-3.9154343605041504
1700958046578639600,17.2926396484375,2.113060474395752,11.50198745727539,-7.812516212463379
1700958046595630600,17.309630615234376,6.278829097747803,11.6536226272583,-12.841276168823242
1700958046612623000,17.326623046875,3.9253368377685547,11.721437454223633,-16.342084884643555
1700958046629614000,17.343614013671875,-1.076484203338623,11.671250343322754,-16.930023193359375
1700958046646606300,17.3606064453125,-5.179007530212402,11.918293952941895,-13.925497055053711
1700958046663593200,17.37759326171875,-4.492361068725586,11.737895965576172,-7.28054141998291
1700958046680589800,17.39458984375,-0.6596584320068359,11.016999244689941,-0.20439863204956055
1700958046697571000,17.411571044921875,3.801483631134033,11.70424747467041,5.072512626647949
1700958046714573000,17.428572998046874,6.279431343078613,11.060415267944336,9.693315505981445
1700958046731564300,17.445564208984376,6.432488441467285,10.57175350189209,10.664178848266602
1700958046748556300,17.462556396484374,7.878655433654785,14.453933715820312,11.542454719543457
1700958046765547500,17.479547607421875,8.799201011657715,17.061962127685547,20.31458282470703
1700958046782540000,17.4965400390625,8.626703262329102,16.539531707763672,27.975994110107422
1700958046799530800,17.51353076171875,5.377025604248047,15.197854995727539,28.75990867614746
1700958046816511500,17.530511474609376,1.4405021667480469,8.550116539001465,28.572452545166016
1700958046833505500,17.547505615234375,1.9841903448104858,-1.0416150093078613,25.594667434692383
1700958046850501600,17.564501708984373,6.297097206115723,-10.487364768981934,19.37344741821289
1700958046867487500,17.581487548828125,11.403346061706543,-18.267751693725586,12.400672912597656
1700958046884483600,17.598483642578124,11.723538398742676,-22.900127410888672,5.450711250305176
1700958046901473300,17.615473388671877,7.119651794433594,-24.550962448120117,1.1554596424102783
1700958046918462500,17.63246240234375,3.328655242919922,-24.301280975341797,-0.36406052112579346
1700958046935461400,17.64946142578125,1.7727372646331787,-23.876089096069336,1.6607306003570557
1700958046952452900,17.666452880859374,2.987483263015747,-23.980579376220703,5.378241062164307
1700958046969444000,17.683444091796876,4.990030288696289,-23.52326202392578,7.083549976348877
1700958046986431200,17.70043115234375,6.038562297821045,-22.016742706298828,5.267101287841797
1700958047003431200,17.71743115234375,5.1288604736328125,-20.03157615661621,2.939263343811035
1700958047020423200,17.734423095703125,2.0477869510650635,-17.935291290283203,2.182854175567627
1700958047037414400,17.751414306640626,0.15804719924926758,-16.433076858520508,5.10589075088501
1700958047054406700,17.76840673828125,0.757929801940918,-13.892536163330078,11.271757125854492
1700958047071397600,17.785397705078125,2.0742383003234863,-9.98011589050293,19.33620834350586
1700958047088379400,17.80237939453125,-0.37173986434936523,-4.466161727905273,17.912616729736328
1700958047105378600,17.819378662109376,-7.524331569671631,5.017021656036377,9.30572509765625
1700958047122375700,17.836375732421875,-14.900741577148438,10.279265403747559,13.054996490478516
1700958047139364600,17.853364501953124,-11.07745361328125,10.430158615112305,29.10707664489746
1700958047156346400,17.870346435546875,1.2039422988891602,11.736381530761719,39.446022033691406
1700958047173345000,17.887344970703126,12.41727066040039,14.729728698730469,35.641212463378906
1700958047190343000,17.904343017578125,18.43877410888672,16.298480987548828,19.950759887695312
1700958047207331300,17.921331298828125,11.194429397583008,12.841330528259277,7.520926475524902
1700958047224323600,17.938323486328127,1.937868595123291,9.425837516784668,-1.9028220176696777
1700958047241309400,17.955309326171875,-3.71164608001709,8.811687469482422,-9.881927490234375
1700958047258307800,17.972307861328126,-6.4816575050354,10.139398574829102,-13.157529830932617
1700958047275298000,17.989298095703123,-5.907011032104492,10.104153633117676,-11.392629623413086
1700958047292290000,18.0062900390625,1.8616058826446533,8.191832542419434,-7.388983249664307
1700958047309270500,18.0232705078125,12.091997146606445,8.014455795288086,-7.787312984466553
1700958047326271000,18.04027099609375,16.914213180541992,8.864957809448242,-12.354923248291016
1700958047343267300,18.057267333984374,10.367459297180176,9.293159484863281,-15.874948501586914
1700958047360257000,18.074257080078127,-1.360522747039795,9.625070571899414,-16.243989944458008
1700958047377248300,18.091248291015624,-7.192468643188477,10.622797966003418,-11.884208679199219
1700958047394240500,18.108240478515626,-4.367772102355957,10.89633560180664,-4.086451053619385
1700958047411231500,18.1252314453125,1.9960801601409912,10.275735855102539,3.8260116577148438
1700958047428223700,18.1422236328125,10.234732627868652,11.642375946044922,7.83240270614624
1700958047445212400,18.15921240234375,18.195465087890625,15.744787216186523,12.458977699279785
1700958047462207200,18.176207275390624,18.37407875061035,17.569541931152344,22.312152862548828
1700958047479200500,18.193200439453125,12.83142375946045,16.586544036865234,29.466758728027344
1700958047496186600,18.2101865234375,4.230367183685303,14.900470733642578,31.071964263916016
1700958047513171000,18.2271708984375,-1.7495524883270264,9.864340782165527,31.810422897338867
1700958047530173200,18.244173095703125,0.7960493564605713,-0.41236209869384766,29.087854385375977
1700958047547165700,18.261165771484375,7.379526138305664,-9.35468578338623,20.223602294921875
1700958047564152800,18.27815283203125,9.875785827636719,-16.54803466796875,13.056929588317871
1700958047581145900,18.295145751953125,7.314605712890625,-21.657814025878906,7.993291854858398
1700958047598143200,18.312143310546876,3.3271307945251465,-24.688173294067383,4.229351043701172
1700958047615132000,18.3291318359375,0.21668100357055664,-25.888336181640625,2.007206916809082
1700958047632121300,18.346121337890626,-1.0013666152954102,-25.906982421875,1.897698998451233
1700958047649118000,18.363117919921876,2.4977288246154785,-25.488874435424805,2.7669618129730225
1700958047666107100,18.380107177734374,6.140612602233887,-24.845386505126953,3.539574146270752
1700958047683098600,18.3970986328125,6.921684265136719,-23.58639907836914,4.000048637390137
1700958047700090600,18.414090576171876,5.7241129875183105,-21.775026321411133,3.809342622756958
1700958047717081900,18.431081787109374,3.0572376251220703,-20.00615692138672,5.49868106842041
1700958047734073900,18.448073974609375,0.8706569671630859,-18.609840393066406,8.917112350463867
1700958047751065300,18.4650654296875,-0.2119307518005371,-16.685733795166016,13.289917945861816
1700958047768057300,18.482057373046874,-1.8069677352905273,-14.21731948852539,16.298641204833984
1700958047785046000,18.4990458984375,-3.588229179382324,-9.811244010925293,13.99671745300293
1700958047802043400,18.51604345703125,-7.943262100219727,-2.207247734069824,10.414836883544922
1700958047819033000,18.533033203125,-10.292373657226562,2.8871021270751953,19.82400131225586
1700958047836035300,18.550035400390627,-5.109041690826416,7.320584297180176,41.0883903503418
1700958047853015600,18.567015625,6.560922622680664,13.849778175354004,49.99574279785156
1700958047870007600,18.584007568359375,15.398772239685059,20.755483627319336,38.20391845703125
1700958047886998500,18.60099853515625,13.831622123718262,21.938159942626953,20.720094680786133
1700958047903990800,18.61799072265625,4.419162273406982,18.675338745117188,8.963290214538574
1700958047920971500,18.634971435546873,-1.9195384979248047,14.810205459594727,0.045522212982177734
1700958047937974300,18.651974365234373,-3.081742286682129,12.413436889648438,-7.684052467346191
1700958047954965500,18.668965576171875,0.34541749954223633,11.448097229003906,-10.336583137512207
1700958047971946000,18.685946044921874,5.96619987487793,11.809045791625977,-10.511653900146484
1700958047988950300,18.7029501953125,9.135022163391113,12.905180931091309,-9.740509986877441
1700958048005941000,18.71994091796875,7.8952178955078125,12.583335876464844,-9.20163345336914
1700958048022927000,18.736927001953124,3.7228267192840576,12.479872703552246,-11.783943176269531
1700958048039924500,18.753924560546874,0.06199836730957031,12.526044845581055,-14.11732292175293
1700958048056920000,18.770920166015625,0.862309455871582,12.215469360351562,-11.897700309753418
1700958048073907700,18.78790771484375,4.4678635597229,11.378425598144531,-5.0995635986328125
1700958048090899000,18.80489892578125,6.461254119873047,10.49520492553711,2.8133087158203125
1700958048107891200,18.82189111328125,3.778726577758789,10.266643524169922,7.432956218719482
1700958048124882200,18.838882080078125,1.419649600982666,10.012344360351562,9.441361427307129
1700958048141874700,18.855874755859375,0.8071005344390869,11.716212272644043,10.944075584411621
1700958048158865700,18.87286572265625,5.002711296081543,15.265658378601074,14.8697509765625
1700958048175858000,18.88985791015625,9.188241958618164,15.64246654510498,23.153026580810547
1700958048192849000,18.906848876953124,11.172039985656738,14.581404685974121,28.128053665161133
1700958048209844000,18.923843994140626,5.134230613708496,13.533747673034668,27.763580322265625
1700958048226829600,18.94082958984375,-3.997988700866699,7.903996467590332,30.52806854248047
1700958048243822600,18.957822509765624,-4.20005989074707,-2.004751205444336,29.348094940185547
1700958048260807700,18.9748076171875,3.791041851043701,-11.704275131225586,20.691999435424805
1700958048277797600,18.991797607421876,12.094491958618164,-19.281509399414062,11.642850875854492
1700958048294799400,19.00879931640625,12.982156753540039,-23.75243377685547,4.557628154754639
1700958048311789800,19.025789794921874,7.277606010437012,-25.517547607421875,1.0758426189422607
1700958048328784100,19.0427841796875,3.1504523754119873,-25.613922119140625,0.4684411883354187
1700958048345774800,19.05977490234375,2.146190643310547,-26.001808166503906,2.3781657218933105
1700958048362754600,19.076754638671876,3.2118120193481445,-26.447219848632812,4.63468599319458
1700958048379747800,19.093747802734374,5.719733238220215,-25.32149887084961,3.2294609546661377
1700958048396751400,19.11075146484375,7.598501205444336,-23.89145278930664,1.4028985500335693
1700958048413741600,19.127741455078127,7.61633825302124,-22.318191528320312,0.9802231788635254
1700958048430721800,19.1447216796875,5.723348140716553,-21.051746368408203,2.1533219814300537
1700958048447720400,19.161720458984377,3.3513622283935547,-19.972251892089844,4.937047958374023
1700958048464705500,19.17870556640625,0.1361551284790039,-18.236164093017578,9.252013206481934
1700958048481699600,19.195699462890627,-2.420322895050049,-16.121532440185547,13.174810409545898
1700958048498687700,19.212687744140624,-5.560984134674072,-13.77055549621582,14.745157241821289
1700958048515688700,19.229688720703123,-9.2191162109375,-8.505735397338867,18.446517944335938
1700958048532680000,19.246679931640625,-5.957208633422852,-1.1492130756378174,27.866809844970703
1700958048549671200,19.263671142578126,-0.7203917503356934,4.172196388244629,49.51664733886719
1700958048566659600,19.28065966796875,5.6603899002075195,10.921930313110352,59.65662384033203
1700958048583657500,19.297657470703125,12.676721572875977,18.27165985107422,44.06588363647461
1700958048600638500,19.314638427734376,6.618156909942627,18.678442001342773,22.086530685424805
1700958048617634800,19.331634765625,-0.6318545341491699,15.422834396362305,8.875421524047852
1700958048634630100,19.348630126953125,-1.2741670608520508,12.419096946716309,0.8148298263549805
1700958048651611100,19.365611083984376,0.827850341796875,10.596259117126465,-4.519901275634766
1700958048668615400,19.382615478515625,4.057494163513184,10.145119667053223,-6.8698039054870605
1700958048685611300,19.399611328125,7.106130123138428,11.00678539276123,-6.811141014099121
1700958048702599700,19.416599609375,7.363221168518066,11.937141418457031,-5.582355976104736
1700958048719592200,19.43359228515625,6.142305850982666,12.227643966674805,-7.2476630210876465
1700958048736583400,19.45058349609375,4.13347864151001,11.533018112182617,-11.287945747375488
1700958048753572600,19.467572509765624,1.9549317359924316,10.617925643920898,-14.886600494384766
1700958048770569200,19.4845693359375,1.4341840744018555,9.813070297241211,-16.11180877685547
1700958048787559000,19.501558837890624,2.698796272277832,9.688758850097656,-14.009520530700684
1700958048804550000,19.5185498046875,3.6441054344177246,10.52749252319336,-7.732497692108154
1700958048821553200,19.53555322265625,2.4264423847198486,11.79722785949707,-0.6953363418579102
1700958048838530800,19.55253076171875,1.6990773677825928,14.27981948852539,3.4683995246887207
1700958048855528000,19.56952783203125,5.265254974365234,17.37825584411621,5.377971172332764
1700958048872516900,19.586516845703127,9.574256896972656,18.505002975463867,13.843561172485352
1700958048889508900,19.6035087890625,9.373149871826172,18.279943466186523,24.241233825683594
1700958048906500000,19.6205,7.021666526794434,20.247806549072266,29.747093200683594
1700958048923492400,19.637492431640624,2.3806629180908203,17.79235076904297,38.483585357666016
1700958048940483600,19.654483642578125,-2.741055488586426,10.655294418334961,44.51433563232422
1700958048957475800,19.671475830078126,-2.700089454650879,0.7472262382507324,40.96886444091797
1700958048974466800,19.688466796875,2.5219345092773438,-7.788851737976074,29.4418888092041
1700958048991459000,19.705458984375,7.382697105407715,-11.969110488891602,20.409502029418945
1700958049008450300,19.7224501953125,6.940720081329346,-15.09197998046875,17.559059143066406
1700958049025442300,19.7394423828125,4.892466068267822,-17.895584106445312,16.138416290283203
1700958049042425900,19.75642578125,3.117981195449829,-20.14318084716797,13.65783405303955
1700958049059425800,19.77342578125,2.50028133392334,-23.043678283691406,10.039278984069824
1700958049076406800,19.79040673828125,4.00041389465332,-25.29645538330078,4.846225738525391
1700958049093396000,19.80739599609375,6.063554763793945,-26.354284286499023,0.1588868498802185
1700958049110403000,19.824403076171876,8.68188762664795,-26.2095890045166,-2.340569257736206
1700958049127392800,19.841392822265625,9.468586921691895,-25.973941802978516,-1.8707689046859741
1700958049144371200,19.85837109375,8.358291625976562,-25.10612678527832,-0.6677823662757874
1700958049161376300,19.875376220703124,7.158173084259033,-23.86125373840332,0.9795159697532654
1700958049178367200,19.8923671875,6.846553802490234,-22.184921264648438,2.1056904792785645
1700958049195359200,19.909359130859375,7.27105712890625,-20.032665252685547,3.1668574810028076
1700958049212350700,19.926350830078125,5.2713422775268555,-18.635780334472656,6.143340110778809
1700958049229343000,19.943343017578126,-0.1186976432800293,-15.163362503051758,6.438895225524902
1700958049246334000,19.960333984375,-6.7392096519470215,-9.706974029541016,8.506162643432617
1700958049263330800,19.977330810546874,-14.031856536865234,-5.294076919555664,14.50131607055664
1700958049280317700,19.994317626953126,-10.533174514770508,-1.978482723236084,21.47062873840332
1700958049297309200,20.01130908203125,-2.017951488494873,-2.459400177001953,31.18844985961914
1700958049314300700,20.02830078125,3.776989698410034,-0.6848330497741699,37.5056266784668
1700958049331283200,20.045283203125,9.814663887023926,6.356167316436768,29.950267791748047
1700958049348284000,20.062283935546876,11.008207321166992,7.990732192993164,25.681886672973633
1700958049365276400,20.0792763671875,5.8485002517700195,8.064193725585938,22.10403823852539
1700958049382267600,20.096267578125,0.1325078010559082,8.39884090423584,16.982280731201172
1700958049399249400,20.11324951171875,-1.0512795448303223,8.80010986328125,11.214731216430664
1700958049416246800,20.130246826171874,1.496152400970459,9.46458625793457,6.7023024559021
1700958049433243000,20.147242919921876,2.4944465160369873,9.24336051940918,3.885688304901123
1700958049450234400,20.164234375,3.2341222763061523,8.533970832824707,1.6747417449951172
1700958049467226400,20.181226318359375,4.196346759796143,8.143184661865234,-0.8456053733825684
1700958049484217900,20.1982177734375,4.968778610229492,7.948829650878906,-3.577887535095215
1700958049501209900,20.2152099609375,5.142550468444824,8.053235054016113,-6.499634742736816
1700958049518201000,20.232201171875,4.322711944580078,8.389585494995117,-8.28811264038086
1700958049535193000,20.249193115234377,3.697275161743164,9.111435890197754,-8.898221969604492
1700958049552175600,20.266175537109376,3.575066089630127,9.160533905029297,-8.034443855285645
1700958049569179400,20.283179443359376,3.212637424468994,8.382577896118164,-6.88247013092041
1700958049586167800,20.300167724609373,2.82480525970459,7.818492412567139,-7.324328422546387
1700958049603160000,20.31716015625,2.637721538543701,8.855377197265625,-9.337158203125
1700958049620151300,20.3341513671875,4.221985816955566,11.036138534545898,-8.324753761291504
1700958049637143600,20.3511435546875,6.338137149810791,13.175529479980469,-1.5079617500305176
1700958049654134800,20.368134765625,6.774095058441162,17.371028900146484,9.769645690917969
1700958049671126800,20.385126708984377,4.180502891540527,18.045799255371094,25.119384765625
1700958049688118500,20.402118408203126,1.8963232040405273,17.396005630493164,32.166290283203125
1700958049705107700,20.419107666015623,1.341331958770752,15.248018264770508,35.19587326049805
1700958049722103800,20.436103759765626,1.5094666481018066,10.490317344665527,37.2362060546875
1700958049739093800,20.45309375,0.9088625907897949,3.074854850769043,35.612937927246094
1700958049756095500,20.470095458984375,0.6712164878845215,-3.5408191680908203,28.860706329345703
1700958049773066500,20.48706640625,1.6126813888549805,-7.380135536193848,21.23192024230957
1700958049790068200,20.504068115234375,3.0549018383026123,-9.534564018249512,16.92437171936035
1700958049807060500,20.521060546875,3.521906614303589,-11.438566207885742,15.962371826171875
1700958049824051500,20.538051513671874,3.4512572288513184,-13.465740203857422,15.577741622924805
1700958049841045200,20.555045166015624,3.998537540435791,-14.78009033203125,14.414826393127441
1700958049858033400,20.572033447265625,4.221264839172363,-15.142985343933105,12.041666030883789
1700958049875027200,20.589027099609375,4.033332824707031,-14.63470458984375,8.586481094360352
1700958049892020200,20.606020263671876,4.181715965270996,-13.60421371459961,5.385286331176758
1700958049909009200,20.623009033203125,4.366981029510498,-12.502731323242188,3.11569881439209
1700958049925993700,20.63999365234375,4.49009370803833,-11.625350952148438,2.194995164871216
1700958049942994000,20.656993896484376,4.512869834899902,-10.482887268066406,1.5611711740493774
1700958049959985200,20.673985107421874,4.678234577178955,-9.030128479003906,0.6894838809967041
1700958049976977400,20.690977294921876,4.784160137176514,-7.702322959899902,0.14765286445617676
1700958049993955600,20.70795556640625,4.777822494506836,-6.675608158111572,0.10728609561920166
1700958050010963200,20.724963134765623,5.045069694519043,-6.1803998947143555,0.6999823451042175
1700958050027951900,20.741951904296876,5.609486103057861,-6.222114562988281,1.866549015045166
1700958050044944100,20.758944091796874,6.3379950523376465,-6.806747913360596,3.341829299926758
1700958050061931300,20.77593115234375,6.325765609741211,-7.388735771179199,4.346208095550537
1700958050078931700,20.792931640625,5.853605270385742,-7.839630126953125,5.045541763305664
1700958050095918800,20.8099189453125,4.793243885040283,-8.16041374206543,4.229360580444336
1700958050112910800,20.826910888671875,3.912456512451172,-7.021076202392578,1.6638429164886475
1700958050129902300,20.84390234375,3.437816619873047,-4.5052809715271,-0.7568943500518799
1700958050146891800,20.860891845703126,4.872581481933594,-0.8217053413391113,-0.10512006282806396
1700958050163887900,20.877887939453124,5.314672470092773,0.484591007232666,6.915966987609863
1700958050180880400,20.89488037109375,3.065495491027832,0.3400387763977051,16.935527801513672
1700958050197866200,20.9118662109375,-1.1168322563171387,1.6275887489318848,22.077312469482422
1700958050214861300,20.928861328125,-4.5398383140563965,4.372861385345459,16.786117553710938
1700958050231850000,20.94585009765625,-5.222391128540039,5.203184127807617,10.386418342590332
1700958050248846800,20.962846923828124,-4.0650248527526855,5.056012153625488,7.863381385803223
1700958050265835500,20.97983544921875,-2.2639222145080566,3.1151576042175293,9.969014167785645
1700958050282828000,20.996828125,1.0636940002441406,2.074563503265381,11.903614044189453
1700958050299806500,21.013806396484377,3.0293517112731934,2.3492584228515625,11.668221473693848
1700958050316801500,21.030801513671875,1.9310729503631592,3.3018336296081543,8.629487037658691
1700958050333794000,21.0477939453125,0.6684877872467041,3.5470943450927734,6.020727157592773
1700958050350787300,21.064787353515626,0.7489967346191406,4.037771224975586,4.664363384246826
1700958050367776500,21.081776611328124,1.8566421270370483,4.384564399719238,5.081223487854004
1700958050384767200,21.098767333984377,3.4993038177490234,4.514052391052246,6.664825916290283
1700958050401762600,21.115762451171875,4.457416534423828,4.318802833557129,8.83585262298584
1700958050418751000,21.1327509765625,4.78225040435791,3.765413284301758,8.523150444030762
1700958050435746000,21.14974609375,4.880603790283203,2.677255630493164,5.926573753356934
1700958050452747500,21.16674755859375,5.098970413208008,0.853388786315918,3.7002670764923096
1700958050469736000,21.18373583984375,5.073322296142578,-1.0928516387939453,2.5450706481933594
1700958050486728200,21.200728271484376,5.493518829345703,-2.981334686279297,1.860403299331665
1700958050503719400,21.217719482421874,6.36948299407959,-4.258224964141846,1.3993031978607178
1700958050520711400,21.23471142578125,6.318591117858887,-5.3177289962768555,1.2427098751068115
1700958050537694500,21.251694580078127,5.406445026397705,-6.008641242980957,1.1681474447250366
1700958050554692900,21.26869287109375,4.158269882202148,-6.2070231437683105,1.2066890001296997
1700958050571688200,21.285688232421876,2.6079277992248535,-6.206108093261719,0.7747265696525574
1700958050588678700,21.3026787109375,1.5478286743164062,-5.830044746398926,0.10025525093078613
1700958050605669600,21.319669677734375,1.3569109439849854,-5.160339832305908,-0.014386534690856934
1700958050622654200,21.336654296875,0.6726431846618652,-4.540562629699707,0.6812847852706909
1700958050639655700,21.35365576171875,-0.14398527145385742,-4.106062412261963,1.277848720550537
1700958050656642800,21.370642822265626,-0.6107175350189209,-3.716068744659424,1.3049616813659668
1700958050673636400,21.38763623046875,-0.19374990463256836,-3.140740394592285,0.5607051849365234
1700958050690628600,21.404628662109374,0.5286984443664551,-2.561737060546875,0.34474706649780273
1700958050707619800,21.421619873046875,0.6801118850708008,-1.802846908569336,1.2601954936981201
1700958050724612000,21.438612060546873,0.5715274810791016,-1.3718810081481934,2.6607465744018555
1700958050741603600,21.455603515625,0.27954721450805664,-1.0249605178833008,2.992608070373535
1700958050758595600,21.472595703125,0.6982645988464355,-0.44762134552001953,3.6474297046661377
1700958050775584000,21.489583984375,-0.14729976654052734,-0.6135396957397461,5.991701602935791
1700958050792581600,21.50658154296875,0.2474808692932129,0.06383848190307617,3.957674980163574
1700958050809570000,21.523570068359376,0.337188720703125,-1.1208014488220215,1.6066815853118896
1700958050826557200,21.54055712890625,0.8649253845214844,-2.2179384231567383,1.7831401824951172
1700958050843551200,21.55755126953125,1.810469150543213,-2.3655266761779785,2.152592420578003
1700958050860548400,21.57454833984375,1.653489112854004,-2.301156997680664,3.1487112045288086
1700958050877525500,21.591525390625,1.4455666542053223,-1.4676823616027832,3.8425397872924805
1700958050894526700,21.608526611328124,0.7768106460571289,-0.2570767402648926,4.003832817077637
1700958050911522800,21.625522705078126,0.29906749725341797,0.3801708221435547,3.483508586883545
1700958050928512300,21.64251220703125,0.36113929748535156,0.20915842056274414,3.1493802070617676
1700958050945503700,21.659503662109376,0.23023366928100586,-0.27494001388549805,3.072031259536743
1700958050962495700,21.676495849609374,0.5800313949584961,-0.7629432678222656,3.160033702850342
1700958050979487500,21.693487548828124,1.4471516609191895,-0.7467422485351562,3.1830878257751465
1700958050996469000,21.710468994140626,2.117464542388916,-0.536963939666748,2.9836926460266113
1700958051013467600,21.727467529296874,2.3031091690063477,-0.23886966705322266,3.0856738090515137
1700958051030465300,21.74446533203125,1.6417202949523926,-0.1915130615234375,2.9927873611450195
1700958051047444000,21.76144384765625,0.5457167625427246,-0.1383962631225586,2.5953736305236816
1700958051064446200,21.7784462890625,-0.09442901611328125,-0.15387248992919922,2.219794750213623
