time,seconds_elapsed,z,y,x
1700958134493893600,0.1098935546875,0.21457290649414062,-0.16135597229003906,0.11393189430236816
1700958134510881300,0.12688134765625,-0.1251850128173828,-0.12035799026489258,0.11328411102294922
1700958134527877000,0.143877197265625,-0.20803165435791016,-0.17888450622558594,0.007645845413208008
1700958134544875800,0.160875732421875,-0.11904144287109375,-0.1911172866821289,-0.29170727729797363
1700958134561861000,0.177861083984375,-0.20201444625854492,-0.06915712356567383,-0.24192392826080322
1700958134578851000,0.19485107421875,-0.6311373710632324,-0.0849924087524414,-0.10830557346343994
1700958134595844900,0.211844970703125,-0.5115432739257812,-0.23389244079589844,-0.3734511137008667
1700958134612838100,0.228838134765625,-1.1990680694580078,0.16833162307739258,-0.5683146715164185
1700958134629827000,0.2458271484375,-0.6795306205749512,-0.3138461112976074,-0.3492608070373535
1700958134646820400,0.2628203125,-0.16949224472045898,-0.19618749618530273,-0.5563619136810303
1700958134663815200,0.279815185546875,-0.47481584548950195,0.047444820404052734,-0.9544211030006409
1700958134680802800,0.296802734375,-0.7679171562194824,0.2541489601135254,-0.5867609977722168
1700958134697798400,0.31379833984375,-0.0028595924377441406,0.7978458404541016,-0.4126855134963989
1700958134714789400,0.330789306640625,0.6301059722900391,1.3286738395690918,-0.9457504153251648
1700958134731783700,0.34778369140625,1.303492546081543,2.546280860900879,-2.072598457336426
1700958134748771000,0.36477099609375,1.1803817749023438,3.587249279022217,-1.9867093563079834
1700958134765756000,0.381755859375,1.253878116607666,4.116037845611572,-1.2259738445281982
1700958134782767000,0.39876708984375,1.169053554534912,4.918286323547363,-1.5369887351989746
1700958134799741200,0.4157412109375,1.0693345069885254,4.710138320922852,-1.9107158184051514
1700958134816738800,0.43273876953125,0.597815990447998,3.661959648132324,-1.7406331300735474
1700958134833740800,0.44974072265625,0.04265403747558594,2.0774669647216797,-1.344687581062317
1700958134850727000,0.466726806640625,0.19955682754516602,2.812016487121582,-4.336154937744141
1700958134867720000,0.483719970703125,-0.699434757232666,-0.26006317138671875,-5.706344127655029
1700958134884711700,0.500711669921875,-1.7144191265106201,-2.316533088684082,-7.11229944229126
1700958134901705200,0.517705322265625,-3.4600670337677,-3.978944778442383,-8.290221214294434
1700958134918692600,0.534692626953125,-4.3410539627075195,-5.829464912414551,-9.039361953735352
1700958134935688000,0.55168798828125,-3.2826356887817383,-7.007734775543213,-9.90442180633545
1700958134952681000,0.568680908203125,-2.422430992126465,-7.669978141784668,-10.739960670471191
1700958134969669600,0.585669677734375,-2.102095127105713,-8.516400337219238,-10.75438117980957
1700958134986676500,0.602676513671875,-1.2135614156723022,-8.990057945251465,-10.228965759277344
1700958135003655400,0.619655517578125,0.4993854761123657,-9.668484687805176,-9.394050598144531
1700958135020648200,0.636648193359375,2.7930309772491455,-10.58080768585205,-8.16783618927002
1700958135037641500,0.653641357421875,5.037450790405273,-11.605026245117188,-6.607397079467773
1700958135054630400,0.67063037109375,6.728668212890625,-13.548497200012207,-4.453760147094727
1700958135071628000,0.6876279296875,7.73618221282959,-15.058191299438477,-1.6749849319458008
1700958135088615400,0.704615478515625,8.319140434265137,-15.953344345092773,2.7101316452026367
1700958135105609500,0.721609375,6.695998668670654,-14.693307876586914,3.3432931900024414
1700958135122592000,0.738592041015625,4.3110198974609375,-15.022939682006836,2.0018224716186523
1700958135139591200,0.755591064453125,4.493954658508301,-17.14804458618164,2.4277219772338867
1700958135156588500,0.772588623046875,6.768404006958008,-19.312822341918945,4.787774085998535
1700958135173579500,0.78957958984375,8.189004898071289,-19.97679328918457,11.208292007446289
1700958135190564400,0.806564453125,7.399122714996338,-18.32201385498047,15.479625701904297
1700958135207565300,0.8235654296875,3.4134953022003174,-16.098857879638672,15.863469123840332
1700958135224553700,0.8405537109375,1.9805601835250854,-14.7930269241333,15.490089416503906
1700958135241548000,0.857548095703125,3.2812960147857666,-13.799055099487305,18.205978393554688
1700958135258536200,0.8745361328125,4.717161178588867,-11.912857055664062,22.958831787109375
1700958135275537400,0.891537353515625,4.971258163452148,-8.426546096801758,26.710508346557617
1700958135292522500,0.9085224609375,4.381291389465332,-5.065765380859375,31.397382736206055
1700958135309514200,0.92551416015625,4.498337268829346,-2.004408836364746,33.55756378173828
1700958135326508800,0.9425087890625,3.9181876182556152,1.7241625785827637,27.723388671875
1700958135343497000,0.9594970703125,2.910698413848877,5.892609596252441,19.923994064331055
1700958135360487700,0.97648779296875,2.06129789352417,9.491241455078125,16.910507202148438
1700958135377487400,0.9934873046875,0.5063308477401733,13.066827774047852,15.547127723693848
1700958135394474800,1.010474853515625,-1.046900749206543,17.186111450195312,11.79693603515625
1700958135411466800,1.027466796875,0.8257604241371155,21.600919723510742,6.708184719085693
1700958135428458000,1.0444580078125,4.026212692260742,24.180030822753906,3.853996753692627
1700958135445448400,1.061448486328125,3.5903334617614746,26.99835777282715,2.2424569129943848
1700958135462444500,1.078444580078125,0.560531735420227,28.31232452392578,4.133596897125244
1700958135479434500,1.0954345703125,-2.455833673477173,28.23222541809082,5.517811298370361
1700958135496429800,1.112429931640625,-5.82786750793457,25.723894119262695,6.429876327514648
1700958135513423600,1.129423583984375,-10.659614562988281,21.91706085205078,3.647862434387207
1700958135530410800,1.14641064453125,-9.098904609680176,19.13580322265625,4.166250228881836
1700958135547405800,1.16340576171875,-2.6747348308563232,15.584589004516602,9.148324966430664
1700958135564396800,1.180396728515625,5.152096748352051,11.25056266784668,15.995406150817871
1700958135581387300,1.19738720703125,8.992405891418457,7.911195278167725,22.320388793945312
1700958135598381600,1.214381591796875,7.930085182189941,3.1385717391967773,28.207416534423828
1700958135615367700,1.23136767578125,7.189103126525879,0.6031366586685181,28.191452026367188
1700958135632366800,1.248366943359375,7.2744526863098145,-0.704911470413208,29.651880264282227
1700958135649353000,1.26535302734375,9.263664245605469,-6.5214619636535645,36.87199783325195
1700958135666352000,1.28235205078125,12.057173728942871,-13.513666152954102,35.9891357421875
1700958135683325000,1.299324951171875,12.903486251831055,-17.483673095703125,26.393753051757812
1700958135700331300,1.316331298828125,9.325651168823242,-20.70585823059082,16.68910026550293
1700958135717316600,1.333316650390625,5.879388809204102,-22.195829391479492,10.056085586547852
1700958135734318000,1.350318115234375,5.664694309234619,-23.113866806030273,5.170343399047852
1700958135751302000,1.367302001953125,8.523910522460938,-24.67635154724121,0.9346709251403809
1700958135768303000,1.38430322265625,12.817754745483398,-26.119327545166016,-3.127364158630371
1700958135785295000,1.401295166015625,16.559860229492188,-26.997047424316406,-5.776133060455322
1700958135802288000,1.4182880859375,15.325094223022461,-27.264842987060547,-6.923774719238281
1700958135819276800,1.43527685546875,10.87700366973877,-26.695659637451172,-6.59055233001709
1700958135836270800,1.452270751953125,6.771997928619385,-24.489967346191406,-7.665987491607666
1700958135853265200,1.46926513671875,5.166532516479492,-22.318042755126953,-9.152938842773438
1700958135870252800,1.486252685546875,4.461632251739502,-20.58138656616211,-7.929239273071289
1700958135887254800,1.5032548828125,2.4049644470214844,-19.52870750427246,-3.9334354400634766
1700958135904230100,1.520230224609375,0.43122148513793945,-18.364953994750977,-0.5905828475952148
1700958135921233400,1.5372333984375,-1.2370638847351074,-17.15526008605957,2.231133460998535
1700958135938224400,1.554224365234375,-2.8314456939697266,-15.433115005493164,7.757929801940918
1700958135955215000,1.571215087890625,-5.506553649902344,-14.892255783081055,17.15841293334961
1700958135972210700,1.588210693359375,-8.415508270263672,-11.957588195800781,22.839941024780273
1700958135989198300,1.6051982421875,-7.744897842407227,-2.3395156860351562,25.840221405029297
1700958136006182400,1.622182373046875,-5.193844318389893,3.379826068878174,38.896549224853516
1700958136023186000,1.63918603515625,3.686072587966919,7.073127746582031,50.423858642578125
1700958136040171300,1.656171142578125,12.215214729309082,13.16415023803711,37.642242431640625
1700958136057172700,1.6731728515625,11.927360534667969,17.394126892089844,17.72149658203125
1700958136074162400,1.690162353515625,4.321763038635254,17.67646026611328,8.81717300415039
1700958136091153400,1.7071533203125,-1.708475112915039,18.400012969970703,4.3241376876831055
1700958136108143400,1.724143310546875,-2.2576541900634766,18.798011779785156,0.7523841857910156
1700958136125140000,1.741139892578125,1.6566287279129028,19.597640991210938,-2.775970458984375
1700958136142130200,1.758130126953125,5.069136619567871,20.409299850463867,-5.953919410705566
1700958136159123000,1.775123046875,7.5637030601501465,21.23711395263672,-6.802755355834961
1700958136176103200,1.792103271484375,6.121449947357178,20.550954818725586,-7.066650390625
1700958136193108000,1.80910791015625,0.7473834753036499,18.881526947021484,-7.8606109619140625
1700958136210095600,1.826095703125,-4.291709899902344,17.57783317565918,-8.875714302062988
1700958136227080200,1.843080078125,-5.42418098449707,17.191421508789062,-8.056256294250488
1700958136244084000,1.860083984375,-2.621302843093872,16.5017032623291,-3.380697727203369
1700958136261072400,1.877072265625,0.6608160734176636,15.143394470214844,3.993800163269043
1700958136278067200,1.894067138671875,0.12670254707336426,13.633323669433594,10.56272029876709
1700958136295059200,1.91105908203125,-3.7361795902252197,12.194233894348145,15.65158748626709
1700958136312052500,1.928052490234375,-4.952920913696289,12.009071350097656,16.893001556396484
1700958136329042000,1.9450419921875,-1.1998379230499268,15.313270568847656,21.32222557067871
1700958136346024200,1.962024169921875,1.4153330326080322,12.771081924438477,32.19784927368164
1700958136363029500,1.979029541015625,2.9573757648468018,6.497093200683594,37.189842224121094
1700958136380017000,1.996016845703125,1.6902132034301758,0.4707303047180176,33.56215286254883
1700958136397012200,2.01301220703125,-0.3626747131347656,-5.552290916442871,26.918212890625
1700958136414005200,2.030005126953125,1.8622958660125732,-13.081293106079102,21.28507423400879
1700958136430994000,2.046993896484375,8.83192253112793,-21.710407257080078,14.267553329467773
1700958136447988700,2.06398876953125,16.98102378845215,-26.87419319152832,4.549966812133789
1700958136464979200,2.080979248046875,19.970762252807617,-29.277280807495117,-1.3061177730560303
1700958136481973200,2.09797314453125,16.617359161376953,-30.320255279541016,-2.5681252479553223
1700958136498965200,2.11496533203125,12.133758544921875,-30.464778900146484,-1.9824628829956055
1700958136515954200,2.1319541015625,8.106098175048828,-31.1398868560791,1.0355026721954346
1700958136532951000,2.148950927734375,5.538928985595703,-30.55228614807129,0.6074068546295166
1700958136549938400,2.1659384765625,4.92114782333374,-27.792470932006836,-4.31161642074585
1700958136566933500,2.18293359375,4.818052291870117,-25.556072235107422,-5.527371406555176
1700958136583914200,2.199914306640625,3.4008231163024902,-24.201053619384766,-1.5876545906066895
1700958136600917800,2.216917724609375,-0.8518359661102295,-24.01252555847168,9.703763961791992
1700958136617910300,2.23391015625,-2.0609285831451416,-22.548812866210938,21.14189910888672
1700958136634902300,2.25090234375,-2.925739049911499,-18.54269790649414,25.951183319091797
1700958136651895300,2.267895263671875,-5.945512294769287,-5.6591315269470215,18.657739639282227
1700958136668884000,2.284884033203125,-6.760499954223633,1.874436855316162,29.80660057067871
1700958136685878000,2.3018779296875,-2.0749826431274414,2.6562538146972656,51.7581672668457
1700958136702872300,2.318872314453125,5.93649959564209,6.856712341308594,60.82831573486328
1700958136719860000,2.33585986328125,14.379655838012695,15.140273094177246,37.07829284667969
1700958136736853200,2.352853271484375,13.128429412841797,17.53653335571289,11.813446998596191
1700958136753849900,2.369849853515625,5.140951156616211,16.34344482421875,3.6860504150390625
1700958136770836700,2.386836669921875,0.0899515151977539,16.764068603515625,0.08038997650146484
1700958136787831800,2.403831787109375,0.13350319862365723,18.713064193725586,-3.3093619346618652
1700958136804811500,2.4208115234375,3.144843816757202,19.405946731567383,-4.5120158195495605
1700958136821817900,2.43781787109375,5.929834842681885,19.449934005737305,-6.098235607147217
1700958136838806300,2.45480615234375,7.245538711547852,20.27457618713379,-9.171314239501953
1700958136855799600,2.471799560546875,5.941749095916748,20.042070388793945,-11.329411506652832
1700958136872794000,2.488794189453125,3.5137953758239746,18.955537796020508,-12.622879981994629
1700958136889781500,2.505781494140625,0.9343371391296387,18.24744415283203,-12.25136947631836
1700958136906775600,2.522775634765625,-0.9964017868041992,17.341991424560547,-6.929045677185059
1700958136923769300,2.539769287109375,-1.2892487049102783,16.21324920654297,0.36588096618652344
1700958136940763600,2.556763671875,-0.8025500774383545,15.026354789733887,8.255687713623047
1700958136957743400,2.573743408203125,1.0695204734802246,13.461380004882812,11.339726448059082
1700958136974733800,2.59073388671875,2.3013269901275635,12.867670059204102,12.960735321044922
1700958136991747800,2.607747802734375,6.041009902954102,12.428483963012695,17.236587524414062
1700958137008725500,2.6247255859375,7.989781379699707,10.689058303833008,24.984420776367188
1700958137025724400,2.641724365234375,4.777395248413086,6.39205265045166,31.675579071044922
1700958137042704600,2.65870458984375,0.23214149475097656,0.4172382354736328,31.928207397460938
1700958137059703000,2.675703125,0.07118868827819824,-7.164133548736572,27.018917083740234
1700958137076697900,2.69269775390625,5.729710578918457,-15.346649169921875,18.78274917602539
1700958137093695000,2.709695068359375,11.446311950683594,-21.599523544311523,9.655253410339355
1700958137110680000,2.72668017578125,11.291329383850098,-25.787872314453125,2.6313111782073975
1700958137127674600,2.743674560546875,6.945311546325684,-27.64244842529297,-2.343738317489624
1700958137144648000,2.76064794921875,2.1365315914154053,-27.34183120727539,-5.656582355499268
1700958137161656000,2.777656005859375,1.8064899444580078,-27.145538330078125,-6.161957740783691
1700958137178649900,2.79464990234375,5.187282562255859,-27.965396881103516,-3.9582040309906006
1700958137195642600,2.811642578125,7.599727630615234,-28.265235900878906,-1.9532675743103027
1700958137212637000,2.828636962890625,7.963318347930908,-25.865602493286133,-3.480858325958252
1700958137229622300,2.845622314453125,5.6164164543151855,-23.00647735595703,-5.203079700469971
1700958137246622200,2.862622314453125,2.263427495956421,-21.571882247924805,-2.653362989425659
1700958137263613000,2.879613037109375,-1.0176267623901367,-21.17477798461914,5.233686923980713
1700958137280598800,2.896598876953125,-1.3290395736694336,-20.105735778808594,17.056589126586914
1700958137297596400,2.913596435546875,-1.7418804168701172,-16.705968856811523,22.553781509399414
1700958137314590700,2.9305908203125,-2.0787198543548584,-7.003852844238281,18.860557556152344
1700958137331581400,2.94758154296875,0.03275275230407715,-0.7382752895355225,23.171464920043945
1700958137348569900,2.96456982421875,2.409959077835083,3.044245481491089,31.361984252929688
1700958137365564200,2.981564208984375,-1.037081241607666,3.817599296569824,44.55033874511719
1700958137382558500,2.998558349609375,-1.3938684463500977,8.942792892456055,44.26211929321289
1700958137399538700,3.01553857421875,4.333564758300781,16.34084701538086,19.606914520263672
1700958137416539000,3.032538818359375,8.197680473327637,18.305511474609375,9.886560440063477
1700958137433534200,3.0495341796875,7.858284950256348,17.82085418701172,9.230291366577148
1700958137450523100,3.066523193359375,6.996567726135254,19.415306091308594,2.563797950744629
1700958137467517700,3.083517578125,5.958878993988037,20.489492416381836,-3.015835762023926
1700958137484506400,3.10050634765625,4.483278274536133,21.933639526367188,-7.331693649291992
1700958137501502700,3.117502685546875,-0.4894537925720215,24.075176239013672,-12.478311538696289
1700958137518494700,3.13449462890625,-4.857051372528076,25.03351402282715,-13.460147857666016
1700958137535478000,3.15147802734375,-3.4734742641448975,24.399917602539062,-9.984491348266602
1700958137552479200,3.168479248046875,1.227759838104248,22.597396850585938,-4.998255252838135
1700958137569470700,3.185470703125,4.028835773468018,19.935731887817383,1.052621841430664
1700958137586463500,3.20246337890625,2.599792957305908,16.835533142089844,5.820819854736328
1700958137603455000,3.219455078125,-0.6539697647094727,13.876786231994629,11.393036842346191
1700958137620444400,3.2364443359375,-3.0602123737335205,11.336956977844238,18.02111053466797
1700958137637442300,3.2534423828125,-0.48773837089538574,12.35069465637207,22.447362899780273
1700958137654422800,3.2704228515625,3.2428901195526123,10.309759140014648,31.172550201416016
1700958137671417300,3.287417236328125,4.767014503479004,4.63662052154541,37.84934997558594
1700958137688415000,3.3044150390625,3.086879014968872,-2.7361717224121094,37.46334457397461
1700958137705408000,3.321407958984375,3.139833927154541,-8.832077980041504,29.540069580078125
1700958137722400500,3.338400390625,6.500977993011475,-16.64078140258789,21.063112258911133
1700958137739381800,3.3553818359375,10.24464225769043,-23.955196380615234,11.423747062683105
1700958137756398800,3.37239892578125,10.899622917175293,-28.058475494384766,2.3643176555633545
1700958137773376800,3.389376708984375,9.000089645385742,-28.97213363647461,-3.9864845275878906
1700958137790369500,3.40636962890625,7.233274936676025,-28.813167572021484,-6.738921165466309
1700958137807361000,3.423361083984375,7.649906158447266,-29.588777542114258,-6.185696601867676
1700958137824351200,3.440351318359375,8.929885864257812,-30.156633377075195,-4.097468852996826
1700958137841347600,3.45734765625,9.238044738769531,-29.985715866088867,-2.2557737827301025
1700958137858337800,3.474337890625,7.475506782531738,-27.883577346801758,-3.8705801963806152
1700958137875327200,3.4913271484375,4.515929222106934,-25.260305404663086,-5.497333526611328
1700958137892324600,3.50832470703125,1.7013921737670898,-23.79332160949707,-1.811166524887085
1700958137909314000,3.52531396484375,-0.8668723106384277,-22.48117446899414,5.87548828125
1700958137926302500,3.542302490234375,-1.3693413734436035,-19.954830169677734,11.073457717895508
1700958137943287600,3.55928759765625,-1.7331292629241943,-16.96059226989746,16.36302375793457
1700958137960277500,3.576277587890625,0.07127809524536133,-11.30126953125,16.9991397857666
1700958137977282000,3.593281982421875,1.9458167552947998,0.7569897174835205,19.66930389404297
1700958137994264800,3.610264892578125,-4.510625839233398,6.574728488922119,40.853111267089844
1700958138011256800,3.6272568359375,-5.1689252853393555,10.85473346710205,55.26960372924805
1700958138028253700,3.644253662109375,7.492327690124512,16.373600006103516,37.08384704589844
1700958138045245200,3.6612451171875,15.79442024230957,18.555219650268555,15.567850112915039
1700958138062230000,3.67822998046875,9.265532493591309,16.647890090942383,9.895540237426758
1700958138079241500,3.695241455078125,1.6852996349334717,15.237751960754395,6.261099815368652
1700958138096222500,3.712222412109375,-1.2261302471160889,14.253789901733398,-0.1820669174194336
1700958138113217500,3.729217529296875,-0.6214942932128906,13.387066841125488,-3.2002415657043457
1700958138130213600,3.746213623046875,1.5705313682556152,13.563837051391602,-6.644688606262207
1700958138147202000,3.7632021484375,3.8125429153442383,13.589445114135742,-8.475297927856445
1700958138164196600,3.780196533203125,4.57273006439209,13.382059097290039,-9.343146324157715
1700958138181188600,3.797188720703125,2.402007579803467,12.31025218963623,-11.15027904510498
1700958138198181000,3.81418115234375,-0.4167943000793457,12.177972793579102,-14.003470420837402
1700958138215172600,3.831172607421875,-1.737274408340454,13.270751953125,-14.246417999267578
1700958138232165400,3.848165283203125,-0.5611546039581299,14.491658210754395,-9.866926193237305
1700958138249154600,3.865154541015625,1.8231751918792725,15.111486434936523,-2.3859477043151855
1700958138266139400,3.882139404296875,2.3789424896240234,14.475369453430176,6.534241676330566
1700958138283139300,3.899139404296875,1.0468616485595703,13.118572235107422,10.210854530334473
1700958138300134000,3.9161337890625,0.7577366828918457,13.605928421020508,10.253402709960938
1700958138317125600,3.933125732421875,2.85701060295105,15.621866226196289,13.844337463378906
1700958138334118100,3.9501181640625,4.40468168258667,13.816089630126953,23.795530319213867
1700958138351110000,3.96710986328125,3.5846962928771973,11.885597229003906,30.43446922302246
1700958138368102400,3.984102294921875,-0.2062385082244873,5.451316833496094,33.12984085083008
1700958138385094000,4.001093994140625,-0.8992817401885986,-3.028493881225586,29.161481857299805
1700958138402087000,4.0180869140625,3.889763355255127,-11.76037883758545,20.635456085205078
1700958138419078700,4.03507861328125,9.147683143615723,-19.471710205078125,11.811267852783203
1700958138436071200,4.0520712890625,10.623260498046875,-24.26375961303711,4.4012346267700195
1700958138453063000,4.06906298828125,8.134528160095215,-27.19615364074707,-0.14794111251831055
1700958138470067500,4.0860673828125,4.825819492340088,-28.45904541015625,-2.859208106994629
1700958138487047000,4.103046875,2.6363584995269775,-29.17523956298828,-3.459606170654297
1700958138504039700,4.120039794921875,4.017009735107422,-29.061874389648438,-2.6394741535186768
1700958138521027800,4.13702783203125,4.72937536239624,-28.92093276977539,-0.8034985065460205
1700958138538027500,4.154027587890625,3.2869162559509277,-27.767303466796875,-0.2153925895690918
1700958138555015700,4.171015625,1.2756781578063965,-24.87142562866211,-2.3724732398986816
1700958138572008400,4.188008544921875,-0.2107524871826172,-22.042078018188477,-3.2937846183776855
1700958138588989400,4.204989501953125,-1.3491485118865967,-20.222171783447266,2.033665180206299
1700958138605981000,4.22198095703125,-2.140855073928833,-18.21795654296875,12.260835647583008
1700958138622984400,4.238984375,-2.5192902088165283,-13.15179443359375,19.645633697509766
1700958138639977200,4.255977294921875,-3.107133388519287,-0.37613868713378906,14.048639297485352
1700958138656968400,4.272968505859375,-8.498910903930664,7.469544887542725,20.364849090576172
1700958138673960700,4.289960693359375,-8.458253860473633,7.119470596313477,41.01038360595703
1700958138690953500,4.306953369140625,1.5680822134017944,8.826066970825195,47.75334930419922
1700958138707945500,4.323945556640625,10.89491081237793,12.640596389770508,33.89548110961914
1700958138724937500,4.3409375,12.375511169433594,13.820192337036133,13.447759628295898
1700958138741927200,4.35792724609375,4.382471084594727,12.50551700592041,2.392258644104004
1700958138758924300,4.37492431640625,-2.798705816268921,11.120946884155273,-1.8003735542297363
1700958138775914200,4.391914306640625,-3.4547348022460938,10.794580459594727,-5.364879608154297
1700958138792905700,4.40890576171875,1.4016109704971313,11.966283798217773,-7.833860874176025
1700958138809888000,4.425887939453125,6.767152786254883,14.0525484085083,-9.088464736938477
1700958138826890200,4.44289013671875,9.271418571472168,16.63705825805664,-10.293036460876465
1700958138843883000,4.459883056640625,6.020359992980957,17.221202850341797,-11.309183120727539
1700958138860874500,4.47687451171875,0.9512784481048584,17.14735984802246,-13.453208923339844
1700958138877868800,4.493868896484375,-0.867464542388916,16.650432586669922,-14.27140998840332
1700958138894857000,4.51085693359375,2.6551897525787354,15.781383514404297,-11.108291625976562
1700958138911851300,4.527851318359375,6.1461591720581055,14.119451522827148,-4.370491981506348
1700958138928843000,4.544843017578125,6.87755012512207,12.484186172485352,2.350033760070801
1700958138945823000,4.561822998046875,5.507969379425049,12.029593467712402,7.494589805603027
1700958138962819300,4.5788193359375,2.6058170795440674,13.848336219787598,11.753680229187012
1700958138979809800,4.595809814453125,3.319915771484375,16.166135787963867,17.566856384277344
1700958138996812300,4.612812255859375,5.6445465087890625,13.87971305847168,26.3148193359375
1700958139013806800,4.629806884765625,2.1594324111938477,9.693038940429688,33.340145111083984
1700958139030796300,4.64679638671875,-4.453150749206543,3.082376480102539,34.57658767700195
1700958139047786800,4.663786865234375,-2.580996036529541,-5.019715309143066,27.17252540588379
1700958139064773600,4.680773681640625,6.814040184020996,-12.715130805969238,15.921171188354492
1700958139081771300,4.697771240234375,12.338831901550293,-17.97966957092285,6.981278896331787
1700958139098766300,4.714766357421875,10.901626586914062,-21.669506072998047,2.4050796031951904
1700958139115749000,4.7317490234375,6.064074516296387,-23.339458465576172,2.1588025093078613
1700958139132741000,4.7487412109375,2.161561965942383,-23.926816940307617,2.1271817684173584
1700958139149733600,4.765733642578125,1.7781713008880615,-24.685684204101562,-1.3892767429351807
1700958139166723000,4.78272314453125,3.8181941509246826,-25.27360725402832,-6.004331588745117
1700958139183715000,4.799715087890625,5.125724792480469,-25.012252807617188,-8.785482406616211
1700958139200709400,4.81670947265625,4.719784736633301,-24.022098541259766,-8.799346923828125
1700958139217704400,4.833704345703125,3.5018014907836914,-21.685131072998047,-5.506656646728516
1700958139234698500,4.850698486328125,2.8286688327789307,-19.46416473388672,1.3330607414245605
1700958139251691800,4.86769189453125,2.3333992958068848,-17.628551483154297,6.831721782684326
1700958139268683500,4.88468359375,1.5220320224761963,-16.645647048950195,7.140351295471191
1700958139285668400,4.90166845703125,-0.6104474067687988,-15.999541282653809,8.960731506347656
1700958139302664000,4.918663818359375,-4.109076023101807,-12.51518726348877,12.067304611206055
1700958139319660500,4.93566064453125,-3.857663631439209,-3.633892059326172,16.8742618560791
1700958139336650800,4.952650634765625,-2.1323347091674805,2.749692440032959,29.746917724609375
1700958139353649200,4.969649169921875,1.8978118896484375,3.3063247203826904,38.023223876953125
1700958139370629600,4.986629638671875,7.3047075271606445,7.080706596374512,40.59695816040039
1700958139387631900,5.0036318359375,12.547297477722168,13.21296215057373,28.81003189086914
1700958139404613600,5.020613525390625,13.76073932647705,17.32390594482422,13.572212219238281
1700958139421616000,5.0376162109375,6.499689102172852,15.289567947387695,4.92683219909668
1700958139438605000,5.05460498046875,0.9799017906188965,15.11948299407959,-4.176287651062012
1700958139455603000,5.07160302734375,1.4446947574615479,15.706331253051758,-9.71792221069336
1700958139472575700,5.08857568359375,4.660199165344238,15.384092330932617,-9.277092933654785
1700958139489585000,5.1055849609375,7.458856105804443,14.994872093200684,-6.740504264831543
1700958139506574000,5.122573974609375,8.868624687194824,15.328775405883789,-8.357428550720215
1700958139523569200,5.139569091796875,8.193750381469727,16.208860397338867,-13.108585357666016
1700958139540548000,5.156548095703125,4.892139434814453,16.627546310424805,-14.771781921386719
1700958139557556000,5.173555908203125,1.7361783981323242,16.610612869262695,-11.140181541442871
1700958139574548700,5.190548828125,1.2320774793624878,15.238031387329102,-3.9455156326293945
1700958139591540700,5.207540771484375,3.0347740650177,13.66716194152832,3.9817981719970703
1700958139608529200,5.224529052734375,5.016329765319824,12.704109191894531,8.588761329650879
1700958139625525000,5.24152490234375,6.840500354766846,13.769355773925781,11.265507698059082
1700958139642510800,5.2585107421875,12.609257698059082,16.36428451538086,15.755033493041992
1700958139659506700,5.275506591796875,13.101478576660156,13.597362518310547,27.358572006225586
1700958139676498200,5.292498291015625,6.168214797973633,8.804247856140137,32.658538818359375
1700958139693490700,5.30949072265625,-3.7433888912200928,2.4770283699035645,31.430448532104492
1700958139710482400,5.326482421875,-5.71324348449707,-3.9039719104766846,26.380897521972656
1700958139727475000,5.343474853515625,0.63960862159729,-11.870027542114258,18.79183006286621
1700958139744456400,5.36045654296875,9.39408016204834,-18.33611297607422,10.434171676635742
1700958139761446000,5.37744580078125,14.007619857788086,-22.109851837158203,4.165844917297363
1700958139778451200,5.394451171875,10.961612701416016,-24.826496124267578,0.6115803718566895
1700958139795444000,5.41144384765625,5.195758819580078,-26.176258087158203,-0.9461829662322998
1700958139812435500,5.428435546875,2.0490381717681885,-26.596405029296875,-2.765223741531372
1700958139829427700,5.445427734375,2.1004910469055176,-26.27866554260254,-4.842003345489502
1700958139846420000,5.462419921875,3.763451337814331,-26.157657623291016,-5.679625511169434
1700958139863412200,5.479412109375,5.820870399475098,-25.479711532592773,-5.534255027770996
1700958139880400000,5.49639990234375,6.502647399902344,-23.79962158203125,-4.487281322479248
1700958139897398300,5.513398193359375,5.58051872253418,-22.025270462036133,-1.2177858352661133
1700958139914390800,5.530390869140625,2.35054349899292,-20.849449157714844,4.758512020111084
1700958139931381000,5.547381103515625,-2.7163259983062744,-19.928598403930664,10.63963508605957
1700958139948372500,5.56437255859375,-7.408108711242676,-14.698379516601562,9.679584503173828
1700958139965368300,5.581368408203125,-6.358504295349121,-2.6009836196899414,9.91622543334961
1700958139982354000,5.59835400390625,-6.059680938720703,4.3855156898498535,34.132354736328125
1700958139999349800,5.615349853515625,-1.7864665985107422,7.58653450012207,53.924015045166016
1700958140016338700,5.632338623046875,9.520100593566895,14.432048797607422,40.12727737426758
1700958140033336600,5.649336669921875,15.790118217468262,17.99300765991211,19.628971099853516
1700958140050325800,5.66632568359375,10.212574005126953,16.170373916625977,7.643067359924316
1700958140067316000,5.68331591796875,3.8308334350585938,14.777994155883789,-1.859489917755127
1700958140084299300,5.70029931640625,1.2178343534469604,15.074892044067383,-9.80254077911377
1700958140101302800,5.717302734375,2.305703639984131,15.419001579284668,-11.747712135314941
1700958140118294300,5.734294189453125,4.652134895324707,16.390676498413086,-9.063170433044434
1700958140135286800,5.751286865234375,5.275315761566162,17.053037643432617,-7.035027503967285
1700958140152278500,5.768278564453125,3.977811813354492,16.59170913696289,-9.081308364868164
1700958140169271300,5.785271240234375,2.062791347503662,14.937744140625,-12.032610893249512
1700958140186250200,5.802250244140625,0.5098751783370972,13.067049026489258,-12.460074424743652
1700958140203257900,5.8192578125,0.6395370960235596,11.721343994140625,-9.417351722717285
1700958140220257500,5.836257568359375,2.0079762935638428,10.787863731384277,-3.5369958877563477
1700958140237237200,5.8532373046875,2.689425468444824,9.973554611206055,2.116044044494629
1700958140254228700,5.870228759765625,2.349994659423828,9.66317367553711,8.301063537597656
1700958140271227000,5.887226806640625,1.512711763381958,10.696276664733887,12.608006477355957
1700958140288210200,5.904210205078125,4.9926300048828125,13.411351203918457,15.146064758300781
1700958140305211100,5.921211181640625,8.455023765563965,14.606856346130371,20.64366340637207
1700958140322200300,5.938200439453125,6.379532814025879,12.611738204956055,27.870506286621094
1700958140339193000,5.955193115234375,-1.4123427867889404,8.216178894042969,30.993797302246094
1700958140356184300,5.972184326171875,-5.945426940917969,0.46747779846191406,27.691774368286133
1700958140373177000,5.989177001953125,0.8521068096160889,-8.498979568481445,17.867280960083008
1700958140390168800,6.0061689453125,11.786953926086426,-16.648027420043945,8.158252716064453
1700958140407161600,6.02316162109375,17.820358276367188,-21.353679656982422,1.1976772546768188
1700958140424153000,6.040153076171875,14.604328155517578,-24.34256935119629,-1.810565710067749
1700958140441146000,6.05714599609375,6.998581886291504,-26.067691802978516,-0.8776495456695557
1700958140458137600,6.0741376953125,1.5440969467163086,-25.69110107421875,0.4700949192047119
1700958140475130000,6.091130126953125,-0.6448574066162109,-24.687088012695312,2.2229034900665283
1700958140492121900,6.108121826171875,0.8359713554382324,-24.447847366333008,1.9872322082519531
1700958140509114600,6.125114501953125,3.941730499267578,-23.454097747802734,-1.2288415431976318
1700958140526114800,6.14211474609375,5.723056793212891,-21.655345916748047,-3.922658920288086
1700958140543096600,6.1590966796875,4.410091400146484,-20.06899642944336,-2.704662322998047
1700958140560092700,6.1760927734375,1.9100940227508545,-19.258771896362305,3.271350860595703
1700958140577083400,6.19308349609375,-0.5522456169128418,-18.421340942382812,11.30735969543457
1700958140594074600,6.21007470703125,-4.586822032928467,-16.062179565429688,11.525796890258789
1700958140611067400,6.2270673828125,-7.975825786590576,-10.33765983581543,5.253854274749756
1700958140628059100,6.24405908203125,-5.564774513244629,-3.370943546295166,14.914464950561523
1700958140645052000,6.261052001953125,-0.5587258338928223,2.271674633026123,41.54644012451172
1700958140662041600,6.27804150390625,8.593717575073242,10.186315536499023,51.45246124267578
1700958140679027200,6.295027099609375,17.79402732849121,18.4190616607666,37.441856384277344
1700958140696024000,6.312024169921875,13.309332847595215,20.11985969543457,20.93177032470703
1700958140713024000,6.32902392578125,2.2989585399627686,17.187110900878906,10.936217308044434
1700958140730012000,6.346011962890625,-2.0799248218536377,13.656620979309082,0.19594955444335938
1700958140747010800,6.3630107421875,-0.4812586307525635,11.88127613067627,-10.663755416870117
1700958140763996400,6.379996337890625,3.792037010192871,11.176067352294922,-13.720428466796875
1700958140780989000,6.396989013671875,6.635157585144043,12.048728942871094,-12.692033767700195
1700958140797981000,6.41398095703125,6.646302223205566,14.116312980651855,-11.787834167480469
1700958140814971000,6.430970947265625,3.6115341186523438,15.219450950622559,-10.872199058532715
1700958140831955200,6.447955078125,-0.5535149574279785,15.260942459106445,-13.337616920471191
1700958140848947200,6.464947265625,-2.008639335632324,15.381031036376953,-15.30246639251709
1700958140865950500,6.481950439453125,1.1906075477600098,15.92718505859375,-11.677685737609863
1700958140882943500,6.498943603515625,6.59291934967041,16.16811752319336,-0.45818519592285156
1700958140899926500,6.515926513671875,9.880535125732422,15.76876163482666,12.303586959838867
1700958140916924000,6.532923828125,8.210847854614258,14.592586517333984,18.934335708618164
1700958140933920500,6.54992041015625,7.841894626617432,14.883273124694824,16.90212631225586
1700958140950911000,6.566910888671875,9.220139503479004,14.170158386230469,18.440229415893555
1700958140967902500,6.58390234375,8.808147430419922,10.836944580078125,23.75872230529785
1700958140984895200,6.600895263671875,3.960745334625244,8.686656951904297,26.03078269958496
1700958141001886700,6.61788671875,-2.64802885055542,3.357069969177246,29.551700592041016
1700958141018879500,6.63487939453125,-1.8934972286224365,-5.156883239746094,26.69110107421875
1700958141035871000,6.65187109375,6.465554237365723,-15.530845642089844,17.945409774780273
1700958141052853200,6.668853271484375,15.571179389953613,-23.44805335998535,7.333958625793457
1700958141069855500,6.68585546875,16.734397888183594,-27.082866668701172,-1.01544189453125
1700958141086846000,6.702845947265625,8.850425720214844,-29.705677032470703,-3.261610984802246
1700958141103842000,6.719842041015625,0.8818180561065674,-30.223520278930664,-3.3939032554626465
1700958141120832300,6.736832275390625,-0.4951004981994629,-30.231176376342773,-3.0085902214050293
1700958141137812500,6.7538125,2.4652516841888428,-30.610427856445312,-2.2395131587982178
1700958141154819000,6.770819091796875,6.182517051696777,-29.07402992248535,-2.8324365615844727
1700958141171808500,6.78780859375,8.035353660583496,-26.381624221801758,-2.041827917098999
1700958141188799500,6.804799560546875,6.765131950378418,-24.46417236328125,0.6002392768859863
1700958141205794300,6.821794189453125,3.9001193046569824,-22.5052547454834,5.288400650024414
1700958141222785500,6.83878564453125,-0.1264629364013672,-19.734375,12.012945175170898
1700958141239777300,6.85577734375,-3.1562142372131348,-16.734949111938477,15.849044799804688
1700958141256769800,6.872769775390625,-2.035984516143799,-14.11497688293457,16.94791030883789
1700958141273761300,6.88976123046875,1.5314116477966309,-5.71549129486084,17.140541076660156
1700958141290754300,6.90675439453125,-0.705650806427002,1.7646777629852295,30.892704010009766
1700958141307745800,6.923745849609375,-3.4228463172912598,6.6762776374816895,51.9813232421875
1700958141324727800,6.940727783203125,-2.1968111991882324,12.867753982543945,49.4075927734375
1700958141341730000,6.95772998046875,1.3078417778015137,17.332962036132812,31.61349105834961
1700958141358722800,6.974722900390625,1.5181310176849365,19.227127075195312,18.00014877319336
1700958141375701500,6.991701416015625,-1.5953822135925293,17.27326774597168,12.15466022491455
1700958141392707000,7.00870703125,0.21509265899658203,15.61877155303955,4.3696489334106445
1700958141409698800,7.02569873046875,2.83198881149292,15.013165473937988,-0.4886798858642578
1700958141426691300,7.04269140625,6.276906967163086,16.407241821289062,-3.361663818359375
1700958141443670300,7.059670166015625,6.434638023376465,17.925615310668945,-4.671969890594482
1700958141460668200,7.076668212890625,3.341461181640625,18.98133659362793,-7.42435884475708
1700958141477659400,7.093659423828125,1.3050034046173096,20.156986236572266,-12.453344345092773
1700958141494645500,7.1106455078125,2.1557583808898926,21.7081356048584,-15.5160551071167
1700958141511643000,7.127642822265625,4.919277667999268,22.64352798461914,-12.169925689697266
1700958141528634400,7.14463427734375,8.545145034790039,23.464189529418945,-4.465034484863281
1700958141545638700,7.161638671875,7.806397438049316,23.267854690551758,6.095433235168457
1700958141562628600,7.178628662109375,3.2155661582946777,18.441221237182617,16.612354278564453
1700958141579620400,7.195620361328125,1.4273149967193604,14.167242050170898,18.78778076171875
1700958141596612900,7.21261279296875,5.221216201782227,14.462896347045898,19.563631057739258
1700958141613605000,7.229605224609375,6.116071701049805,11.119804382324219,27.425769805908203
1700958141630597400,7.246597412109375,4.6562910079956055,11.39863395690918,29.947378158569336
1700958141647589000,7.263589111328125,-2.9517292976379395,11.013057708740234,33.89858627319336
1700958141664582000,7.280581787109375,-11.13836669921875,6.735403060913086,36.94397735595703
1700958141681573600,7.29757373046875,-8.27273178100586,-4.202247619628906,34.52534484863281
1700958141698566100,7.314566162109375,4.009876251220703,-18.042377471923828,25.819433212280273
1700958141715547100,7.331547119140625,17.699237823486328,-27.391910552978516,13.5370512008667
1700958141732550400,7.34855029296875,22.26591682434082,-31.46143341064453,3.4561846256256104
1700958141749532000,7.365531982421875,17.35430908203125,-34.70037841796875,0.5388807058334351
1700958141766535000,7.382534912109375,10.036381721496582,-36.686859130859375,-1.499239206314087
1700958141783525400,7.399525390625,5.204973220825195,-36.322059631347656,-3.4186830520629883
1700958141800517400,7.416517333984375,1.1935062408447266,-33.886661529541016,-3.7034859657287598
1700958141817513500,7.433513427734375,0.8102726936340332,-30.078739166259766,-4.936304569244385
1700958141834503400,7.45050341796875,3.9055631160736084,-27.602294921875,-2.878582000732422
1700958141851495000,7.467494873046875,5.699166297912598,-26.819835662841797,2.9507203102111816
1700958141868477200,7.484477294921875,5.921545505523682,-24.922685623168945,10.397781372070312
1700958141885479400,7.5014794921875,1.8295414447784424,-21.67934799194336,14.371664047241211
1700958141902472200,7.51847216796875,-3.673271656036377,-18.56439971923828,14.075727462768555
1700958141919453200,7.535453125,-5.254389762878418,-14.337007522583008,10.017407417297363
1700958141936456700,7.552456787109375,-4.991880893707275,-8.712470054626465,21.907102584838867
1700958141953445600,7.569445556640625,-5.239522457122803,-0.8853524923324585,53.50102233886719
1700958141970443500,7.586443603515625,1.1568377017974854,7.7414422035217285,65.46516418457031
1700958141987432400,7.603432373046875,15.826064109802246,17.826370239257812,41.595489501953125
1700958142004414200,7.620414306640625,15.251474380493164,20.62981605529785,27.04105567932129
1700958142021417000,7.6374169921875,3.5797553062438965,19.126811981201172,21.95770835876465
1700958142038409200,7.6544091796875,-2.7484846115112305,16.740385055541992,10.251079559326172
1700958142055401200,7.671401123046875,-2.7189512252807617,15.447970390319824,-1.1329007148742676
1700958142072394000,7.68839404296875,0.1114952564239502,15.580744743347168,-7.1527299880981445
1700958142089385700,7.7053857421875,3.598428726196289,16.76456642150879,-8.02153205871582
1700958142106375700,7.722375732421875,5.413054466247559,18.093734741210938,-5.69093656539917
1700958142123370000,7.739369873046875,2.3736560344696045,19.083709716796875,-4.786629676818848
1700958142140361500,7.756361572265625,-0.6911547183990479,20.769651412963867,-9.920571327209473
1700958142157357300,7.773357421875,-1.5099022388458252,21.823923110961914,-13.03333568572998
1700958142174346800,7.7903466796875,0.6564264297485352,20.632078170776367,-9.003678321838379
1700958142191338800,7.8073388671875,6.0035295486450195,17.66667938232422,-1.234771728515625
1700958142208321000,7.824321044921875,8.483939170837402,14.638399124145508,5.174648284912109
1700958142225322800,7.84132275390625,6.469878196716309,13.1865816116333,8.070724487304688
1700958142242315300,7.858315185546875,2.894033193588257,14.876657485961914,11.769237518310547
1700958142259307000,7.87530712890625,4.718949317932129,18.026348114013672,20.222362518310547
1700958142276297200,7.892297119140625,10.39750862121582,18.46210289001465,29.718170166015625
1700958142293294300,7.90929443359375,10.363614082336426,16.895187377929688,34.478843688964844
1700958142310274000,7.926274169921875,4.324808597564697,13.004014015197754,38.10530090332031
1700958142327265500,7.943265625,2.0451884269714355,4.754868507385254,36.33000946044922
1700958142344266200,7.960266357421875,6.460813522338867,-6.092774868011475,28.88517189025879
1700958142361262300,7.977262451171875,15.124589920043945,-17.646020889282227,19.23626708984375
1700958142378252800,7.994252685546875,25.322067260742188,-26.430818557739258,10.49975872039795
1700958142395244500,8.01124462890625,25.969350814819336,-31.44590187072754,5.456754207611084
1700958142412237000,8.028237060546875,16.515243530273438,-34.96751022338867,2.4629695415496826
1700958142429228800,8.045228759765624,6.872964859008789,-35.100345611572266,-1.3398149013519287
1700958142446208500,8.06220849609375,1.047910213470459,-32.997840881347656,-4.056591033935547
1700958142463212000,8.0792119140625,-0.09790611267089844,-30.340057373046875,-6.501033782958984
1700958142480196000,8.096196044921875,4.240612983703613,-28.216510772705078,-7.164551258087158
1700958142497200000,8.1132001953125,8.822312355041504,-26.292959213256836,-4.089949607849121
1700958142514190300,8.1301904296875,9.362972259521484,-24.541828155517578,2.584132671356201
1700958142531181800,8.147181884765626,6.642300605773926,-22.448148727416992,8.334375381469727
1700958142548167000,8.1641669921875,1.608504295349121,-19.38103485107422,10.628499984741211
1700958142565163800,8.181163818359375,-4.212995529174805,-17.454992294311523,11.037017822265625
1700958142582156500,8.198156494140624,-6.328394412994385,-12.22741413116455,7.631275653839111
1700958142599153000,8.21515283203125,-2.3355765342712402,-2.626406669616699,15.781912803649902
1700958142616139000,8.232138916015625,-3.492295742034912,5.016193389892578,42.78705978393555
1700958142633133600,8.249133544921875,-0.47271156311035156,12.681235313415527,55.3382453918457
1700958142650123300,8.266123291015624,7.046904563903809,19.97300910949707,41.5418701171875
1700958142667108900,8.28310888671875,10.280043601989746,21.75989532470703,28.009437561035156
1700958142684106000,8.30010595703125,8.263626098632812,19.45623207092285,17.492406845092773
1700958142701100500,8.3171005859375,6.129766464233398,18.026731491088867,4.319375991821289
1700958142718091300,8.33409130859375,5.32570743560791,18.467079162597656,-7.270455837249756
1700958142735084500,8.35108447265625,2.027996063232422,20.056554794311523,-13.76378059387207
1700958142752075300,8.3680751953125,-0.9836380481719971,21.606355667114258,-13.76717472076416
1700958142769070600,8.385070556640626,-2.3865983486175537,21.87051010131836,-7.180643558502197
1700958142786057200,8.40205712890625,-2.6982057094573975,20.02597999572754,0.23001575469970703
1700958142803048700,8.419048583984376,-1.6659541130065918,17.783348083496094,-0.3196249008178711
1700958142820039700,8.436039794921875,-0.5627102851867676,14.141563415527344,-2.025084972381592
1700958142837039400,8.453039306640624,0.6307945251464844,9.765830993652344,-2.113644599914551
1700958142854023700,8.470023681640624,1.5674394369125366,6.436226844787598,-1.712353229522705
1700958142871022800,8.48702294921875,3.4201624393463135,4.68746280670166,1.7648258209228516
1700958142888021500,8.504021484375,4.105822563171387,4.28316593170166,9.143853187561035
1700958142905009700,8.521009765625,3.9675889015197754,3.618870258331299,18.108478546142578
1700958142921999600,8.53799951171875,4.182363986968994,5.093376636505127,24.04465103149414
1700958142938996500,8.55499658203125,0.9181602001190186,1.8271660804748535,28.90398406982422
1700958142955978200,8.571978271484374,-4.2217912673950195,-2.472731590270996,29.07146644592285
1700958142972978400,8.588978515625,-7.034377098083496,-6.924172401428223,22.888338088989258
1700958142989971000,8.605970947265625,-3.844796657562256,-10.062262535095215,13.510618209838867
1700958143006960000,8.622960205078124,0.9834864139556885,-13.393786430358887,6.446849822998047
1700958143023958000,8.6399580078125,4.347867012023926,-16.56348419189453,1.448291301727295
1700958143040947200,8.656947265625,6.504706382751465,-18.497814178466797,-3.0585241317749023
1700958143057939500,8.673939453125,5.946538925170898,-19.372291564941406,-6.741575717926025
1700958143074931200,8.69093115234375,3.128260374069214,-19.942853927612305,-8.363188743591309
1700958143091927600,8.707927490234376,1.1641933917999268,-21.42112922668457,-7.179360389709473
1700958143108912400,8.724912353515625,0.614560604095459,-22.874353408813477,-6.12682580947876
1700958143125908500,8.741908447265626,2.569765567779541,-23.494930267333984,-7.120662212371826
1700958143142900200,8.758900146484375,4.8714728355407715,-23.233257293701172,-8.841209411621094
1700958143159892700,8.775892822265625,6.39035701751709,-22.378089904785156,-9.207099914550781
1700958143176884200,8.79288427734375,6.27739143371582,-21.88040542602539,-6.25687313079834
1700958143193877500,8.80987744140625,3.5020530223846436,-21.883468627929688,1.255871295928955
1700958143210869200,8.826869140625,-1.8904612064361572,-21.310832977294922,10.189337730407715
1700958143227861200,8.843861328125,-6.954809188842773,-13.844188690185547,8.561920166015625
1700958143244866000,8.860865966796876,-8.922691345214844,-7.059852600097656,17.036705017089844
1700958143261843700,8.87784375,-7.27745246887207,-6.352869987487793,43.1005973815918
1700958143278839600,8.894839599609375,3.3444111347198486,0.403911828994751,52.98603057861328
1700958143295830000,8.911830078125,14.642250061035156,10.153815269470215,32.8660774230957
1700958143312821500,8.928821533203125,12.728503227233887,13.5536470413208,13.707220077514648
1700958143329814300,8.945814208984375,1.6867992877960205,14.598830223083496,7.806299209594727
1700958143346803700,8.9628037109375,-5.082601547241211,14.754532814025879,6.542071342468262
1700958143363798800,8.979798828125,-1.2906270027160645,15.114031791687012,0.8186426162719727
1700958143380788000,8.9967880859375,6.080842971801758,15.179553031921387,-4.393527984619141
1700958143397785600,9.01378564453125,12.5383882522583,17.007156372070312,-8.705950736999512
1700958143414762500,9.030762451171874,12.706123352050781,19.402006149291992,-10.714298248291016
1700958143431767600,9.047767578125,6.178079128265381,19.855419158935547,-9.760205268859863
1700958143448756500,9.064756591796876,-1.6149952411651611,18.694766998291016,-7.9738874435424805
1700958143465754600,9.081754638671875,-6.328126907348633,16.984281539916992,-6.701218605041504
1700958143482743600,9.09874365234375,-4.113539695739746,14.883588790893555,-5.842024803161621
1700958143499733800,9.115733642578125,1.5901257991790771,12.087133407592773,-1.9677400588989258
1700958143516730400,9.13273046875,5.803338050842285,9.287830352783203,3.39687442779541
1700958143533719600,9.149719482421874,5.527464866638184,8.33765983581543,6.915580749511719
1700958143550713300,9.16671337890625,0.949230968952179,10.816883087158203,9.494321823120117
1700958143567705000,9.183705078125,-0.9942533373832703,15.341184616088867,16.592281341552734
1700958143584685600,9.200685546875,1.187732458114624,14.804763793945312,31.063823699951172
1700958143601689000,9.217689208984375,2.287644386291504,11.262591361999512,39.13200759887695
1700958143618681000,9.23468115234375,-1.1106992959976196,1.6068811416625977,37.415164947509766
1700958143635673300,9.25167333984375,-1.1488828659057617,-6.766351222991943,24.327272415161133
1700958143652665000,9.2686650390625,3.011855125427246,-13.562213897705078,11.676250457763672
1700958143669655800,9.28565576171875,5.543972492218018,-19.009258270263672,3.205522060394287
1700958143686649600,9.302649658203125,3.7471323013305664,-23.315282821655273,-2.3138673305511475
1700958143703644700,9.319644775390625,0.13630545139312744,-25.937908172607422,-7.754847526550293
1700958143720634000,9.336634033203126,-0.5012673139572144,-27.159481048583984,-10.090036392211914
1700958143737623800,9.353623779296875,2.0792624950408936,-29.033679962158203,-8.227509498596191
1700958143754618000,9.3706181640625,6.533788204193115,-30.331649780273438,-6.460493087768555
1700958143771611100,9.387611083984375,9.034697532653809,-29.72435760498047,-5.3242597579956055
1700958143788603000,9.404602783203124,7.35943603515625,-27.845108032226562,-4.57297420501709
1700958143805595400,9.421595458984376,2.832488536834717,-24.699810028076172,-5.959746360778809
1700958143822587100,9.438587158203125,-1.3341050148010254,-22.710872650146484,-5.335658073425293
1700958143839579600,9.45557958984375,-3.152822971343994,-21.79239273071289,-1.6744680404663086
1700958143856571100,9.472571044921875,-4.13750696182251,-21.898666381835938,8.773323059082031
1700958143873564000,9.48956396484375,-2.3946807384490967,-20.515621185302734,20.47480010986328
1700958143890555600,9.5065556640625,0.2554053068161011,-7.568212509155273,18.288015365600586
1700958143907545900,9.5235458984375,-5.260876178741455,3.0709774494171143,28.96731185913086
1700958143924542700,9.540542724609375,-6.717929840087891,5.133181571960449,51.85922622680664
1700958143941533000,9.557532958984375,4.302363872528076,8.313693046569824,51.53093338012695
1700958143958524400,9.5745244140625,14.842705726623535,13.464225769042969,28.865123748779297
1700958143975506700,9.591506591796875,11.803755760192871,14.10689640045166,9.14603042602539
1700958143992509000,9.608509033203125,4.333108901977539,14.217111587524414,0.05856513977050781
1700958144009501700,9.625501708984375,0.5493786931037903,16.17201042175293,-3.093216896057129
1700958144026483000,9.64248291015625,-0.6184474229812622,18.317731857299805,-3.373988628387451
1700958144043485700,9.659485595703124,-0.5077759027481079,19.666027069091797,-1.6095304489135742
1700958144060475100,9.67647509765625,-0.420637845993042,21.077322006225586,-4.503915309906006
1700958144077472800,9.69347265625,-1.6932759284973145,21.800874710083008,-9.56135368347168
1700958144094461700,9.710461669921875,-2.4442355632781982,20.62877082824707,-11.442803382873535
1700958144111454500,9.727454345703125,-1.8005938529968262,18.04873275756836,-11.199262619018555
1700958144128435500,9.744435546875,-0.20450860261917114,15.41242790222168,-8.027772903442383
1700958144145439000,9.76143896484375,1.6796972751617432,12.706212997436523,-2.808363437652588
1700958144162430500,9.778430419921875,3.0846304893493652,10.989197731018066,2.1231184005737305
1700958144179423500,9.795423583984375,3.0263495445251465,11.283761978149414,6.736101150512695
1700958144196414700,9.812414794921875,1.5876820087432861,10.153109550476074,13.986448287963867
1700958144213407700,9.82940771484375,4.2237396240234375,9.833868026733398,18.82889175415039
1700958144230399500,9.8463994140625,8.689423561096191,10.782276153564453,21.979246139526367
1700958144247392000,9.86339208984375,8.147326469421387,8.316896438598633,25.814491271972656
1700958144264389000,9.88038916015625,3.8147265911102295,4.634415626525879,27.493011474609375
1700958144281377800,9.897377685546875,-1.4596071243286133,-0.020200729370117188,26.33171844482422
1700958144298368000,9.914367919921874,-2.7020134925842285,-7.356112480163574,23.837047576904297
1700958144315361800,9.93136181640625,2.3376994132995605,-15.468717575073242,17.49245262145996
1700958144332352300,9.948352294921875,9.162368774414062,-21.393144607543945,7.527673721313477
1700958144349345000,9.965344970703125,14.290925025939941,-24.530750274658203,-0.9812778234481812
1700958144366326500,9.982326416015624,12.691361427307129,-27.51962661743164,-4.331262588500977
1700958144383329300,9.999329345703124,6.1881608963012695,-29.033954620361328,-4.81353759765625
1700958144400321000,10.016321044921876,1.9501135349273682,-28.82986068725586,-3.3973474502563477
1700958144417313500,10.0333134765625,1.5316760540008545,-28.453662872314453,-1.1577527523040771
1700958144434305500,10.050305419921875,3.4786229133605957,-27.645877838134766,-1.3419584035873413
1700958144451298300,10.06729833984375,6.079867362976074,-25.829355239868164,-3.181460380554199
1700958144468287200,10.084287353515625,6.59298038482666,-23.77756118774414,-2.9487290382385254
1700958144485285000,10.10128515625,4.846606731414795,-22.10997772216797,0.6280555725097656
1700958144502267600,10.118267578125,1.4551081657409668,-20.55010986328125,7.253090858459473
1700958144519267000,10.13526708984375,-2.848109245300293,-18.504669189453125,14.196514129638672
1700958144536258300,10.15225830078125,-3.735393524169922,-15.079792022705078,17.117788314819336
1700958144553251000,10.1692509765625,0.3396749496459961,-6.354244709014893,12.6935396194458
1700958144570242800,10.186242919921876,-3.508072853088379,2.7341651916503906,17.8123779296875
1700958144587235800,10.20323583984375,-7.402554988861084,4.756345748901367,35.36943817138672
1700958144604227000,10.22022705078125,-1.0824134349822998,8.297951698303223,49.166534423828125
1700958144621217300,10.23721728515625,10.198862075805664,14.379894256591797,45.224361419677734
1700958144638214000,10.2542138671875,16.450714111328125,18.513099670410156,24.120275497436523
1700958144655204000,10.2712041015625,13.014945983886719,17.12521743774414,8.943763732910156
1700958144672196000,10.288196044921875,5.577729225158691,14.537348747253418,2.2577638626098633
1700958144689188600,10.305188720703125,-0.6300342082977295,13.81669807434082,-2.915188789367676
1700958144706169600,10.322169677734376,-3.432739734649658,13.856547355651855,-6.703606605529785
1700958144723162400,10.339162353515626,-2.9325308799743652,12.984725952148438,-7.805081367492676
1700958144740164900,10.356164794921876,-0.946983814239502,12.401054382324219,-9.103012084960938
1700958144757157000,10.3731572265625,0.8382872343063354,12.654193878173828,-11.430583000183105
1700958144774149000,10.390149169921875,2.4597976207733154,13.045592308044434,-13.726702690124512
1700958144791141600,10.4071416015625,3.8225257396698,12.97252368927002,-14.087166786193848
1700958144808133400,10.42413330078125,3.9706156253814697,12.74952220916748,-11.170591354370117
1700958144825115400,10.441115478515625,3.312800884246826,13.038288116455078,-4.379758834838867
1700958144842116900,10.458116943359375,2.9471793174743652,13.426799774169922,3.648641586303711
1700958144859111200,10.475111083984375,2.7683844566345215,11.9835205078125,11.846076965332031
1700958144876102100,10.49210205078125,4.0027852058410645,11.21194839477539,12.863813400268555
1700958144893095000,10.509094970703124,6.538220405578613,12.172226905822754,13.208656311035156
1700958144910086400,10.52608642578125,8.113041877746582,11.286537170410156,20.917373657226562
1700958144927079000,10.543078857421875,5.746471881866455,9.080404281616211,26.315216064453125
1700958144944052700,10.560052734375,-0.8693141937255859,6.6140875816345215,26.824974060058594
1700958144961054500,10.577054443359375,-5.141876220703125,0.10961532592773438,27.258821487426758
1700958144978048800,10.594048828125,-0.8600265979766846,-10.150848388671875,23.175817489624023
1700958144995037000,10.611036865234375,7.894960403442383,-18.271757125854492,12.751890182495117
1700958145012031700,10.62803173828125,14.290994644165039,-22.746883392333984,2.548905372619629
1700958145029022500,10.6450224609375,11.736204147338867,-25.818696975708008,-3.3634214401245117
1700958145046015700,10.662015625,5.433438301086426,-27.61495590209961,-5.680736541748047
1700958145063016400,10.679016357421874,1.093360185623169,-28.15500259399414,-5.677411079406738
1700958145080001300,10.696001220703126,-0.7788362503051758,-27.949174880981445,-4.017149448394775
1700958145096998400,10.712998291015625,0.8985404968261719,-27.502174377441406,-2.1399381160736084
1700958145113995300,10.729995361328125,4.3102850914001465,-26.422183990478516,-0.0503544807434082
1700958145130985000,10.74698486328125,6.409029960632324,-24.386795043945312,0.2619810104370117
1700958145147976700,10.763976806640626,5.556326866149902,-22.190088272094727,0.7915410995483398
1700958145164961500,10.78096142578125,3.1173696517944336,-20.175914764404297,3.8152947425842285
1700958145181958400,10.79795849609375,-1.7344467639923096,-18.641368865966797,15.313329696655273
1700958145198956500,10.81495654296875,-5.8591532707214355,-14.646234512329102,25.139310836791992
1700958145215945700,10.83194580078125,-3.8568522930145264,-5.210555076599121,14.367033004760742
1700958145232938500,10.8489384765625,-5.361625671386719,6.255006790161133,7.3125386238098145
1700958145249930000,10.865929931640625,-6.943436622619629,5.076470851898193,27.755657196044922
1700958145266922500,10.882922607421875,3.3417208194732666,5.128629684448242,43.1772346496582
1700958145283914500,10.89991455078125,15.774348258972168,9.536994934082031,45.73952102661133
1700958145300907000,10.916906982421875,23.023649215698242,15.754176139831543,25.236108779907227
1700958145317898800,10.933898681640626,17.309593200683594,17.128232955932617,7.217151641845703
1700958145334891500,10.9508916015625,4.598382949829102,14.455117225646973,1.0345420837402344
1700958145351883000,10.967883056640625,-2.8519375324249268,13.16476058959961,-4.154582500457764
1700958145368875800,10.984875732421875,-3.0995585918426514,13.94432258605957,-10.184898376464844
1700958145385864200,11.0018642578125,1.1118665933609009,14.531700134277344,-11.96511173248291
1700958145402860300,11.0188603515625,5.863704681396484,15.595537185668945,-11.764517784118652
1700958145419851800,11.035851806640625,7.383382797241211,16.240583419799805,-10.276200294494629
1700958145436844500,11.052844482421875,4.949122905731201,15.560419082641602,-9.800617218017578
1700958145453825300,11.0698251953125,1.064657211303711,14.944366455078125,-10.567397117614746
1700958145470829300,11.086829345703125,-1.0772819519042969,14.561567306518555,-9.756354331970215
1700958145487820000,11.103820068359376,1.103896141052246,14.398703575134277,-5.140617370605469
1700958145504802600,11.120802490234375,4.143215179443359,13.944284439086914,3.2729101181030273
1700958145521802200,11.13780224609375,4.51505184173584,13.512798309326172,13.620392799377441
1700958145538800000,11.154800048828125,1.5828238725662231,13.156949996948242,17.36996841430664
1700958145555789000,11.1717890625,3.785963535308838,14.287309646606445,15.53475570678711
1700958145572782000,11.188781982421874,7.125386714935303,13.257899284362793,17.73084831237793
1700958145589774600,11.205774658203126,7.519947052001953,11.951376914978027,22.33538818359375
1700958145606765600,11.222765625,3.1908164024353027,10.645384788513184,24.93402862548828
1700958145623758000,11.239758056640625,-3.2295713424682617,6.0321502685546875,28.486820220947266
1700958145640749800,11.256749755859374,-3.475065231323242,-3.559926986694336,27.836057662963867
1700958145657743000,11.2737431640625,4.871645927429199,-12.515034675598145,18.603235244750977
1700958145674734800,11.29073486328125,12.46222972869873,-19.9302978515625,8.357705116271973
1700958145691726800,11.307726806640625,15.499198913574219,-24.543201446533203,0.9805377721786499
1700958145708719400,11.32471923828125,12.534013748168945,-27.639257431030273,-1.4680694341659546
1700958145725711000,11.341711181640624,6.617280006408691,-29.855928421020508,-0.34235280752182007
1700958145742703900,11.358703857421874,2.9575071334838867,-31.568988800048828,2.3750298023223877
1700958145759695400,11.3756953125,2.07375168800354,-32.43954849243164,3.356778621673584
1700958145776687900,11.39268798828125,3.6780853271484375,-30.311851501464844,-0.40250086784362793
1700958145793679600,11.4096796875,5.7272748947143555,-27.81244659423828,-2.760317087173462
1700958145810672400,11.42667236328125,6.983034133911133,-26.689916610717773,0.9584431648254395
1700958145827665400,11.44366552734375,5.17617654800415,-25.585525512695312,8.915779113769531
1700958145844641300,11.460641357421874,1.5193967819213867,-23.151960372924805,15.172676086425781
1700958145861644300,11.477644287109374,-3.3568859100341797,-20.419376373291016,18.705774307250977
1700958145878641400,11.494641357421875,-4.149134159088135,-15.315388679504395,17.464317321777344
1700958145895633000,11.5116328125,-1.7300691604614258,-5.0611090660095215,14.175200462341309
1700958145912625400,11.52862548828125,-1.7369239330291748,2.1458449363708496,31.032363891601562
1700958145929617700,11.54561767578125,0.3786802291870117,5.870536804199219,56.44628143310547
1700958145946599000,11.562598876953125,12.927948951721191,14.957935333251953,55.68641662597656
1700958145963588600,11.579588623046876,17.965742111206055,22.057130813598633,32.43669128417969
1700958145980584000,11.596583984375,11.338315963745117,21.51119041442871,14.730191230773926
1700958145997588500,11.61358837890625,3.457794427871704,18.2047119140625,7.005396842956543
1700958146014578400,11.630578369140625,0.9682880640029907,16.407196044921875,-0.9294252395629883
1700958146031570400,11.6475703125,1.4948689937591553,15.810419082641602,-7.496828079223633
1700958146048560600,11.664560546875,2.092308759689331,15.912094116210938,-10.13006591796875
1700958146065557000,11.681556884765625,2.279677152633667,17.625141143798828,-10.664931297302246
1700958146082547500,11.69854736328125,0.7667746543884277,19.51233673095703,-8.928464889526367
1700958146099539200,11.715539306640625,0.014841079711914062,20.358129501342773,-8.993581771850586
1700958146116520400,11.7325205078125,1.176233172416687,19.933231353759766,-11.3158597946167
1700958146133516000,11.74951611328125,3.328913450241089,18.996809005737305,-11.677928924560547
1700958146150509000,11.766509033203125,4.302495002746582,17.96554946899414,-6.9552154541015625
1700958146167498500,11.78349853515625,4.07498836517334,16.886335372924805,1.6423559188842773
1700958146184489700,11.80048974609375,1.7529888153076172,14.849925994873047,8.939860343933105
1700958146201482000,11.81748193359375,-2.2250683307647705,13.240318298339844,14.216032028198242
1700958146218476000,11.83447607421875,-1.4812376499176025,12.684953689575195,14.775911331176758
1700958146235474200,11.85147412109375,5.077694416046143,15.482881546020508,19.529813766479492
1700958146252457500,11.86845751953125,9.224579811096191,13.714296340942383,28.117862701416016
1700958146269456100,11.8854560546875,9.121484756469727,12.04660415649414,33.8780517578125
1700958146286444000,11.902444091796875,4.015229225158691,7.029382705688477,34.325340270996094
1700958146303442200,11.919442138671876,-0.07998275756835938,-1.3954195976257324,29.69887351989746
1700958146320431900,11.936431884765625,1.7335073947906494,-11.371684074401855,23.382333755493164
1700958146337419500,11.95341943359375,8.725353240966797,-21.830032348632812,14.908773422241211
1700958146354420500,11.97042041015625,14.719698905944824,-28.202924728393555,5.575666427612305
1700958146371413800,11.987413818359375,13.805252075195312,-30.91790771484375,-0.8797404766082764
1700958146388406800,12.00440673828125,8.806381225585938,-32.318233489990234,-2.864170789718628
1700958146405398300,12.021398193359374,4.53619909286499,-32.74460220336914,-2.575148582458496
1700958146422391000,12.03839111328125,1.5815033912658691,-32.715084075927734,-0.14670026302337646
1700958146439372300,12.055372314453125,1.478571891784668,-31.762062072753906,1.8019051551818848
1700958146456375300,12.072375244140625,3.559603214263916,-29.6083927154541,0.38263869285583496
1700958146473367300,12.0893671875,6.666563510894775,-27.881736755371094,-1.5115621089935303
1700958146490359800,12.10635986328125,5.592173099517822,-27.087932586669922,1.042330265045166
1700958146507340800,12.1233408203125,-1.0843439102172852,-25.51641273498535,9.943153381347656
1700958146524341500,12.140341552734375,-7.354758262634277,-22.22142219543457,17.281850814819336
1700958146541348900,12.157348876953124,-6.797488689422607,-18.55134391784668,17.674179077148438
1700958146558328300,12.174328369140625,-3.9712777137756348,-14.732110023498535,17.271976470947266
1700958146575320000,12.191320068359374,-4.559032440185547,-3.25355863571167,19.009979248046875
1700958146592313000,12.20831298828125,-6.428173065185547,4.717968463897705,44.5284538269043
1700958146609304600,12.2253046875,-6.927205562591553,9.39583683013916,71.97015380859375
1700958146626286800,12.242286865234375,7.868075847625732,17.702869415283203,52.46908187866211
1700958146643289000,12.2592890625,20.835430145263672,20.94583511352539,23.905338287353516
1700958146660279600,12.276279541015626,13.210086822509766,16.93434715270996,11.508498191833496
1700958146677275400,12.293275390625,4.712395668029785,14.909917831420898,3.513721466064453
1700958146694265900,12.310265869140625,1.770362138748169,14.9861421585083,-4.612451553344727
1700958146711255000,12.327255126953125,2.9450199604034424,16.063871383666992,-7.410919189453125
1700958146728252700,12.344252685546875,6.108320713043213,17.26563262939453,-7.239681720733643
1700958146745242000,12.3612421875,8.311420440673828,18.97038459777832,-7.7945637702941895
1700958146762235000,12.37823486328125,7.985652923583984,19.297557830810547,-9.497699737548828
1700958146779226400,12.395226318359375,4.961026191711426,19.42047882080078,-13.738777160644531
1700958146796217600,12.412217529296875,0.4040210247039795,19.206254959106445,-15.614055633544922
1700958146813212200,12.429212158203125,-0.5779504776000977,19.20382308959961,-12.393223762512207
1700958146830203400,12.446203369140624,3.5023465156555176,18.033464431762695,-1.7760510444641113
1700958146847195100,12.463195068359376,5.1806535720825195,15.904038429260254,11.603766441345215
1700958146864188000,12.48018798828125,3.7152132987976074,11.526030540466309,17.007144927978516
1700958146881175300,12.49717529296875,2.962916612625122,9.606359481811523,13.561097145080566
1700958146898176500,12.514176513671876,3.1306185722351074,10.9552001953125,15.74055290222168
1700958146915164000,12.531163818359374,3.2351458072662354,11.80617618560791,24.871990203857422
1700958146932152300,12.54815234375,1.94136643409729,10.409000396728516,30.93802261352539
1700958146949152500,12.565152587890625,-2.575697422027588,7.2393598556518555,31.906978607177734
1700958146966136600,12.582136474609374,-4.183061599731445,-0.6578197479248047,32.60603713989258
1700958146983127800,12.5991279296875,5.072426795959473,-12.45511245727539,27.45758628845215
1700958147000130000,12.616130126953125,16.117469787597656,-21.13050079345703,16.46797752380371
1700958147017117000,12.633116943359376,20.169200897216797,-26.33075523376465,6.723824501037598
1700958147034109700,12.650109619140625,13.623960494995117,-29.894962310791016,0.6658012866973877
1700958147051101400,12.667101318359375,4.414472579956055,-30.621814727783203,-2.941772222518921
1700958147068095500,12.684095458984375,-1.8934850692749023,-29.706195831298828,-4.230486869812012
1700958147085081900,12.701081787109375,-2.66414737701416,-30.319072723388672,-1.8730533123016357
1700958147102081000,12.7180810546875,1.8011527061462402,-30.75888442993164,-1.5138088464736938
1700958147119060000,12.73506005859375,6.673514366149902,-29.432907104492188,-2.5642013549804688
1700958147136058400,12.752058349609374,8.66154670715332,-27.714702606201172,-1.6799225807189941
1700958147153059000,12.76905908203125,6.276391983032227,-26.56425666809082,0.6371645927429199
1700958147170053400,12.786053466796876,-0.04584455490112305,-25.97330093383789,6.389987945556641
1700958147187039000,12.8030390625,-8.284427642822266,-24.064956665039062,15.687545776367188
1700958147204019000,12.82001904296875,-9.51142692565918,-20.004074096679688,21.360904693603516
1700958147221019600,12.83701953125,-2.204530954360962,-10.239812850952148,17.53457260131836
1700958147238018600,12.8540185546875,0.021559715270996094,-0.24992847442626953,22.952072143554688
1700958147255007500,12.871007568359374,-2.2876501083374023,2.332371234893799,50.20211410522461
1700958147272000300,12.888000244140626,-0.15103864669799805,7.979267120361328,66.42781066894531
1700958147288992300,12.9049921875,8.905007362365723,17.312410354614258,45.17001724243164
1700958147305981000,12.92198095703125,9.82866096496582,19.379512786865234,20.194360733032227
1700958147322977300,12.938977294921875,3.8235762119293213,16.665468215942383,8.181889533996582
1700958147339969500,12.955969482421875,2.377786636352539,15.227156639099121,0.35405635833740234
1700958147356960000,12.9729599609375,4.401475429534912,16.00285530090332,-5.085875034332275
1700958147373953800,12.989953857421876,5.6200456619262695,17.130373001098633,-5.888784408569336
1700958147390945300,13.0069453125,5.941076278686523,18.400657653808594,-6.399819374084473
1700958147407937800,13.023937744140625,4.105541229248047,19.231035232543945,-8.61804485321045
1700958147424929500,13.040929443359374,1.6675339937210083,19.042081832885742,-11.759149551391602
1700958147441919500,13.05791943359375,0.23190951347351074,18.493650436401367,-14.574734687805176
1700958147458916600,13.07491650390625,0.778618335723877,18.141536712646484,-12.902737617492676
1700958147475906600,13.091906494140625,3.206022262573242,18.17559051513672,-8.200437545776367
1700958147492898000,13.10889794921875,4.682697296142578,17.48980712890625,-1.813192367553711
1700958147509881900,13.1258818359375,4.58389949798584,16.43396759033203,3.8950586318969727
1700958147526884600,13.142884521484374,3.1077771186828613,14.403329849243164,8.312542915344238
1700958147543873500,13.15987353515625,1.1851385831832886,12.222890853881836,10.655293464660645
1700958147560860000,13.17685986328125,5.510809898376465,12.159396171569824,14.386431694030762
1700958147577859800,13.19385986328125,10.551148414611816,9.536598205566406,22.08479118347168
1700958147594851600,13.2108515625,10.69449234008789,9.817846298217773,26.28668975830078
1700958147611835400,13.22783544921875,6.728208541870117,7.420831680297852,35.56917190551758
1700958147628835800,13.2448359375,2.8744957447052,-2.429844856262207,45.42485427856445
1700958147645828000,13.261828125,5.506664276123047,-14.06473445892334,33.38582229614258
1700958147662820600,13.278820556640625,12.734521865844727,-22.657691955566406,14.995676040649414
1700958147679812900,13.295812744140624,16.910457611083984,-27.062536239624023,3.140897750854492
1700958147696804600,13.3128046875,12.753375053405762,-29.306400299072266,-2.9067821502685547
1700958147713797000,13.329797119140625,6.7115092277526855,-29.43440818786621,-5.2056379318237305
1700958147730788900,13.346788818359375,4.046075820922852,-30.158958435058594,-4.318603515625
1700958147747781600,13.36378173828125,3.737119436264038,-30.842266082763672,-3.809903383255005
1700958147764763000,13.380762939453126,4.3154473304748535,-30.164525985717773,-5.451424598693848
1700958147781766000,13.397765869140626,5.571218490600586,-28.275447845458984,-6.664979457855225
1700958147798758100,13.414758056640625,6.529979228973389,-25.635238647460938,-6.302196502685547
1700958147815750400,13.43175048828125,6.105565547943115,-23.810274124145508,-2.19757342338562
1700958147832742000,13.448741943359375,2.3527040481567383,-22.65770149230957,5.836443901062012
1700958147849735000,13.46573486328125,-3.0634331703186035,-20.037473678588867,14.779593467712402
1700958147866726400,13.482726318359376,-7.401115894317627,-16.2990665435791,12.70490550994873
1700958147883719200,13.49971923828125,-4.963213920593262,-8.359735488891602,4.566839218139648
1700958147900711000,13.5167109375,0.9486277103424072,-3.5157032012939453,18.896652221679688
1700958147917701000,13.533701171875,3.4359335899353027,-0.7237228155136108,50.45686721801758
1700958147934697700,13.55069775390625,8.141148567199707,5.662327289581299,60.100791931152344
1700958147951688000,13.56768798828125,14.901106834411621,14.270153999328613,41.06449890136719
1700958147968679700,13.5846796875,13.800951957702637,18.188989639282227,18.025165557861328
1700958147985672400,13.60167236328125,7.506186485290527,15.89052963256836,8.829623222351074
1700958148002664000,13.618663818359375,3.569286823272705,13.8302001953125,1.3479728698730469
1700958148019656700,13.63565673828125,4.698599815368652,13.0225830078125,-7.1589250564575195
1700958148036648400,13.6526484375,7.080224990844727,13.734529495239258,-11.044148445129395
1700958148053641000,13.669640869140625,8.071975708007812,16.213592529296875,-11.457185745239258
1700958148070633000,13.686633056640625,6.064639091491699,18.878698348999023,-10.687106132507324
1700958148087628800,13.70362890625,2.281816005706787,20.50234603881836,-11.182090759277344
1700958148104595700,13.720595703125,-0.4809122085571289,21.530359268188477,-12.352616310119629
1700958148121609700,13.737609619140626,0.8841680288314819,21.814111709594727,-10.891105651855469
1700958148138601500,13.7546015625,3.521143913269043,20.867687225341797,-3.938871383666992
1700958148155593700,13.77159375,5.747494697570801,18.098421096801758,6.391071319580078
1700958148172586200,13.788586181640625,4.67586612701416,14.423883438110352,12.40697193145752
1700958148189568800,13.80556884765625,1.3216919898986816,11.979063034057617,13.337384223937988
1700958148206570200,13.8225703125,1.1909867525100708,11.815361022949219,15.469240188598633
1700958148223562800,13.839562744140625,7.739264965057373,11.761089324951172,22.013072967529297
1700958148240552000,13.856552001953125,11.987316131591797,8.002222061157227,30.81195640563965
1700958148257549800,13.8735498046875,5.639854431152344,6.042745113372803,32.293487548828125
1700958148274538800,13.890538818359374,-5.269404411315918,1.1247830390930176,34.15886688232422
1700958148291531800,13.90753173828125,-2.098414182662964,-9.03486442565918,30.772083282470703
1700958148308523500,13.9245234375,12.756174087524414,-18.821754455566406,17.39567756652832
1700958148325516300,13.941516357421875,22.902978897094727,-23.743022918701172,4.792747497558594
1700958148342519000,13.95851904296875,19.20111656188965,-26.56484603881836,-1.3729572296142578
1700958148359500500,13.97550048828125,8.121101379394531,-27.829959869384766,-2.829970598220825
1700958148376492000,13.992491943359376,1.0387299060821533,-26.63285255432129,-3.153017520904541
1700958148393485000,14.009485107421876,-0.4195747375488281,-26.42575454711914,-1.2942477464675903
1700958148410476800,14.026476806640625,2.6942460536956787,-27.60129737854004,-0.21165704727172852
1700958148427457300,14.043457275390624,7.2495622634887695,-27.529558181762695,-1.895196795463562
1700958148444450300,14.0604501953125,9.477445602416992,-26.087543487548828,-4.484858989715576
1700958148461445400,14.0774453125,8.425241470336914,-24.64139747619629,-4.461727142333984
1700958148478436000,14.09443603515625,5.376060962677002,-23.847497940063477,-0.34281253814697266
1700958148495431700,14.111431640625,0.027714252471923828,-22.85634994506836,7.792713642120361
1700958148512421400,14.12842138671875,-4.627450466156006,-20.44903564453125,17.246864318847656
1700958148529412900,14.145412841796874,-3.5601935386657715,-14.195281028747559,15.58077621459961
1700958148546406700,14.16240673828125,2.1294071674346924,-3.4476370811462402,9.671549797058105
1700958148563408600,14.17940869140625,-0.04887676239013672,-0.4279015064239502,23.329713821411133
1700958148580395000,14.19639501953125,-0.43799829483032227,3.0188448429107666,45.35467529296875
1700958148597392400,14.213392333984375,4.471740245819092,10.058591842651367,57.98241424560547
1700958148614372000,14.2303720703125,10.0114107131958,18.082576751708984,39.864845275878906
1700958148631375600,14.247375732421874,7.8622541427612305,19.5107479095459,17.095985412597656
1700958148648367400,14.264367431640625,2.099910259246826,17.574342727661133,5.390381813049316
1700958148665360000,14.28135986328125,0.3329129219055176,15.186033248901367,-1.3878974914550781
1700958148682351900,14.298351806640625,2.0907392501831055,14.102893829345703,-6.830024719238281
1700958148699344100,14.31534423828125,3.975219249725342,13.927101135253906,-9.564569473266602
1700958148716335900,14.3323359375,4.528130531311035,14.600995063781738,-10.133127212524414
1700958148733329000,14.349328857421876,3.6160314083099365,15.056327819824219,-10.708537101745605
1700958148750320400,14.3663203125,2.2025651931762695,14.555235862731934,-11.518956184387207
1700958148767310600,14.383310546875,0.5460081100463867,14.10693073272705,-12.752599716186523
1700958148784307500,14.400307373046875,0.15651988983154297,14.66143798828125,-12.727417945861816
1700958148801297400,14.41729736328125,2.4050745964050293,15.354893684387207,-8.599896430969238
1700958148818289200,14.4342890625,5.449215888977051,15.167465209960938,-0.5970392227172852
1700958148835279400,14.451279296875,5.402143478393555,14.179210662841797,7.694424629211426
1700958148852276000,14.46827587890625,2.885806083679199,12.300399780273438,13.432251930236816
1700958148869266400,14.485266357421875,1.5457088947296143,11.830060958862305,13.729413986206055
1700958148886247400,14.502247314453125,3.751472234725952,13.876472473144531,17.155858993530273
1700958148903256300,14.51925634765625,5.258563041687012,12.507194519042969,25.76259422302246
1700958148920239600,14.536239501953125,3.4704370498657227,10.713728904724121,29.05682373046875
1700958148937235500,14.5532353515625,-2.5718746185302734,7.338274955749512,30.783201217651367
1700958148954228700,14.570228759765625,-5.3468170166015625,-0.48133182525634766,28.921361923217773
1700958148971219200,14.58721923828125,2.096705913543701,-9.870028495788574,21.16189956665039
1700958148988200400,14.604200439453125,12.600687026977539,-18.2194766998291,11.307353019714355
1700958149005204000,14.621203857421875,18.138599395751953,-22.419614791870117,3.710881233215332
1700958149022194700,14.638194580078125,13.924683570861816,-25.819673538208008,1.1531898975372314
1700958149039189200,14.655189208984375,7.195188522338867,-27.490604400634766,0.6161524057388306
1700958149056180000,14.672179931640626,3.2835421562194824,-27.995405197143555,1.689683437347412
1700958149073172700,14.6891728515625,1.6219232082366943,-29.20895767211914,5.489847183227539
1700958149090164500,14.70616455078125,2.867607593536377,-29.384567260742188,6.189248561859131
1700958149107157000,14.723156982421875,4.585841178894043,-26.523242950439453,1.6901135444641113
1700958149124148700,14.740148681640624,5.615396499633789,-23.995098114013672,-2.011000156402588
1700958149141141500,14.7571416015625,5.399176120758057,-22.281566619873047,-1.8712385892868042
1700958149158135600,14.774135498046874,2.860173463821411,-21.670751571655273,2.770216941833496
1700958149175126000,14.7911259765625,0.21735906600952148,-20.185205459594727,13.054882049560547
1700958149192117200,14.8081171875,1.118669033050537,-15.499334335327148,20.39249038696289
1700958149209110300,14.8251103515625,4.36398458480835,-5.417392253875732,14.702372550964355
1700958149226115600,14.842115478515625,-0.5160284042358398,9.974528312683105,9.867352485656738
1700958149243089700,14.859089599609375,-11.132786750793457,12.717022895812988,28.908485412597656
1700958149260084000,14.876083984375,-10.715591430664062,12.195068359375,41.66423034667969
1700958149277081300,14.893081298828125,0.804877519607544,11.158795356750488,46.24620819091797
1700958149294069800,14.91006982421875,15.266580581665039,13.598654747009277,30.334625244140625
1700958149311064300,14.927064208984374,20.39258575439453,15.736705780029297,7.82288932800293
1700958149328052000,14.944052001953125,10.223421096801758,13.89821720123291,-3.052730083465576
1700958149345047800,14.9610478515625,-2.048318862915039,13.116512298583984,-7.546402931213379
1700958149362036700,14.97803662109375,-7.690884590148926,12.578009605407715,-11.315513610839844
1700958149379034600,14.99503466796875,-4.822400093078613,11.508400917053223,-11.931130409240723
1700958149396024000,15.012024169921874,-1.0361998081207275,11.246637344360352,-9.772266387939453
1700958149413016600,15.0290166015625,0.0028548240661621094,11.399970054626465,-10.391594886779785
1700958149430005800,15.046005859375,-0.017173290252685547,11.584720611572266,-13.61381721496582
1700958149447003600,15.063003662109375,-2.0175678730010986,12.059467315673828,-16.775136947631836
1700958149463981300,15.079981201171876,-3.4258697032928467,12.179546356201172,-16.656978607177734
1700958149480977400,15.096977294921874,1.1212241649627686,11.326791763305664,-9.548625946044922
1700958149497970000,15.113969970703126,10.993968963623047,13.449190139770508,2.3839120864868164
1700958149514969600,15.130969482421875,14.076948165893555,14.09278678894043,13.092694282531738
1700958149531959000,15.147958984375,13.784796714782715,14.546319961547852,16.560609817504883
1700958149548956700,15.164956787109375,13.570768356323242,15.064678192138672,15.779536247253418
1700958149565945900,15.18194580078125,8.552576065063477,12.724488258361816,20.852718353271484
1700958149582935600,15.198935546875,4.398627281188965,13.554176330566406,25.363468170166016
1700958149599933000,15.215932861328126,1.6465215682983398,8.204917907714844,34.61531448364258
1700958149616917200,15.232917236328126,3.3674349784851074,-2.9304981231689453,36.66825485229492
1700958149633900500,15.249900634765625,11.99964427947998,-12.095955848693848,23.454288482666016
1700958149650904600,15.266904541015625,15.898828506469727,-17.839157104492188,10.458910942077637
1700958149667892000,15.28389208984375,11.096054077148438,-23.35279083251953,4.628927230834961
1700958149684880000,15.3008798828125,2.981959104537964,-26.187591552734375,1.658137559890747
1700958149701877500,15.31787744140625,-3.01804256439209,-26.242202758789062,-1.2136027812957764
1700958149718866700,15.33486669921875,-3.3232593536376953,-26.60405731201172,-1.6256438493728638
1700958149735863800,15.35186376953125,0.6686596870422363,-27.736284255981445,-1.2031081914901733
1700958149752854000,15.36885400390625,4.042847156524658,-27.54348373413086,-2.5551815032958984
1700958149769844000,15.385843994140625,4.686376571655273,-25.932430267333984,-3.846630573272705
1700958149786836700,15.402836669921875,3.561422109603882,-23.64437484741211,-3.162288188934326
1700958149803832600,15.41983251953125,1.5260791778564453,-21.679607391357422,-0.10849189758300781
1700958149820825000,15.4368251953125,-0.133453369140625,-20.630290985107422,5.613766193389893
1700958149837813500,15.4538134765625,-1.6082520484924316,-19.151500701904297,11.695615768432617
1700958149854806300,15.47080615234375,-3.120083808898926,-14.031620025634766,10.032201766967773
1700958149871804200,15.48780419921875,-3.4011969566345215,-3.6970784664154053,5.781412124633789
1700958149888800800,15.50480078125,-5.636231422424316,3.3410167694091797,20.850582122802734
1700958149905787100,15.521787109375,-5.783535480499268,5.527503490447998,46.36888885498047
1700958149922782500,15.538782470703126,2.471317768096924,8.721007347106934,53.748661041259766
1700958149939771400,15.555771484375,13.547163009643555,13.81965446472168,34.6507568359375
1700958149956769500,15.57276953125,15.344080924987793,14.954570770263672,13.139813423156738
1700958149973758200,15.58975830078125,8.355165481567383,12.755560874938965,3.2046737670898438
1700958149990751200,15.606751220703124,3.4078807830810547,11.135788917541504,-2.771467685699463
1700958150007742700,15.62374267578125,2.8201889991760254,10.237293243408203,-8.124751091003418
1700958150024725000,15.64072509765625,4.637860298156738,10.28248119354248,-11.462159156799316
1700958150041727500,15.6577275390625,7.318199634552002,11.48392105102539,-12.204943656921387
1700958150058719700,15.6747197265625,9.065277099609375,13.012338638305664,-12.111089706420898
1700958150075711500,15.69171142578125,8.324712753295898,13.198699951171875,-11.553661346435547
1700958150092704300,15.708704345703126,4.652329444885254,12.792095184326172,-12.311522483825684
1700958150109683000,15.725682861328124,1.3196427822113037,13.193761825561523,-13.67715835571289
1700958150126691800,15.74269189453125,-0.259105920791626,12.98959732055664,-11.681281089782715
1700958150143680500,15.759680419921875,1.8070875406265259,12.22412395477295,-5.8845014572143555
1700958150160673300,15.77667333984375,5.3302106857299805,10.93312931060791,2.3508992195129395
1700958150177664800,15.793664794921876,7.388704299926758,10.580707550048828,9.81483268737793
1700958150194657800,15.81065771484375,7.264003276824951,12.043285369873047,11.909635543823242
1700958150211649000,15.82764892578125,7.696667671203613,16.09701919555664,15.397278785705566
1700958150228631600,15.844631591796874,6.63189172744751,14.528830528259277,23.199010848999023
1700958150245633500,15.861633544921874,6.416550636291504,15.930309295654297,25.871997833251953
1700958150262623700,15.878623779296875,-0.28688788414001465,12.223899841308594,32.54511642456055
1700958150279620400,15.895620361328126,-5.970617294311523,1.8052949905395508,34.76090621948242
1700958150296610600,15.912610595703125,-0.24950385093688965,-8.295881271362305,24.053808212280273
1700958150313602600,15.9296025390625,9.605752944946289,-15.255144119262695,10.974630355834961
1700958150330595000,15.946594970703124,14.363242149353027,-20.199668884277344,3.355865240097046
1700958150347586800,15.9635869140625,12.067537307739258,-24.43968391418457,1.1866437196731567
1700958150364563500,15.9805634765625,5.894984245300293,-27.4115047454834,0.6754084825515747
1700958150381571300,15.9975712890625,1.4916365146636963,-29.05670166015625,0.37665390968322754
1700958150398559500,16.0145595703125,0.08013200759887695,-29.97240447998047,0.21972250938415527
1700958150415558100,16.03155810546875,0.36121320724487305,-29.649017333984375,-2.1582884788513184
1700958150432548600,16.048548583984374,1.3913366794586182,-28.12735366821289,-5.1887712478637695
1700958150449537800,16.065537841796875,2.8328588008880615,-25.34490203857422,-6.40363073348999
1700958150466521600,16.082521484375,3.277489423751831,-24.132410049438477,-0.5768105983734131
1700958150483524400,16.0995244140625,3.3586487770080566,-23.92695426940918,8.426023483276367
1700958150500520700,16.116520751953125,3.5014753341674805,-21.355810165405273,14.344256401062012
1700958150517505800,16.133505859375,2.1492106914520264,-15.273761749267578,11.998294830322266
1700958150534501600,16.150501708984375,-1.9490070343017578,-3.2360568046569824,6.611893177032471
1700958150551490300,16.167490234375,-8.755465507507324,3.4583168029785156,19.747905731201172
1700958150568489200,16.1844892578125,-7.299765110015869,5.4066643714904785,47.1153678894043
1700958150585467400,16.20146728515625,3.6074705123901367,10.366597175598145,53.93366241455078
1700958150602470400,16.218470458984374,14.960739135742188,17.560916900634766,38.36167526245117
1700958150619462000,16.2354619140625,14.529562950134277,18.860477447509766,19.761104583740234
1700958150636454700,16.25245458984375,4.0626373291015625,15.525737762451172,7.960641860961914
1700958150653446400,16.2694462890625,-2.4028096199035645,12.440272331237793,-2.2029547691345215
1700958150670439400,16.286439453125,-2.2076239585876465,11.275093078613281,-9.759605407714844
1700958150687420200,16.303420166015623,1.1965339183807373,10.826496124267578,-11.398791313171387
1700958150704415200,16.320415283203126,4.704593181610107,11.64124870300293,-10.375564575195312
1700958150721415200,16.337415283203125,6.601188659667969,13.638055801391602,-10.45608139038086
1700958150738400300,16.354400146484377,5.273630619049072,14.591522216796875,-10.994575500488281
1700958150755403500,16.371403564453125,2.460718870162964,14.842535972595215,-13.714019775390625
1700958150772392400,16.388392333984374,0.516387939453125,15.433370590209961,-15.027495384216309
1700958150789381600,16.405381591796875,1.2911046743392944,15.906259536743164,-10.033435821533203
1700958150806382300,16.42238232421875,3.0303056240081787,14.85500717163086,0.5903825759887695
1700958150823368400,16.439368408203126,4.808197975158691,13.285603523254395,9.840902328491211
1700958150840358400,16.4563583984375,6.385491371154785,12.263082504272461,10.150373458862305
1700958150857355500,16.47335546875,7.812355995178223,13.621988296508789,10.764907836914062
1700958150874345500,16.490345458984375,8.803410530090332,13.6448335647583,17.552831649780273
1700958150891337200,16.507337158203125,9.618775367736816,11.920948028564453,23.999731063842773
1700958150908329700,16.524329833984375,5.512073993682861,10.451690673828125,28.298831939697266
1700958150925321700,16.54132177734375,-1.0440309047698975,4.997795104980469,33.4648551940918
1700958150942314500,16.558314453125,-1.153780221939087,-5.180380821228027,31.144189834594727
1700958150959306000,16.575305908203124,6.695937156677246,-13.160405158996582,18.572406768798828
1700958150976298800,16.592298828125,12.577590942382812,-18.871461868286133,6.872981071472168
1700958150993290200,16.609290283203126,12.476997375488281,-22.475303649902344,0.30594420433044434
1700958151010282800,16.62628271484375,6.671004295349121,-24.81266212463379,-1.5770437717437744
1700958151027275300,16.643275146484374,2.344348430633545,-26.27450180053711,-1.8441550731658936
1700958151044267800,16.660267822265624,1.9547581672668457,-27.52048110961914,-1.5917673110961914
1700958151061259300,16.67725927734375,3.7451326847076416,-28.448501586914062,-2.7307097911834717
1700958151078251800,16.694251708984375,5.457369804382324,-28.113872528076172,-4.706696033477783
1700958151095243800,16.711243896484376,5.651085376739502,-26.699993133544922,-4.970800399780273
1700958151112236500,16.728236572265626,3.4570817947387695,-24.270410537719727,-3.084825277328491
1700958151129228300,16.745228271484375,0.5199909210205078,-22.404815673828125,3.466831684112549
1700958151146210300,16.762210205078127,-0.9070730209350586,-21.288610458374023,11.60901927947998
1700958151163212500,16.779212646484375,-0.1957993507385254,-18.00370216369629,15.044660568237305
1700958151180203300,16.796203369140624,-1.5964016914367676,-8.485774040222168,9.872058868408203
1700958151197200400,16.813200439453126,-10.11445426940918,1.0380215644836426,15.989316940307617
1700958151214189600,16.830189453125,-11.806821823120117,2.117366313934326,37.76679611206055
1700958151231181300,16.847181396484373,3.9996895790100098,5.604570388793945,55.00249099731445
1700958151248173800,16.864173828125,17.704235076904297,14.687098503112793,44.97807693481445
1700958151265169000,16.8811689453125,16.3181095123291,16.95724105834961,22.06864356994629
1700958151282155000,16.898155029296873,6.808756351470947,14.807095527648926,7.231113433837891
1700958151299150000,16.915150146484375,-0.481874942779541,11.727306365966797,0.7318305969238281
1700958151316142800,16.932142822265625,-2.22621488571167,10.25055980682373,-5.5478715896606445
1700958151333131800,16.9491318359375,0.6508040428161621,9.430414199829102,-9.677876472473145
1700958151350130000,16.9661298828125,6.30655574798584,8.87905502319336,-10.4702787399292
1700958151367118800,16.983118896484374,11.449848175048828,10.229232788085938,-10.4976167678833
1700958151384108800,17.00010888671875,12.936163902282715,12.363033294677734,-9.845141410827637
1700958151401106000,17.01710595703125,9.813610076904297,14.326003074645996,-10.234792709350586
1700958151418095600,17.034095703125,4.308495044708252,16.39501953125,-12.154341697692871
1700958151435088000,17.051087890625,2.009276866912842,17.40133285522461,-11.414713859558105
1700958151452080600,17.06808056640625,3.8649353981018066,17.218595504760742,-6.255729675292969
1700958151469070300,17.0850703125,5.137049198150635,15.55581283569336,2.9672794342041016
1700958151486067000,17.10206689453125,4.7835283279418945,13.714315414428711,8.993621826171875
1700958151503056400,17.119056396484375,2.482684373855591,13.323468208312988,10.68740463256836
1700958151520049200,17.136049072265624,3.9538140296936035,16.713769912719727,13.771162033081055
1700958151537040600,17.15304052734375,6.531396865844727,15.250967979431152,21.747900009155273
1700958151554033400,17.170033447265624,8.076689720153809,14.087872505187988,25.347043991088867
1700958151571025400,17.187025390625,2.528886318206787,9.89845085144043,31.285099029541016
1700958151588018200,17.20401806640625,-2.2803397178649902,1.5339250564575195,36.32898712158203
1700958151605007000,17.221007080078124,1.1114966869354248,-9.013154029846191,30.48089599609375
1700958151622002400,17.23800244140625,10.18027400970459,-17.817394256591797,17.28483772277832
1700958151638996500,17.25499658203125,16.137775421142578,-23.17654800415039,6.85011100769043
1700958151655986700,17.271986572265625,14.288820266723633,-26.766155242919922,1.559719443321228
1700958151672978400,17.288978515625,7.90644645690918,-29.22406768798828,-0.24243497848510742
1700958151689971000,17.305970947265624,3.1296255588531494,-29.956119537353516,-1.6610991954803467
1700958151706963200,17.322963134765626,0.538240909576416,-29.816261291503906,-3.6701226234436035
1700958151723955700,17.339955810546876,0.9049057960510254,-29.492389678955078,-5.09706974029541
1700958151740947200,17.356947265625,2.6787946224212646,-28.686717987060547,-5.472991466522217
1700958151757940000,17.37393994140625,4.134931564331055,-26.83667755126953,-4.535906791687012
1700958151774931700,17.390931640625,5.113287925720215,-25.452465057373047,0.02791309356689453
1700958151791924200,17.40792431640625,4.7580766677856445,-24.259763717651367,8.226485252380371
1700958151808916000,17.424916015625,3.108473062515259,-20.807292938232422,15.384106636047363
1700958151825908700,17.44190869140625,-1.1929259300231934,-15.146739959716797,16.553794860839844
1700958151842900700,17.458900634765627,-5.517594814300537,-4.9981913566589355,11.763981819152832
1700958151859893000,17.47589306640625,-8.02450180053711,1.1584587097167969,19.85923957824707
1700958151876897300,17.492897216796877,-3.3080458641052246,3.028498411178589,41.40848922729492
1700958151893868000,17.509867919921874,5.540243625640869,7.29311990737915,54.44088363647461
1700958151910869200,17.526869140625,14.761457443237305,16.439674377441406,43.706390380859375
1700958151927851000,17.54385107421875,14.992755889892578,20.59516143798828,25.188804626464844
1700958151944842800,17.5608427734375,3.159576416015625,17.631166458129883,14.108142852783203
1700958151961844000,17.577843994140625,-5.008036136627197,13.5316743850708,4.075891494750977
1700958151978833400,17.59483349609375,-4.73056697845459,11.275732040405273,-6.868501663208008
1700958151995830800,17.611830810546873,0.028192520141601562,10.218914985656738,-12.116325378417969
1700958152012820200,17.6288203125,4.649468898773193,11.060473442077637,-12.888847351074219
1700958152029814000,17.64581396484375,7.146083354949951,12.911582946777344,-10.577845573425293
1700958152046797600,17.662797607421876,6.969736099243164,14.392301559448242,-7.284692764282227
1700958152063801900,17.6798017578125,3.631401538848877,15.305534362792969,-9.91978645324707
1700958152080791300,17.696791259765625,0.1341550350189209,16.09587287902832,-14.52971076965332
1700958152097784000,17.7137841796875,-1.5804057121276855,16.15746307373047,-13.352669715881348
1700958152114775800,17.73077587890625,0.37516021728515625,15.532760620117188,-5.795760631561279
1700958152131768600,17.7477685546875,2.5557613372802734,14.368593215942383,4.0240325927734375
1700958152148760300,17.76476025390625,3.356424331665039,13.07882308959961,10.95318603515625
1700958152165752800,17.7817529296875,2.1531128883361816,12.591400146484375,11.433671951293945
1700958152182744600,17.79874462890625,3.700515031814575,13.747342109680176,12.14227294921875
1700958152199737300,17.8157373046875,8.246490478515625,13.651805877685547,18.383888244628906
1700958152216729000,17.83272900390625,10.265266418457031,10.89163589477539,25.710861206054688
1700958152233721900,17.849721923828124,5.447182655334473,10.511312484741211,28.611225128173828
1700958152250713000,17.866713134765625,-2.8090481758117676,5.508184909820557,34.66658401489258
1700958152267707000,17.883706787109375,-3.54083251953125,-4.523879528045654,33.91951370239258
1700958152284700400,17.900700439453125,5.426520824432373,-13.415319442749023,21.838274002075195
1700958152301688300,17.917688232421874,14.586295127868652,-20.273040771484375,10.152854919433594
1700958152318667300,17.934667236328124,16.269140243530273,-23.816810607910156,2.9136524200439453
1700958152335665700,17.951665771484375,9.22323226928711,-26.574888229370117,0.4114248752593994
1700958152352664000,17.9686640625,2.513298749923706,-28.01571273803711,-1.1442242860794067
1700958152369662200,17.985662109375,1.782275676727295,-28.08765983581543,-3.1903724670410156
1700958152386651100,18.002651123046874,4.111254692077637,-29.074968338012695,-3.9544596672058105
1700958152403644000,18.019643798828124,6.961816310882568,-29.58294677734375,-4.317070007324219
1700958152420635400,18.036635498046873,7.277374267578125,-28.360607147216797,-4.601673126220703
1700958152437628200,18.053628173828123,5.685283184051514,-25.710346221923828,-3.1034657955169678
1700958152454620000,18.070619873046876,4.152956485748291,-23.108930587768555,2.52115535736084
1700958152471612700,18.08761279296875,2.7689993381500244,-20.08736801147461,12.79838752746582
1700958152488604200,18.104604248046876,1.647810697555542,-14.964436531066895,17.227828979492188
1700958152505593000,18.121593017578125,-0.2533226013183594,-8.989495277404785,14.76480770111084
1700958152522592500,18.138592529296876,-3.484001636505127,-0.2543659210205078,11.880935668945312
1700958152539572500,18.155572509765626,-6.777562141418457,4.2602996826171875,24.968095779418945
1700958152556573200,18.1725732421875,-3.928469657897949,6.661578178405762,47.13557434082031
1700958152573565700,18.189565673828124,7.090965747833252,12.265292167663574,47.401458740234375
1700958152590557400,18.206557373046873,14.313604354858398,16.692729949951172,29.183116912841797
1700958152607550500,18.223550537109375,10.986532211303711,16.26293182373047,14.951687812805176
1700958152624541700,18.240541748046876,2.48169207572937,13.779288291931152,7.660592079162598
1700958152641532000,18.257531982421874,-2.1690540313720703,11.325752258300781,0.5768861770629883
1700958152658527700,18.27452783203125,-1.791832447052002,10.020145416259766,-6.693414211273193
1700958152675520300,18.291520263671874,0.8151397705078125,10.189486503601074,-10.563508987426758
1700958152692511000,18.308510986328123,3.986035108566284,12.170221328735352,-11.691764831542969
1700958152709503500,18.32550341796875,5.7179274559021,14.81058120727539,-11.470884323120117
1700958152726485000,18.342485107421876,3.573197841644287,16.178144454956055,-8.921029090881348
1700958152743477200,18.359477294921874,-0.24389076232910156,16.42447280883789,-8.573752403259277
1700958152760482300,18.376482421875,-2.407559394836426,15.746113777160645,-9.583226203918457
1700958152777469700,18.3934697265625,-0.9893960952758789,14.052580833435059,-8.39561653137207
1700958152794464000,18.410464111328125,2.526705265045166,12.434364318847656,-4.120517253875732
1700958152811456500,18.42745654296875,3.626201629638672,10.853423118591309,3.063493251800537
1700958152828448500,18.444448486328124,2.8885529041290283,10.26395034790039,7.882779598236084
1700958152845441000,18.46144091796875,2.17547607421875,10.683252334594727,10.442676544189453
1700958152862433000,18.47843310546875,4.3811421394348145,12.844011306762695,13.038703918457031
1700958152879425500,18.495425537109377,6.922491073608398,11.941967010498047,19.853801727294922
1700958152896417300,18.512417236328126,7.442336559295654,11.064037322998047,23.174203872680664
1700958152913410000,18.52941015625,2.8728160858154297,8.759023666381836,27.837608337402344
1700958152930401800,18.54640185546875,-2.9086647033691406,2.1670918464660645,33.51821517944336
1700958152947394300,18.563394287109375,-1.7394886016845703,-6.748551368713379,28.464378356933594
1700958152964373200,18.580373291015626,6.066640853881836,-14.080760955810547,16.40920066833496
1700958152981369000,18.597369140625,12.096728324890137,-19.39756965637207,6.837727069854736
1700958152998362400,18.6143623046875,13.053058624267578,-21.98633575439453,1.0136778354644775
1700958153015365400,18.631365478515626,9.02049732208252,-23.313491821289062,-1.0300333499908447
1700958153032355000,18.64835498046875,4.533329010009766,-24.67346954345703,-0.8888392448425293
1700958153049347600,18.66534765625,4.043125152587891,-25.530912399291992,-2.1035616397857666
1700958153066339300,18.68233935546875,5.223867416381836,-25.79391098022461,-4.42650842666626
1700958153083332000,18.69933203125,5.761591911315918,-25.350543975830078,-6.3003740310668945
1700958153100330200,18.716330322265627,5.366866588592529,-24.114397048950195,-6.227858543395996
1700958153117313500,18.7333134765625,5.3091721534729,-22.463560104370117,-3.00285267829895
1700958153134304800,18.7503046875,5.055654525756836,-21.359411239624023,3.6734085083007812
1700958153151291000,18.767290771484376,3.0154638290405273,-19.346384048461914,10.71921157836914
1700958153168287000,18.784286865234375,-1.241058349609375,-14.474491119384766,12.109970092773438
1700958153185275100,18.801275146484375,-4.041305065155029,-4.930685043334961,9.829059600830078
1700958153202265600,18.818265625,-5.184521675109863,1.021202564239502,20.25531005859375
1700958153219262700,18.8352626953125,-0.988762378692627,3.824888229370117,39.55317687988281
1700958153236256300,18.85225634765625,5.824362277984619,8.632139205932617,46.54259490966797
1700958153253250800,18.869250732421875,9.643829345703125,14.82015609741211,34.58485412597656
1700958153270242000,18.886241943359376,7.497189521789551,17.49363136291504,18.90174102783203
1700958153287226400,18.903226318359376,0.917332649230957,15.52642822265625,9.589951515197754
1700958153304226800,18.920226806640624,-1.9852485656738281,13.167078018188477,2.3206982612609863
1700958153321218000,18.937218017578125,-0.2803936004638672,11.636861801147461,-4.259108066558838
1700958153338206700,18.954206787109374,2.61909818649292,10.9013032913208,-7.40662956237793
1700958153355197700,18.97119775390625,4.704345703125,10.672218322753906,-7.314867973327637
1700958153372200200,18.9882001953125,5.47221565246582,10.95224380493164,-7.213021278381348
1700958153389191700,19.005191650390625,4.6616950035095215,11.297036170959473,-8.528753280639648
1700958153406173000,19.0221728515625,2.4122190475463867,11.671875953674316,-11.782205581665039
1700958153423173600,19.039173583984375,0.9874248504638672,11.702282905578613,-14.093489646911621
1700958153440169700,19.056169677734374,1.5189802646636963,11.392899513244629,-12.855649948120117
1700958153457161000,19.073160888671875,3.6266725063323975,10.478245735168457,-7.640538215637207
1700958153474152000,19.09015185546875,5.129857063293457,9.399886131286621,0.17455673217773438
1700958153491136000,19.107135986328124,5.588756561279297,8.873685836791992,4.3377685546875
1700958153508136700,19.12413671875,5.219112873077393,10.53955078125,5.693496227264404
1700958153525119000,19.141118896484375,5.558478355407715,13.431449890136719,9.626806259155273
1700958153542121000,19.158120849609375,7.1906538009643555,14.60897159576416,16.63268280029297
1700958153559114000,19.175114013671877,6.5965118408203125,15.52841567993164,24.337696075439453
1700958153576092700,19.1920927734375,0.7859525680541992,11.167730331420898,36.917633056640625
1700958153593088300,19.209088134765626,-3.9798665046691895,2.440347671508789,38.655860900878906
1700958153610092300,19.22609228515625,-0.19641590118408203,-6.035307884216309,26.559324264526367
1700958153627082500,19.24308251953125,6.253735542297363,-12.430761337280273,13.91044807434082
1700958153644074500,19.260074462890625,10.060598373413086,-17.31402587890625,7.178306579589844
1700958153661067000,19.27706689453125,10.039976119995117,-20.321706771850586,3.428541421890259
1700958153678057200,19.29405712890625,7.285120964050293,-22.515920639038086,1.1570062637329102
1700958153695051500,19.311051513671874,6.0288262367248535,-24.46511459350586,-0.7006406784057617
1700958153712043000,19.32804296875,6.3214006423950195,-25.29855728149414,-3.5956735610961914
1700958153729031700,19.34503173828125,6.403142929077148,-25.381437301635742,-6.055350303649902
1700958153746020000,19.36202001953125,5.586266040802002,-25.211162567138672,-6.72533655166626
1700958153763021600,19.379021484375,4.288840293884277,-24.196670532226562,-5.527205467224121
1700958153780012000,19.396011962890626,3.8763904571533203,-22.34444808959961,-2.494030714035034
1700958153797004500,19.413004638671875,4.731299877166748,-21.14714813232422,1.9591777324676514
1700958153813996300,19.429996337890625,5.580561637878418,-19.449636459350586,6.6077961921691895
1700958153831001600,19.447001708984374,2.1228067874908447,-17.16737937927246,7.588740348815918
1700958153847970000,19.463969970703126,-5.252147674560547,-11.965187072753906,4.568302154541016
1700958153864973600,19.4809736328125,-6.936144828796387,-2.384021520614624,6.636050701141357
1700958153881962800,19.497962646484375,-7.09937858581543,1.1139869689941406,27.779375076293945
1700958153898960400,19.51496044921875,-6.4355854988098145,3.493337392807007,51.574920654296875
1700958153915949800,19.53194970703125,3.1090993881225586,8.918559074401855,44.459835052490234
1700958153932942300,19.5489423828125,10.856870651245117,14.60956859588623,23.091142654418945
1700958153949934000,19.56593408203125,8.190210342407227,14.271055221557617,13.549613952636719
1700958153966926800,19.5829267578125,1.9080028533935547,10.954805374145508,10.548873901367188
1700958153983918600,19.599918701171877,-0.39356422424316406,8.781295776367188,3.5154452323913574
1700958154000911000,19.6169111328125,0.8594036102294922,7.128029823303223,-2.283973217010498
1700958154017902800,19.63390283203125,3.4762134552001953,6.63720703125,-5.853092193603516
1700958154034896000,19.650895751953126,5.167099475860596,7.032373905181885,-7.936112880706787
1700958154051895800,19.667895751953125,6.552506923675537,8.728041648864746,-8.956958770751953
1700958154068880000,19.6848798828125,6.07026481628418,10.222173690795898,-8.609399795532227
1700958154085871900,19.701871826171875,4.565540313720703,11.405421257019043,-8.763493537902832
1700958154102864600,19.71886474609375,3.670011520385742,12.1729736328125,-9.933096885681152
1700958154119856400,19.7358564453125,4.034092903137207,12.023558616638184,-9.66225528717041
1700958154136849200,19.75284912109375,5.911495685577393,11.220808029174805,-6.816833972930908
1700958154153840600,19.769840576171877,7.394889831542969,10.327802658081055,-2.800868511199951
1700958154170833200,19.786833251953126,7.4217529296875,10.256681442260742,1.3765134811401367
1700958154187825200,19.8038251953125,7.364725112915039,13.004536628723145,4.757873058319092
1700958154204807200,19.82080712890625,7.287255764007568,16.41935157775879,11.656862258911133
1700958154221811200,19.837811279296876,7.2202558517456055,15.898775100708008,22.743534088134766
1700958154238800400,19.85480029296875,8.277276992797852,18.44656753540039,27.654071807861328
1700958154255794200,19.871794189453126,4.937661170959473,15.980545043945312,36.419464111328125
1700958154272786400,19.888786376953124,2.4854798316955566,8.050437927246094,41.92627716064453
1700958154289767000,19.905766845703123,4.671243190765381,-1.4107985496520996,36.35818862915039
1700958154306771000,19.92277099609375,6.5262556076049805,-10.078437805175781,25.627046585083008
1700958154323763000,19.939762939453125,6.975523471832275,-14.372031211853027,16.438518524169922
1700958154340744700,19.95674462890625,6.488725662231445,-17.066492080688477,11.609234809875488
1700958154357747200,19.973747314453124,6.382519721984863,-19.618024826049805,8.748603820800781
1700958154374739700,19.99073974609375,6.496391296386719,-22.40686798095703,6.924098968505859
1700958154391731500,20.0077314453125,5.303655624389648,-24.30554962158203,4.089984893798828
1700958154408722000,20.024721923828125,3.4305977821350098,-25.019712448120117,-0.08791029453277588
1700958154425718300,20.04171826171875,2.976494550704956,-23.839296340942383,-4.7824907302856445
1700958154442708700,20.058708740234376,3.3117377758026123,-22.655139923095703,-7.376657009124756
1700958154459698000,20.075697998046873,3.998283624649048,-21.678855895996094,-7.085624694824219
1700958154476695600,20.092695556640624,3.8361153602600098,-20.99750328063965,-4.648833751678467
1700958154493684700,20.109684814453125,3.909309148788452,-20.116147994995117,-1.099583625793457
1700958154510667800,20.126667724609376,4.93699836730957,-18.772235870361328,0.8792216777801514
1700958154527669000,20.1436689453125,5.765180587768555,-16.88916015625,1.6405556201934814
1700958154544651300,20.1606513671875,4.904719352722168,-13.958599090576172,2.3781042098999023
1700958154561651000,20.17765087890625,1.4233980178833008,-10.34248161315918,5.20147705078125
1700958154578648800,20.19464892578125,-4.730408191680908,-7.359358787536621,12.848194122314453
1700958154595638000,20.211637939453126,-8.432621002197266,-4.474130630493164,19.870540618896484
1700958154612630800,20.228630859375,-3.0152368545532227,-2.3393280506134033,24.617576599121094
1700958154629623000,20.245623046875,6.469137191772461,1.8610405921936035,28.670806884765625
1700958154646615300,20.262615234375,10.936037063598633,5.810667037963867,31.547382354736328
1700958154663607000,20.27960693359375,10.940683364868164,7.83931827545166,28.726654052734375
1700958154680597000,20.296596923828126,9.466926574707031,8.328941345214844,20.89332389831543
1700958154697593900,20.31359375,8.191365242004395,8.08737564086914,10.12782096862793
1700958154714584300,20.330584228515626,6.663837909698486,6.964595794677734,2.532285213470459
1700958154731573500,20.347573486328123,4.943945407867432,5.842050075531006,-1.3792433738708496
1700958154748571000,20.36457080078125,3.4680233001708984,5.527714729309082,-2.9246373176574707
1700958154765553400,20.381553466796873,1.9545316696166992,5.972694396972656,-2.6217403411865234
1700958154782553300,20.39855322265625,1.2272369861602783,6.7337541580200195,-2.809447765350342
1700958154799534300,20.415534423828124,1.3703837394714355,7.1451849937438965,-4.323268413543701
1700958154816537000,20.432537109375,2.4205691814422607,7.512424945831299,-6.106843948364258
1700958154833529000,20.449529052734373,3.7839207649230957,7.49625301361084,-7.3104400634765625
1700958154850521900,20.46652197265625,5.26480770111084,7.441436767578125,-8.217606544494629
1700958154867513300,20.483513427734376,5.882916450500488,7.232628345489502,-7.853321552276611
1700958154884509400,20.500509521484375,5.64556884765625,6.749809265136719,-7.694854259490967
1700958154901495000,20.5174951171875,5.201661586761475,7.18015193939209,-7.038077354431152
1700958154918493400,20.534493408203126,4.399890899658203,8.690428733825684,-5.698916435241699
1700958154935465000,20.55146484375,6.6591105461120605,11.880014419555664,-0.8464078903198242
1700958154952475000,20.568474853515625,10.671391487121582,18.92479705810547,8.877695083618164
1700958154969464300,20.58546435546875,10.461631774902344,21.21780776977539,26.208105087280273
1700958154986462000,20.6024619140625,8.861278533935547,20.935348510742188,38.20248031616211
1700958155003451100,20.619451171875,4.965041637420654,14.033103942871094,44.82915496826172
1700958155020442000,20.636442138671875,1.0029888153076172,6.011868476867676,39.83018493652344
1700958155037437200,20.653437255859377,2.235004425048828,-2.038327693939209,30.80543327331543
1700958155054428400,20.670428466796874,4.801313400268555,-8.307779312133789,22.164627075195312
1700958155071420200,20.687420166015624,5.906919479370117,-11.698728561401367,16.07901954650879
1700958155088402000,20.70440185546875,5.527736186981201,-13.858011245727539,13.326536178588867
1700958155105404400,20.721404296875,4.72069787979126,-15.404455184936523,11.623634338378906
1700958155122397200,20.738397216796876,3.5977883338928223,-16.218936920166016,10.001029968261719
1700958155139388700,20.755388671875,2.2104389667510986,-16.123828887939453,7.508917808532715
1700958155156381400,20.77238134765625,1.8162109851837158,-15.254720687866211,4.32239294052124
1700958155173373200,20.789373291015625,1.6488590240478516,-14.247062683105469,1.5334796905517578
1700958155190366000,20.806365966796875,1.7052311897277832,-12.978010177612305,-0.6892337799072266
1700958155207343400,20.82334326171875,1.7956328392028809,-11.769274711608887,-1.9831331968307495
1700958155224350500,20.8403505859375,1.3742408752441406,-11.026288032531738,-2.157433032989502
1700958155241342000,20.857342041015624,1.061953067779541,-11.019083976745605,-1.0947599411010742
1700958155258335000,20.8743349609375,0.9837331771850586,-11.453266143798828,0.688942551612854
1700958155275328300,20.891328369140624,1.2966604232788086,-11.814617156982422,2.2317445278167725
1700958155292317400,20.9083173828125,1.6602320671081543,-12.39076042175293,2.6641154289245605
1700958155309300200,20.92530029296875,2.701507806777954,-11.79661750793457,2.255908966064453
1700958155326314000,20.94231396484375,3.772135019302368,-10.130514144897461,2.367443084716797
1700958155343295200,20.959295166015625,3.4867169857025146,-7.898209095001221,4.442368507385254
1700958155360277500,20.976277587890625,1.1769113540649414,-7.393808364868164,8.509639739990234
1700958155377270800,20.993270751953126,-4.807989597320557,-6.588576316833496,7.581973552703857
1700958155394270200,21.010270263671874,-11.589437484741211,-3.150754928588867,-2.769082546234131
1700958155411254000,21.02725390625,-9.113359451293945,2.2659778594970703,-12.725725173950195
1700958155428247300,21.044247314453123,0.5742695331573486,4.360677719116211,-5.842538833618164
1700958155445238000,21.061238037109376,10.97874927520752,3.5270185470581055,15.491118431091309
1700958155462232800,21.07823291015625,18.29059600830078,3.876774787902832,25.247661590576172
1700958155479226000,21.09522607421875,18.03394889831543,7.744199752807617,13.797435760498047
1700958155496216000,21.112216064453126,13.674832344055176,7.9405364990234375,3.675974130630493
1700958155513208800,21.129208740234375,8.899160385131836,5.733095169067383,0.6636655330657959
1700958155530200300,21.146200439453125,5.384573936462402,3.1606931686401367,0.9159591197967529
1700958155547201300,21.163201171875,2.900923728942871,0.012610435485839844,0.137681245803833
1700958155564192000,21.18019189453125,2.520914077758789,-3.0293774604797363,-0.8591623306274414
1700958155581189000,21.197189208984376,3.379460334777832,-4.907580375671387,-1.4274909496307373
1700958155598187300,21.214187255859375,3.0548367500305176,-5.723599910736084,-1.7515227794647217
1700958155615170800,21.2311708984375,2.3779993057250977,-6.0995283126831055,-2.0404300689697266
1700958155632160800,21.248160888671876,1.0567231178283691,-6.192748546600342,-1.684732437133789
1700958155649147400,21.2651474609375,-0.7618341445922852,-6.126893997192383,-1.5738704204559326
1700958155666134300,21.28213427734375,-2.2193603515625,-5.9929423332214355,-1.6640526056289673
1700958155683143000,21.299142822265626,-2.8474700450897217,-5.70789909362793,-1.5734751224517822
1700958155700132400,21.31613232421875,1.690187931060791,-4.686205863952637,2.1270482540130615
1700958155717124000,21.3331240234375,0.632927417755127,-4.254849433898926,0.020726293325424194
1700958155734116900,21.350116943359374,1.2521662712097168,-4.153022766113281,-0.34545034170150757
1700958155751108600,21.367108642578124,1.2082881927490234,-3.337977409362793,0.0907089114189148
1700958155768090600,21.384090576171875,1.7283563613891602,-2.87526798248291,-0.9887623190879822
1700958155785092600,21.401092529296875,2.586082935333252,-2.710254669189453,-1.9603219032287598
1700958155802083600,21.41808349609375,2.813143253326416,-2.2267918586730957,-1.6748164892196655
1700958155819080000,21.435079833984375,3.4906625747680664,-1.6712398529052734,-0.41780173778533936
1700958155836070100,21.452070068359376,4.516410827636719,-0.8553733825683594,0.1592426896095276
1700958155853059300,21.469059326171877,4.782545566558838,-0.8009557723999023,-0.06749892234802246
1700958155870057200,21.48605712890625,5.097120761871338,-1.5271930694580078,0.06546652317047119
1700958155887046100,21.503046142578125,5.3695387840271,-2.010251998901367,0.963381290435791
1700958155904039200,21.5200390625,5.650010585784912,-2.0914478302001953,1.9569158554077148
1700958155921030400,21.537030517578124,5.818889141082764,-1.6419315338134766,2.7836296558380127
1700958155938023400,21.5540234375,5.4537529945373535,-1.5592856407165527,2.216036796569824
1700958155955015200,21.57101513671875,4.807523250579834,-2.085930824279785,1.3641061782836914
1700958155972008000,21.588008056640625,4.054062366485596,-2.4679722785949707,1.2498955726623535
1700958155988995000,21.6049951171875,3.0833287239074707,-2.724517345428467,1.199857234954834
1700958156005983200,21.621983154296874,2.3700780868530273,-2.812002658843994,1.143022060394287
1700958156022979800,21.638979736328125,1.892167568206787,-2.6947245597839355,1.149144172668457
1700958156039980000,21.65597998046875,1.3379297256469727,-2.493577003479004,1.352448582649231
1700958156056968200,21.67296826171875,0.5216550827026367,-2.4458298683166504,1.7920725345611572
1700958156073961000,21.6899609375,-0.12818384170532227,-2.7657265663146973,1.9120550155639648
1700958156090952700,21.70695263671875,0.14355230331420898,-3.060824394226074,1.3146729469299316
1700958156107945700,21.72394580078125,1.003899097442627,-3.155632972717285,1.0841288566589355
1700958156124937200,21.740937255859375,1.6210861206054688,-3.027423858642578,1.1317105293273926
