time,seconds_elapsed,z,y,x
1700868048337201000,0.101200927734375,-0.49956226348876953,-0.39026594161987305,0.07471859455108643
1700868048354189000,0.11818896484375,0.12052297592163086,-0.19653749465942383,0.18172746896743774
1700868048371185700,0.135185546875,0.21928930282592773,-0.11720705032348633,0.14192812144756317
1700868048388163800,0.152163818359375,0.20885801315307617,-0.17155790328979492,-0.16130532324314117
1700868048405156600,0.169156494140625,-0.2053542137145996,-0.33663463592529297,-0.18085446953773499
1700868048422133800,0.1861337890625,-0.4942917823791504,-0.42998170852661133,-0.27165916562080383
1700868048439132000,0.2031318359375,-0.5634136199951172,-0.4736790657043457,-0.39594796299934387
1700868048456119600,0.22011962890625,-0.5661063194274902,-0.4584665298461914,-0.5184963941574097
1700868048473107000,0.23710693359375,-0.5632290840148926,-0.41812610626220703,-0.5644305944442749
1700868048490096600,0.2540966796875,-0.773129940032959,-0.45848846435546875,-0.7628581523895264
1700868048507084800,0.271084716796875,-1.0165247917175293,-0.4976968765258789,-0.10498443245887756
1700868048524075300,0.2880751953125,-1.144056797027588,-0.44339609146118164,0.2507782578468323
1700868048541059800,0.305059814453125,-1.2681159973144531,-0.3422069549560547,-0.07407429814338684
1700868048558050800,0.32205078125,-1.43471097946167,-0.0035796165466308594,-0.3297520875930786
1700868048575040300,0.339040283203125,-1.2378463745117188,0.2511606216430664,-0.4560532867908478
1700868048592024600,0.356024658203125,-0.3185615539550781,0.5385398864746094,-0.38366439938545227
1700868048609017000,0.37301708984375,0.3785529136657715,0.6132421493530273,-0.10893440246582031
1700868048626005200,0.390005126953125,0.4612083435058594,0.6192026138305664,0.16168034076690674
1700868048642991400,0.406991455078125,0.05487489700317383,0.791405200958252,-0.0014415979385375977
1700868048659979800,0.423979736328125,-0.4741649627685547,1.0456886291503906,-0.23110681772232056
1700868048676970500,0.440970458984375,-0.8668107986450195,1.0654592514038086,-0.05404013395309448
1700868048693960000,0.4579599609375,-1.2533226013183594,1.0681953430175781,0.12414246797561646
1700868048710944500,0.474944580078125,-0.4013824462890625,0.9806785583496094,-0.11900779604911804
1700868048727935500,0.491935546875,0.3013439178466797,0.642845630645752,0.0017135143280029297
1700868048744925700,0.50892578125,0.5094718933105469,0.45285606384277344,0.16136425733566284
1700868048761907500,0.525907470703125,-0.0013170242309570312,0.27735471725463867,0.085918128490448
1700868048778904300,0.542904296875,-0.8397583961486816,0.20908260345458984,-0.09729021787643433
1700868048795889400,0.559889404296875,-2.0037245750427246,0.17950677871704102,-0.062240540981292725
1700868048812879400,0.57687939453125,-3.3268356323242188,-0.05196332931518555,0.250100314617157
1700868048829849600,0.593849609375,-3.3166370391845703,0.584083080291748,-0.04429459571838379
1700868048846852400,0.610852294921875,-2.2740464210510254,0.09023761749267578,0.0231473445892334
1700868048863848000,0.627847900390625,-1.222404956817627,-0.16885948181152344,-0.25056397914886475
1700868048880829700,0.64482958984375,-0.7308835983276367,-0.5280661582946777,-0.6904926300048828
1700868048897818600,0.661818603515625,-0.4394397735595703,-1.0702571868896484,-1.0699095726013184
1700868048914812200,0.678812255859375,0.023507118225097656,-1.7038047313690186,-1.0477650165557861
1700868048931795000,0.695794921875,0.1892108917236328,-2.31180477142334,-0.842369794845581
1700868048948786700,0.71278662109375,-0.7470569610595703,-3.1742026805877686,-0.7866811752319336
1700868048965774800,0.72977490234375,-1.7245988845825195,-4.662822246551514,-1.9297442436218262
1700868048982764300,0.746764404296875,-2.155519962310791,-6.456297874450684,-3.720276355743408
1700868048999748900,0.763748779296875,-2.9927878379821777,-8.661092758178711,-4.776937007904053
1700868049016729900,0.780729736328125,-3.326885461807251,-10.929952621459961,-5.493354797363281
1700868049033727500,0.7977275390625,-2.6487739086151123,-12.83548355102539,-4.109659671783447
1700868049050716700,0.814716552734375,-3.012260913848877,-13.437896728515625,-1.518721580505371
1700868049067705300,0.831705322265625,-6.03710412979126,-13.540183067321777,0.7772846221923828
1700868049084695600,0.848695556640625,-4.90245246887207,-13.716015815734863,3.2220635414123535
1700868049101680000,0.86568017578125,-1.2856892347335815,-13.25645637512207,3.9691314697265625
1700868049118671600,0.882671630859375,-0.08058786392211914,-13.157936096191406,6.011789321899414
1700868049135659300,0.8996591796875,-1.2082240581512451,-11.726078987121582,9.977164268493652
1700868049152649500,0.9166494140625,-4.129384994506836,-9.41684627532959,15.458529472351074
1700868049169634000,0.933634033203125,-6.509826183319092,-7.263686180114746,17.698177337646484
1700868049186624800,0.950624755859375,-3.396150588989258,-5.499634742736816,14.460965156555176
1700868049203627800,0.967627685546875,3.1330416202545166,-2.7414772510528564,12.804930686950684
1700868049220594400,0.984594482421875,5.093286037445068,0.36709079146385193,18.910106658935547
1700868049237584600,1.001584716796875,1.0747498273849487,3.3707733154296875,28.171695709228516
1700868049254581000,1.0185810546875,-3.9640073776245117,7.539903163909912,28.983604431152344
1700868049271566800,1.03556689453125,-2.692141056060791,11.424188613891602,18.180892944335938
1700868049288557300,1.052557373046875,-1.3037090301513672,12.898820877075195,9.02465534210205
1700868049305544200,1.069544189453125,-0.6787155866622925,13.370885848999023,4.995141983032227
1700868049322535000,1.086534912109375,0.4081871509552002,14.041997909545898,2.827458381652832
1700868049339519000,1.10351904296875,0.2859804034233093,14.99987506866455,2.0237550735473633
1700868049356509700,1.120509765625,-3.056006908416748,16.116161346435547,2.609938621520996
1700868049373500000,1.1375,-6.072939872741699,17.591272354125977,-0.12950897216796875
1700868049390484200,1.154484130859375,-8.687463760375977,18.280506134033203,-4.710259914398193
1700868049407475000,1.171474853515625,-8.524909019470215,18.64934730529785,-7.085470199584961
1700868049424465400,1.18846533203125,-5.956488609313965,17.839439392089844,-5.788773059844971
1700868049441450200,1.2054501953125,-2.0626397132873535,16.831396102905273,-2.9741172790527344
1700868049458438700,1.222438720703125,0.7833685278892517,16.17079734802246,0.5362482070922852
1700868049475437800,1.239437744140625,0.7105597257614136,15.414444923400879,0.8372716903686523
1700868049492420600,1.256420654296875,0.34909605979919434,14.959731101989746,-1.0642223358154297
1700868049509399800,1.27339990234375,-1.5633108615875244,15.301944732666016,-1.1100921630859375
1700868049526397200,1.290397216796875,-4.727748870849609,14.939815521240234,4.3903608322143555
1700868049543384800,1.307384765625,-5.399118900299072,14.739298820495605,11.539342880249023
1700868049560358400,1.3243583984375,-3.563066005706787,15.345739364624023,17.669361114501953
1700868049577361000,1.34136083984375,-1.1029366254806519,13.48219108581543,21.285993576049805
1700868049594347000,1.358346923828125,4.994600296020508,11.176233291625977,20.17177391052246
1700868049611336700,1.375336669921875,8.110013961791992,10.400278091430664,23.219440460205078
1700868049628327400,1.392327392578125,5.909676551818848,8.716779708862305,33.029483795166016
1700868049645313500,1.4093134765625,2.5559911727905273,5.75404691696167,40.71767807006836
1700868049662302200,1.42630224609375,-1.7216957807540894,-1.3571257591247559,39.14420700073242
1700868049679287600,1.44328759765625,-4.322382926940918,-7.696220397949219,29.67559814453125
1700868049696278500,1.460278564453125,-1.474776268005371,-13.50904655456543,20.54125213623047
1700868049713269000,1.47726904296875,4.434170722961426,-18.719867706298828,13.161901473999023
1700868049730256000,1.494255859375,9.556550979614258,-22.87281036376953,6.947775840759277
1700868049747237400,1.5112373046875,10.780454635620117,-26.873600006103516,3.214449882507324
1700868049764232400,1.528232421875,7.516258716583252,-31.272132873535156,1.8257851600646973
1700868049781222100,1.54522216796875,5.931490898132324,-34.09960174560547,-1.2215054035186768
1700868049798211300,1.56221142578125,6.779484272003174,-34.966896057128906,-6.450387954711914
1700868049815199200,1.57919921875,8.000245094299316,-33.52428436279297,-11.912220001220703
1700868049832185600,1.596185546875,7.495693683624268,-31.43628692626953,-12.514935493469238
1700868049849176600,1.613176513671875,5.13970947265625,-30.170759201049805,-5.513112545013428
1700868049866160600,1.63016064453125,1.6996527910232544,-28.449771881103516,3.3000617027282715
1700868049883158000,1.647157958984375,-2.0776238441467285,-24.944868087768555,8.456229209899902
1700868049900139000,1.664138916015625,-4.4084577560424805,-20.690900802612305,8.25910758972168
1700868049917129700,1.681129638671875,-1.5778687000274658,-19.076122283935547,7.778190612792969
1700868049934107600,1.698107666015625,-2.0291855335235596,-19.461814880371094,10.972737312316895
1700868049951106000,1.71510595703125,-12.913867950439453,-19.203144073486328,23.546154022216797
1700868049968077800,1.732077880859375,-18.760242462158203,-10.191110610961914,34.24628448486328
1700868049985084200,1.749084228515625,-10.355085372924805,-1.3175159692764282,45.31888961791992
1700868050002059300,1.766059326171875,-1.8753912448883057,3.4517390727996826,51.97085952758789
1700868050019061500,1.7830615234375,4.639091491699219,8.768074035644531,44.221351623535156
1700868050036049700,1.800049560546875,6.5812225341796875,11.652539253234863,36.088623046875
1700868050053038000,1.8170380859375,6.8044915199279785,14.441015243530273,22.89458465576172
1700868050070023400,1.8340234375,5.813216209411621,18.64849090576172,9.776715278625488
1700868050087015200,1.85101513671875,0.23178672790527344,22.564611434936523,4.816133499145508
1700868050104004900,1.8680048828125,-5.150638103485107,25.279373168945312,3.4484376907348633
1700868050120989000,1.884989013671875,-5.671562194824219,27.059253692626953,-0.8654513359069824
1700868050137978000,1.90197802734375,-4.026829242706299,27.48697853088379,-5.439642906188965
1700868050154971000,1.918970947265625,-0.7951345443725586,26.738317489624023,-6.403792381286621
1700868050171946800,1.93594677734375,1.1319411993026733,25.573368072509766,-3.894458293914795
1700868050188941000,1.952941162109375,0.7058994770050049,24.00019645690918,0.3987245559692383
1700868050205926100,1.969926025390625,-0.6115713119506836,21.868921279907227,4.470663070678711
1700868050222915300,1.986915283203125,-2.8479702472686768,19.37030029296875,5.2584028244018555
1700868050239908400,2.003908447265625,-3.2867624759674072,17.853376388549805,6.399199485778809
1700868050256899000,2.020899169921875,-1.604168176651001,16.873672485351562,15.209854125976562
1700868050273889500,2.0378896484375,-1.927081823348999,13.178875923156738,28.438961029052734
1700868050290871300,2.054871337890625,-1.8090643882751465,6.84738826751709,34.86475372314453
1700868050307867400,2.071867431640625,0.9276551604270935,4.06852388381958,31.140966415405273
1700868050324851500,2.0888515625,-0.04813408851623535,2.8301000595092773,31.825820922851562
1700868050341836500,2.10583642578125,-0.2767305374145508,-0.4279041290283203,36.99457550048828
1700868050358834000,2.122833984375,0.33252644538879395,-6.430190086364746,36.76222229003906
1700868050375818800,2.13981884765625,-1.7260966300964355,-13.693428039550781,32.82090759277344
1700868050392808700,2.15680859375,-3.4406163692474365,-22.50126838684082,27.131141662597656
1700868050409793300,2.173793212890625,4.912818908691406,-29.698291778564453,14.23514175415039
1700868050426784300,2.1907841796875,13.401327133178711,-32.389404296875,2.459779739379883
1700868050443774200,2.207774169921875,11.70732307434082,-31.742408752441406,-3.785836696624756
1700868050460759000,2.224759033203125,6.446403503417969,-31.134748458862305,-2.914823532104492
1700868050477748500,2.24174853515625,3.663998603820801,-32.49365234375,3.374101161956787
1700868050494741000,2.258740966796875,3.4539401531219482,-32.37749481201172,6.355496406555176
1700868050511719400,2.275719482421875,4.850082874298096,-29.19752311706543,0.5786318778991699
1700868050528715800,2.2927158203125,5.969202995300293,-26.28854751586914,-4.668667316436768
1700868050545703400,2.309703369140625,5.1893839836120605,-24.447246551513672,-5.193332195281982
1700868050562693600,2.326693603515625,3.0477259159088135,-22.696191787719727,-3.627951145172119
1700868050579678000,2.343677978515625,-3.4973561763763428,-19.790027618408203,0.693692684173584
1700868050596658700,2.36065869140625,-12.034808158874512,-15.74056339263916,3.300922393798828
1700868050613657300,2.3776572265625,-10.332904815673828,-12.786136627197266,4.535715103149414
1700868050630644500,2.39464453125,3.434450626373291,-10.232173919677734,9.805670738220215
1700868050647634400,2.411634521484375,3.711575984954834,-9.779199600219727,17.546993255615234
1700868050664619800,2.428619873046875,-8.702312469482422,-3.6058595180511475,26.196395874023438
1700868050681602000,2.44560205078125,-14.240679740905762,1.1298201084136963,38.03632354736328
1700868050698590700,2.4625908203125,-6.540322303771973,3.9642879962921143,54.46295166015625
1700868050715586600,2.479586669921875,-2.9897584915161133,4.319803237915039,54.21479034423828
1700868050732590600,2.496590576171875,2.724189519882202,5.374504566192627,31.320363998413086
1700868050749560000,2.51356005859375,6.643400192260742,6.305609703063965,11.563539505004883
1700868050766557700,2.5305576171875,6.100526332855225,7.20955228805542,3.5196523666381836
1700868050783546600,2.547546630859375,2.0099985599517822,9.465166091918945,-0.025429725646972656
1700868050800518700,2.5645185546875,-0.8724339008331299,13.226553916931152,-4.431372165679932
1700868050817521700,2.581521728515625,1.8488719463348389,17.55836296081543,-10.094696044921875
1700868050834509000,2.598509033203125,6.559934139251709,20.582321166992188,-11.422331809997559
1700868050851493600,2.61549365234375,6.8814311027526855,23.34956932067871,-8.569743156433105
1700868050868485400,2.6324853515625,1.7152431011199951,23.8514404296875,-3.84222412109375
1700868050885473000,2.64947314453125,-2.8964526653289795,23.24659538269043,-5.350736141204834
1700868050902463500,2.66646337890625,-2.0209853649139404,21.999338150024414,-6.695357322692871
1700868050919448600,2.683448486328125,1.5973451137542725,20.228464126586914,-1.4606008529663086
1700868050936438500,2.7004384765625,3.0597100257873535,17.341768264770508,7.593195915222168
1700868050953428500,2.717428466796875,4.086495399475098,13.739358901977539,15.320545196533203
1700868050970413000,2.7344130859375,3.1252989768981934,9.956988334655762,19.913114547729492
1700868050987401500,2.7514013671875,1.530577301979065,7.539184093475342,22.061912536621094
1700868051004385500,2.768385498046875,0.12736296653747559,6.407234191894531,24.11846160888672
1700868051021378800,2.78537890625,0.8092127442359924,4.140647888183594,27.830245971679688
1700868051038370600,2.80237060546875,-0.9576026201248169,-0.4957542419433594,32.12296676635742
1700868051055358000,2.81935791015625,-3.6495697498321533,-8.037263870239258,31.396949768066406
1700868051072345900,2.836345947265625,-3.755836248397827,-14.46469783782959,24.309551239013672
1700868051089338000,2.853338134765625,0.6360732316970825,-20.477087020874023,14.741193771362305
1700868051106324200,2.87032421875,7.1747307777404785,-24.785985946655273,5.651640892028809
1700868051123312600,2.887312744140625,9.589070320129395,-27.08781623840332,-0.8418060541152954
1700868051140297700,2.904297607421875,6.452374458312988,-27.69702911376953,-4.470607757568359
1700868051157286700,2.92128662109375,3.0172417163848877,-27.73208999633789,-5.016350269317627
1700868051174275000,2.938275146484375,2.430849075317383,-28.986900329589844,-2.48659610748291
1700868051191265000,2.95526513671875,4.18706750869751,-30.2938232421875,-1.8013956546783447
1700868051208258000,2.972258056640625,6.381701469421387,-29.06153106689453,-5.140355110168457
1700868051225243400,2.989243408203125,5.839186668395996,-26.5478515625,-7.767488479614258
1700868051242222300,3.006222412109375,3.291966199874878,-24.847196578979492,-6.347029685974121
1700868051259219500,3.023219482421875,0.32714080810546875,-23.367189407348633,-0.14446353912353516
1700868051276205600,3.04020556640625,-3.0533978939056396,-21.127653121948242,7.520005226135254
1700868051293201200,3.057201171875,-6.235925674438477,-17.96994400024414,14.379806518554688
1700868051310182700,3.0741826171875,-5.815995693206787,-14.686017990112305,16.757551193237305
1700868051327174400,3.09117431640625,-5.6268720626831055,-11.629133224487305,16.073482513427734
1700868051344162600,3.10816259765625,-12.202851295471191,-3.8044047355651855,16.31153678894043
1700868051361151200,3.125151123046875,-19.775897979736328,3.23079252243042,36.05134582519531
1700868051378140000,3.142139892578125,-12.158121109008789,9.406035423278809,59.71760559082031
1700868051395132000,3.1591318359375,13.614645004272461,15.353376388549805,52.1097526550293
1700868051412114200,3.1761142578125,22.21636199951172,18.483434677124023,24.70311737060547
1700868051429107700,3.193107666015625,9.766478538513184,16.27925682067871,5.47564697265625
1700868051446094000,3.210093994140625,1.1332671642303467,16.123334884643555,-2.9443726539611816
1700868051463079400,3.227079345703125,-1.5040366649627686,16.32183265686035,-4.50577449798584
1700868051480073200,3.2440732421875,1.7595815658569336,16.023204803466797,-5.957370758056641
1700868051497054700,3.2610546875,7.439286231994629,16.266040802001953,-7.462925910949707
1700868051514049800,3.2780498046875,7.774330139160156,16.930513381958008,-8.307863235473633
1700868051531036000,3.295035888671875,3.373079299926758,16.5964298248291,-10.024811744689941
1700868051548025300,3.312025390625,-0.501488208770752,16.05191993713379,-12.117284774780273
1700868051565012200,3.32901220703125,-2.0996835231781006,15.714048385620117,-12.032843589782715
1700868051581993000,3.345992919921875,-1.5216248035430908,15.18927001953125,-7.575654029846191
1700868051598990000,3.362989990234375,2.1541481018066406,14.261880874633789,-1.2864532470703125
1700868051615976400,3.3799765625,5.0408220291137695,14.355055809020996,4.052855491638184
1700868051632968400,3.396968505859375,2.246699810028076,13.460771560668945,11.284806251525879
1700868051649944600,3.413944580078125,-2.0575168132781982,11.99193000793457,16.290348052978516
1700868051666944000,3.430944091796875,-2.4468448162078857,13.676071166992188,17.480146408081055
1700868051683922000,3.447921875,-2.904923915863037,12.850639343261719,24.679601669311523
1700868051700918000,3.46491796875,0.03994441032409668,9.275200843811035,28.823087692260742
1700868051717909000,3.481908935546875,3.3006863594055176,3.5260839462280273,28.128437042236328
1700868051734900200,3.498900146484375,3.0140552520751953,-2.8733510971069336,23.512096405029297
1700868051751886300,3.51588623046875,1.6805089712142944,-9.13515567779541,18.3448543548584
1700868051768874500,3.53287451171875,2.084984302520752,-15.816736221313477,13.688714981079102
1700868051785852000,3.549851806640625,4.085051536560059,-21.787551879882812,7.902807712554932
1700868051802842400,3.56684228515625,6.177478313446045,-25.21568489074707,1.9288074970245361
1700868051819833000,3.5838330078125,5.935666084289551,-26.26105308532715,-2.1694412231445312
1700868051836818700,3.600818603515625,4.405125617980957,-26.90733528137207,-2.217146158218384
1700868051853810700,3.617810791015625,3.931093692779541,-28.382766723632812,1.4293806552886963
1700868051870794800,3.634794677734375,4.282222747802734,-30.083702087402344,5.654630184173584
1700868051887784700,3.65178466796875,5.451624393463135,-29.33007049560547,5.636626243591309
1700868051904775200,3.668775146484375,4.768435001373291,-26.420913696289062,1.6029777526855469
1700868051921763000,3.68576318359375,2.779038429260254,-23.621902465820312,-0.6720786094665527
1700868051938750200,3.702750244140625,0.35187864303588867,-22.07250213623047,1.6443877220153809
1700868051955738600,3.719738525390625,-2.8261055946350098,-20.914752960205078,10.513654708862305
1700868051972734500,3.736734375,-5.516003131866455,-19.351533889770508,21.092031478881836
1700868051989714400,3.75371435546875,-3.6640353202819824,-16.32589340209961,20.877792358398438
1700868052006712800,3.770712890625,-6.877828598022461,-5.841858863830566,11.436220169067383
1700868052023701800,3.78770166015625,-16.047950744628906,0.8058862686157227,22.100643157958984
1700868052040696600,3.804696533203125,-12.689414978027344,1.7944929599761963,46.762115478515625
1700868052057678600,3.8216787109375,-2.128469228744507,4.905947208404541,68.4863510131836
1700868052074664400,3.83866455078125,11.207030296325684,15.545411109924316,47.08053970336914
1700868052091658000,3.855657958984375,17.120771408081055,19.7730770111084,11.598969459533691
1700868052108629200,3.872629150390625,7.726071357727051,18.73739242553711,-2.4610280990600586
1700868052125630000,3.8896298828125,1.233093500137329,19.211933135986328,-5.489894866943359
1700868052142623500,3.90662353515625,0.5273716449737549,20.18859100341797,-5.808249473571777
1700868052159609600,3.923609619140625,3.8946967124938965,20.272441864013672,-3.011836528778076
1700868052176597800,3.94059765625,7.656075954437256,21.44089698791504,-4.715976238250732
1700868052193586200,3.957586181640625,4.8951616287231445,21.595603942871094,-9.336026191711426
1700868052210574800,3.974574951171875,0.2608065605163574,21.352088928222656,-13.854610443115234
1700868052227563000,3.99156298828125,-1.9709358215332031,20.170621871948242,-16.0238094329834
1700868052244552000,4.008552001953125,-0.7732508182525635,18.11827278137207,-13.114542007446289
1700868052261540400,4.025540283203125,1.8360590934753418,15.94920825958252,-7.402094841003418
1700868052278528500,4.042528564453125,3.3507959842681885,15.019302368164062,-4.069664478302002
1700868052295517000,4.059516845703125,4.187969207763672,15.196114540100098,0.8487653732299805
1700868052312502500,4.07650244140625,5.159820556640625,14.999282836914062,8.73755168914795
1700868052329497000,4.0934970703125,2.9035277366638184,13.803718566894531,19.740171432495117
1700868052346482700,4.110482666015625,1.447084665298462,13.359949111938477,25.019142150878906
1700868052363470800,4.127470947265625,2.8108949661254883,11.250009536743164,27.35364532470703
1700868052380461600,4.144461669921875,2.319333791732788,8.720787048339844,28.482526779174805
1700868052397447700,4.16144775390625,-1.8898253440856934,2.72365665435791,32.66954803466797
1700868052414436400,4.178436279296875,-4.039018630981445,-5.77014684677124,34.06987380981445
1700868052431425000,4.195425048828125,0.7547198534011841,-12.615570068359375,25.840166091918945
1700868052448413400,4.212413330078125,6.094657897949219,-18.772296905517578,16.52151870727539
1700868052465395500,4.2293955078125,9.08637523651123,-24.01982879638672,9.369885444641113
1700868052482392600,4.246392578125,9.119112014770508,-27.330551147460938,3.4921364784240723
1700868052499378700,4.263378662109375,6.019582748413086,-29.21157455444336,-0.5543043613433838
1700868052516364500,4.280364501953125,3.662240982055664,-30.091449737548828,-3.1156005859375
1700868052533358000,4.297358154296875,3.957857847213745,-30.579679489135742,-4.976466178894043
1700868052550333400,4.31433349609375,6.062246322631836,-29.640094757080078,-7.8081440925598145
1700868052567332600,4.33133251953125,6.21852970123291,-27.876113891601562,-6.96960973739624
1700868052584307700,4.3483076171875,4.857691764831543,-25.747880935668945,-2.672929525375366
1700868052601309400,4.365309326171875,2.031550884246826,-23.2060546875,3.660592555999756
1700868052618293000,4.38229296875,-1.6699507236480713,-20.70537567138672,9.872457504272461
1700868052635291000,4.399290771484375,-2.5516552925109863,-17.9356746673584,12.589920043945312
1700868052652275200,4.416275146484375,-3.1413586139678955,-15.142179489135742,12.401105880737305
1700868052669263400,4.433263427734375,-8.8063383102417,-7.569043159484863,11.876991271972656
1700868052686251800,4.450251708984375,-15.03000545501709,-1.018136739730835,26.453989028930664
1700868052703240200,4.467240234375,-16.897550582885742,4.997252464294434,50.51231002807617
1700868052720218000,4.484218017578125,-6.380382537841797,10.768494606018066,52.87606430053711
1700868052737217300,4.50121728515625,7.538720607757568,15.171018600463867,33.109920501708984
1700868052754205400,4.518205322265625,9.434734344482422,14.910746574401855,15.121541976928711
1700868052771195600,4.535195556640625,5.396757125854492,14.085870742797852,3.074625015258789
1700868052788182500,4.5521826171875,3.316124677658081,14.925178527832031,-3.027022361755371
1700868052805171000,4.5691708984375,2.9004786014556885,15.968024253845215,-4.346517086029053
1700868052822148900,4.58614892578125,5.714104652404785,17.258939743041992,-5.499070167541504
1700868052839148000,4.60314794921875,8.179636001586914,19.211042404174805,-7.786756992340088
1700868052856132900,4.6201328125,6.494980812072754,20.000600814819336,-9.435519218444824
1700868052873128400,4.63712841796875,2.647772789001465,20.178552627563477,-12.305583953857422
1700868052890113300,4.65411328125,0.11867880821228027,19.587722778320312,-14.49797248840332
1700868052907102000,4.67110205078125,0.029672861099243164,18.416250228881836,-13.19738483428955
1700868052924090000,4.688090087890625,2.3298075199127197,17.0388126373291,-9.138537406921387
1700868052941078800,4.705078857421875,5.485534191131592,15.655244827270508,-1.4956388473510742
1700868052958056200,4.72205615234375,4.905420303344727,13.68571662902832,4.951061248779297
1700868052975054800,4.739054931640625,0.7187809944152832,13.17966079711914,10.062689781188965
1700868052992044800,4.756044921875,-2.4869329929351807,15.055688858032227,15.482024192810059
1700868053009030000,4.77302978515625,0.5393996238708496,19.234479904174805,21.981924057006836
1700868053026023700,4.790023681640625,1.9518351554870605,14.474845886230469,34.24271774291992
1700868053043008000,4.807008056640625,0.22328996658325195,10.783761978149414,36.87776565551758
1700868053060007400,4.82400732421875,-7.835712432861328,2.69303035736084,36.38633728027344
1700868053076987400,4.8409873046875,-6.895403861999512,-6.436560153961182,28.67952537536621
1700868053093974800,4.857974853515625,4.128866195678711,-15.643362045288086,17.505252838134766
1700868053110963200,4.874963134765625,13.861101150512695,-21.793731689453125,8.859493255615234
1700868053127951600,4.89195166015625,14.780191421508789,-25.744274139404297,4.108968734741211
1700868053144940300,4.908940185546875,8.48082160949707,-27.65981674194336,1.1056729555130005
1700868053161928400,4.925928466796875,2.162338972091675,-28.270540237426758,0.8900072574615479
1700868053178907000,4.942906982421875,-0.9210100173950195,-28.03464126586914,1.8886626958847046
1700868053195905300,4.9599052734375,0.030066967010498047,-27.672378540039062,1.6453543901443481
1700868053212893700,4.976893798828125,2.56414794921875,-26.835636138916016,-1.6287040710449219
1700868053229871900,4.993871826171875,5.38886022567749,-25.405895233154297,-4.860541343688965
1700868053246867200,5.0108671875,5.612420082092285,-23.554122924804688,-5.751402854919434
1700868053263863000,5.027863037109375,3.244688034057617,-22.456045150756836,-0.9867489337921143
1700868053280848000,5.044847900390625,-1.1240131855010986,-20.938411712646484,7.142366409301758
1700868053297833000,5.0618330078125,-2.722496271133423,-18.528871536254883,11.772785186767578
1700868053314828000,5.078828125,-2.3882834911346436,-15.7239990234375,10.336153030395508
1700868053331813000,5.095813232421875,-2.7884528636932373,-9.19874382019043,3.5195932388305664
1700868053348801500,5.112801513671875,-8.801573753356934,-1.8942224979400635,13.416637420654297
1700868053365790200,5.129790283203125,-9.418720245361328,3.2977490425109863,45.634830474853516
1700868053382778400,5.1467783203125,3.735342025756836,10.330215454101562,59.775146484375
1700868053399764200,5.16376416015625,14.330810546875,16.97230339050293,37.09730529785156
1700868053416768000,5.18076806640625,10.522378921508789,18.689987182617188,16.26873016357422
1700868053433742600,5.19774267578125,1.235569715499878,16.170940399169922,9.106168746948242
1700868053450733600,5.214733642578125,-0.29470157623291016,14.46135425567627,0.2674894332885742
1700868053467720700,5.231720703125,1.8672888278961182,13.812822341918945,-6.209193229675293
1700868053484709000,5.248709228515625,3.884190559387207,14.032146453857422,-6.088324069976807
1700868053501697500,5.265697509765625,4.867818832397461,15.083329200744629,-6.662178993225098
1700868053518683400,5.282683349609375,1.9741535186767578,15.780937194824219,-9.303282737731934
1700868053535677200,5.29967724609375,-2.951883316040039,16.68743896484375,-13.65017318725586
1700868053552663000,5.3166630859375,-5.768396377563477,17.400714874267578,-16.710126876831055
1700868053569651200,5.333651123046875,-3.6130213737487793,16.428726196289062,-14.554586410522461
1700868053586639600,5.3506396484375,3.511397361755371,14.589105606079102,-9.592325210571289
1700868053603617500,5.367617431640625,7.654787063598633,12.771417617797852,-4.13250207901001
1700868053620604400,5.3846044921875,6.727633476257324,11.577890396118164,-0.2660551071166992
1700868053637607200,5.401607177734375,3.148697853088379,11.360347747802734,3.5595006942749023
1700868053654591200,5.41859130859375,-0.32625114917755127,11.751432418823242,8.806800842285156
1700868053671572700,5.43557275390625,2.8531363010406494,12.727624893188477,13.54736328125
1700868053688562200,5.452562255859375,8.327584266662598,12.329521179199219,20.55663299560547
1700868053705550000,5.469550048828125,8.631223678588867,11.040506362915039,26.23955535888672
1700868053722537200,5.486537109375,2.777723789215088,7.371869087219238,31.227285385131836
1700868053739526400,5.5035263671875,-3.0473031997680664,-0.22805500030517578,33.53086853027344
1700868053756515600,5.520515625,0.6538172960281372,-8.82127571105957,24.259403228759766
1700868053773503500,5.53750341796875,8.79655647277832,-15.982449531555176,12.672158241271973
1700868053790496000,5.55449609375,12.64820671081543,-20.943965911865234,5.228252410888672
1700868053807483100,5.571483154296875,10.01308822631836,-24.0460205078125,-0.07879781723022461
1700868053824466700,5.588466796875,5.0769171714782715,-25.095779418945312,-3.508002996444702
1700868053841471000,5.605470947265625,1.351917028427124,-25.351072311401367,-3.8315820693969727
1700868053858452500,5.622452392578125,1.4601624011993408,-25.686182022094727,-3.181947946548462
1700868053875446000,5.639446044921875,3.959022283554077,-25.708255767822266,-3.900739908218384
1700868053892432100,5.65643212890625,5.878205299377441,-24.30743408203125,-6.835769176483154
1700868053909420500,5.673420654296875,4.945749282836914,-21.837093353271484,-8.039949417114258
1700868053926402300,5.69040234375,2.150589942932129,-20.11723518371582,-5.397886276245117
1700868053943397400,5.7073974609375,-0.1523606777191162,-19.156278610229492,-0.2566852569580078
1700868053960370700,5.72437060546875,-3.4951400756835938,-17.97678565979004,6.510554313659668
1700868053977374000,5.7413740234375,-7.183907508850098,-16.86012077331543,11.263801574707031
1700868053994362600,5.758362548828125,-8.492731094360352,-12.785640716552734,9.731855392456055
1700868054011351000,5.77535107421875,-6.41506290435791,-6.638436317443848,14.036587715148926
1700868054028339700,5.792339599609375,3.186163902282715,-2.4033117294311523,31.882911682128906
1700868054045326800,5.809326904296875,7.948329925537109,2.7676146030426025,53.3153190612793
1700868054062317800,5.82631787109375,4.5645928382873535,11.424793243408203,49.773380279541016
1700868054079305000,5.843304931640625,1.2626632452011108,16.53506851196289,24.476673126220703
1700868054096290600,5.86029052734375,-1.7187211513519287,14.135519027709961,9.74625015258789
1700868054113274600,5.877274658203125,1.3436427116394043,11.52944278717041,0.8142337799072266
1700868054130268400,5.894268310546875,7.483321666717529,11.26272201538086,-5.162745475769043
1700868054147260400,5.911260498046875,9.624682426452637,12.836400032043457,-7.430987358093262
1700868054164247000,5.9282470703125,7.460983753204346,14.599465370178223,-7.042996406555176
1700868054181235700,5.945235595703125,4.1302971839904785,16.39283561706543,-7.3014984130859375
1700868054198224000,5.962223876953125,1.2676630020141602,17.52672576904297,-10.834318161010742
1700868054215212500,5.979212646484375,-0.0750131607055664,18.00334930419922,-14.845170974731445
1700868054232200700,5.99620068359375,1.5788427591323853,17.257492065429688,-14.870210647583008
1700868054249189400,6.013189453125,6.014895439147949,16.43299102783203,-10.698748588562012
1700868054266175000,6.030175048828125,7.430373668670654,15.028411865234375,-3.671036720275879
1700868054283168800,6.047168701171875,4.923029899597168,13.236825942993164,3.5496673583984375
1700868054300138500,6.064138427734375,2.4635469913482666,12.531891822814941,5.573915481567383
1700868054317138400,6.081138427734375,2.1334495544433594,12.393291473388672,6.809340476989746
1700868054334136000,6.098135986328125,5.8387627601623535,11.80313491821289,12.09793472290039
1700868054351120100,6.1151201171875,7.466784477233887,8.142831802368164,22.470903396606445
1700868054368108300,6.1321083984375,6.029296875,6.41524600982666,26.199440002441406
1700868054385096700,6.1490966796875,2.7069649696350098,2.753512382507324,30.945598602294922
1700868054402070300,6.1660703125,-0.4757406711578369,-4.439769744873047,32.50844192504883
1700868054419073800,6.18307373046875,0.4033775329589844,-11.592297554016113,25.263181686401367
1700868054436062000,6.20006201171875,4.896576881408691,-16.246257781982422,13.432461738586426
1700868054453051000,6.21705078125,7.458847999572754,-19.84047508239746,5.250645160675049
1700868054470039000,6.2340390625,6.928493499755859,-21.906208038330078,-0.023820877075195312
1700868054487023600,6.251023681640625,5.173937797546387,-23.22708511352539,-3.390872001647949
1700868054504018000,6.268017822265625,4.542306423187256,-24.466657638549805,-5.186155796051025
1700868054521004500,6.285004638671875,4.712471961975098,-25.048612594604492,-6.624751091003418
1700868054537990100,6.301990234375,3.8281826972961426,-24.983577728271484,-7.872365951538086
1700868054554984000,6.31898388671875,1.696488857269287,-23.488101959228516,-9.490673065185547
1700868054571982000,6.335982177734375,0.022695064544677734,-21.32722282409668,-10.136697769165039
1700868054588956000,6.352955810546875,-0.4688231945037842,-20.154403686523438,-6.649603366851807
1700868054605949200,6.36994921875,-0.5555250644683838,-19.44723129272461,-0.8473515510559082
1700868054622935000,6.38693505859375,-1.896883249282837,-17.789548873901367,3.946475028991699
1700868054639923500,6.40392333984375,-5.723476886749268,-17.072269439697266,8.312627792358398
1700868054656911600,6.42091162109375,-11.391289710998535,-16.3855037689209,10.09312629699707
1700868054673888300,6.43788818359375,-12.160113334655762,-10.143610000610352,14.387514114379883
1700868054690881800,6.4548818359375,-6.634510040283203,-4.915858268737793,37.581581115722656
1700868054707879400,6.47187939453125,3.5333902835845947,2.2174623012542725,61.77056884765625
1700868054724865800,6.48886572265625,11.00159740447998,11.212958335876465,49.673095703125
1700868054741854200,6.505854248046875,7.3354902267456055,13.164024353027344,22.572065353393555
1700868054758831900,6.522831787109375,-0.02693796157836914,11.887985229492188,3.5231666564941406
1700868054775829200,6.539829345703125,1.6193761825561523,10.899660110473633,-4.047515392303467
1700868054792821000,6.556821044921875,7.247485160827637,10.90049934387207,-5.445319652557373
1700868054809808000,6.573807861328125,11.982475280761719,12.405932426452637,-4.144643306732178
1700868054826796300,6.59079638671875,13.217674255371094,14.540077209472656,-4.386326313018799
1700868054843784400,6.607784423828125,9.920377731323242,16.5718936920166,-7.745915412902832
1700868054860784000,6.6247841796875,5.152126789093018,18.439411163330078,-13.280035018920898
1700868054877763600,6.641763671875,2.3860135078430176,18.988122940063477,-17.335315704345703
1700868054894748000,6.658747802734375,2.138625383377075,17.609298706054688,-16.76282501220703
1700868054911735800,6.67573583984375,5.466937065124512,16.18736457824707,-12.553718566894531
1700868054928729300,6.692729248046875,7.339691162109375,14.166810989379883,-7.249090194702148
1700868054945715200,6.709715087890625,7.759647369384766,13.138461112976074,-4.00600004196167
1700868054962700500,6.726700439453125,6.249265670776367,13.332423210144043,1.4610824584960938
1700868054979695400,6.7436953125,1.2201284170150757,14.36688232421875,11.348417282104492
1700868054996680400,6.760680419921875,-3.0189733505249023,13.785554885864258,21.68490219116211
1700868055013668900,6.7776689453125,-0.6125483512878418,15.41854476928711,26.755233764648438
1700868055030657300,6.7946572265625,-2.914754629135132,12.627107620239258,32.22110366821289
1700868055047646000,6.81164599609375,-8.41804027557373,6.453812122344971,38.91273498535156
1700868055064634600,6.828634521484375,-6.768287658691406,-3.326089382171631,39.44916534423828
1700868055081622800,6.845622802734375,4.55938720703125,-11.7344331741333,28.693422317504883
1700868055098611200,6.862611083984375,12.472831726074219,-16.849267959594727,18.155672073364258
1700868055115599600,6.879599609375,11.585708618164062,-21.58466148376465,10.660970687866211
1700868055132578800,6.896578857421875,6.761551856994629,-24.07257652282715,4.740089416503906
1700868055149567700,6.913567626953125,1.3299071788787842,-24.667226791381836,0.30368900299072266
1700868055166566700,6.930566650390625,-0.9281165599822998,-24.235740661621094,-3.0191328525543213
1700868055183553300,6.94755322265625,0.9285440444946289,-24.277782440185547,-5.188230514526367
1700868055200531200,6.96453125,4.660084247589111,-24.527420043945312,-6.630130767822266
1700868055217530000,6.981530029296875,6.0699849128723145,-24.76797866821289,-6.530343055725098
1700868055234519000,6.99851904296875,3.7733407020568848,-23.715526580810547,-6.963829040527344
1700868055251506700,7.015506591796875,0.7368507385253906,-21.722497940063477,-7.004755020141602
1700868055268495400,7.032495361328125,-0.953732967376709,-19.795631408691406,-5.303078651428223
1700868055285478000,7.049477783203125,-2.454850435256958,-18.146642684936523,0.24309921264648438
1700868055302464800,7.06646484375,-4.296674728393555,-17.1922664642334,6.992007732391357
1700868055319453400,7.083453369140625,-5.162322998046875,-14.919681549072266,11.042884826660156
1700868055336444200,7.100444091796875,-6.389394760131836,-5.8832197189331055,7.604739189147949
1700868055353430500,7.117430419921875,-10.186321258544922,4.424027442932129,18.341129302978516
1700868055370420700,7.134420654296875,-11.018220901489258,7.305635929107666,47.229339599609375
1700868055387409700,7.15140966796875,-0.3918302059173584,10.267709732055664,54.876548767089844
1700868055404393500,7.1683935546875,13.832448959350586,14.407737731933594,30.855205535888672
1700868055421383000,7.1853828125,15.97970199584961,14.26817798614502,9.058639526367188
1700868055438370600,7.20237060546875,7.552955627441406,11.592754364013672,0.7617311477661133
1700868055455365600,7.21936572265625,1.6321322917938232,11.338003158569336,-3.701662063598633
1700868055472353500,7.236353515625,-0.6480660438537598,11.60824203491211,-6.402886867523193
1700868055489337300,7.25333740234375,0.4892845153808594,12.136445999145508,-8.214469909667969
1700868055506327600,7.27032763671875,2.934692621231079,12.256875038146973,-9.7734375
1700868055523324400,7.287324462890625,4.5694990158081055,12.489446640014648,-11.81592082977295
1700868055540299500,7.304299560546875,3.489471435546875,12.508201599121094,-14.696796417236328
1700868055557300200,7.32130029296875,1.1004772186279297,12.434369087219238,-17.277786254882812
1700868055574285800,7.338285888671875,-0.6809420585632324,12.081266403198242,-16.614233016967773
1700868055591259000,7.3552587890625,-1.81874418258667,11.127236366271973,-11.477667808532715
1700868055608259800,7.372259765625,0.4525892734527588,10.738333702087402,-7.297125816345215
1700868055625256400,7.38925634765625,3.3221535682678223,10.672403335571289,-2.6949872970581055
1700868055642230800,7.406230712890625,3.8703715801239014,11.452598571777344,1.8327951431274414
1700868055659229400,7.4232294921875,3.335949420928955,12.648479461669922,8.263460159301758
1700868055676215300,7.44021533203125,5.547741889953613,16.7857666015625,15.597025871276855
1700868055693208300,7.457208251953125,5.366772174835205,17.187625885009766,26.36973762512207
1700868055710194400,7.4741943359375,1.0236276388168335,15.465217590332031,31.285663604736328
1700868055727183000,7.49118310546875,-4.088681221008301,9.222395896911621,33.85988235473633
1700868055744171500,7.508171630859375,-3.1666016578674316,-0.5075030326843262,31.41436767578125
1700868055761160000,7.525159912109375,4.4514994621276855,-8.859355926513672,21.999290466308594
1700868055778144000,7.54214404296875,11.929473876953125,-15.613154411315918,13.255409240722656
1700868055795136000,7.559135986328125,14.228455543518066,-20.34949493408203,6.8296098709106445
1700868055812125400,7.57612548828125,9.995075225830078,-23.658855438232422,1.9708986282348633
1700868055829113600,7.593113525390625,3.4828743934631348,-25.307533264160156,-2.2127833366394043
1700868055846102000,7.61010205078125,-0.8630433082580566,-26.55194854736328,-6.316483974456787
1700868055863078400,7.627078369140625,0.6509923934936523,-27.29547119140625,-9.237884521484375
1700868055880078800,7.644078857421875,2.495795726776123,-27.229610443115234,-9.505135536193848
1700868055897067000,7.66106689453125,2.2648189067840576,-25.273468017578125,-9.316497802734375
1700868055914055700,7.6780556640625,0.19043469429016113,-22.45037269592285,-7.159141540527344
1700868055931044000,7.695044189453125,-1.6976418495178223,-19.983753204345703,-2.525207281112671
1700868055948032300,7.7120322265625,-2.4327938556671143,-17.971691131591797,3.385441303253174
1700868055965021000,7.72902099609375,-3.545285224914551,-15.683906555175781,12.879560470581055
1700868055982018300,7.746018310546875,-7.262906551361084,-11.887919425964355,25.172958374023438
1700868055998987000,7.762987060546875,-2.2494983673095703,-4.9470109939575195,14.212522506713867
1700868056015983600,7.779983642578125,-1.474341869354248,9.116446495056152,-1.9185972213745117
1700868056032977200,7.79697705078125,-11.03704833984375,9.974823951721191,17.18199920654297
1700868056049952300,7.8139521484375,-6.689571380615234,7.565064907073975,46.053855895996094
1700868056066951400,7.830951416015625,1.6595141887664795,9.014480590820312,55.20381546020508
1700868056083940000,7.847940185546875,9.720023155212402,14.014204025268555,25.39476776123047
1700868056100928300,7.86492822265625,9.434539794921875,13.115690231323242,0.0033273696899414062
1700868056117914400,7.881914306640625,1.7750756740570068,9.505529403686523,-7.059989929199219
1700868056134907400,7.898907470703125,-1.633450984954834,8.148616790771484,-9.295015335083008
1700868056151893500,7.9158935546875,0.568397045135498,7.732626438140869,-10.320311546325684
1700868056168882000,7.9328818359375,4.311008930206299,7.7058820724487305,-9.584896087646484
1700868056185859800,7.94985986328125,7.096907615661621,9.161996841430664,-10.643278121948242
1700868056202856200,7.966856201171875,6.19187068939209,11.018394470214844,-13.114347457885742
1700868056219849700,7.983849609375,2.905576705932617,12.587347030639648,-15.527966499328613
1700868056236835300,8.00083544921875,0.878511905670166,13.8653564453125,-16.921409606933594
1700868056253820000,8.01781982421875,1.3978022336959839,13.318395614624023,-13.93653678894043
1700868056270816500,8.03481640625,3.9594576358795166,12.397355079650879,-8.020373344421387
1700868056287800800,8.05180078125,4.5287017822265625,12.526155471801758,-4.397499084472656
1700868056304789200,8.068789306640625,3.1541290283203125,12.766839027404785,-1.7075614929199219
1700868056321774300,8.0857744140625,1.705459475517273,13.630061149597168,3.209317207336426
1700868056338766000,8.10276611328125,1.8213967084884644,17.475786209106445,14.554430961608887
1700868056355754500,8.11975439453125,4.647500514984131,18.80301284790039,26.59031105041504
1700868056372743000,8.136742919921875,6.250888824462891,18.262889862060547,28.368240356445312
1700868056389720800,8.153720947265626,0.11626076698303223,14.615148544311523,31.510133743286133
1700868056406719500,8.170719482421875,-8.334221839904785,3.9600324630737305,34.95646286010742
1700868056423700700,8.18770068359375,-6.1909403800964355,-7.072962760925293,27.323585510253906
1700868056440693000,8.20469287109375,5.014724254608154,-16.36899185180664,15.463830947875977
1700868056457685000,8.22168505859375,14.085589408874512,-21.71363067626953,7.454555511474609
1700868056474673400,8.23867333984375,12.839319229125977,-25.26081657409668,4.112189292907715
1700868056491661600,8.25566162109375,5.871288299560547,-27.77554702758789,2.148040294647217
1700868056508635000,8.272634765625,-0.16573381423950195,-28.872928619384766,-1.3106627464294434
1700868056525643500,8.2896435546875,-3.3078038692474365,-27.88524627685547,-5.746312141418457
1700868056542627000,8.306626953125,-1.6957759857177734,-26.41146469116211,-9.971732139587402
1700868056559615500,8.323615478515626,1.9490556716918945,-25.218358993530273,-10.442096710205078
1700868056576605000,8.34060498046875,3.4705708026885986,-24.347118377685547,-5.690690040588379
1700868056593592300,8.35759228515625,3.8137288093566895,-22.59290313720703,0.6898632049560547
1700868056610580700,8.374580810546876,3.5634331703186035,-19.777023315429688,4.804515838623047
1700868056627569200,8.391569091796875,0.7078001499176025,-17.24242401123047,9.169113159179688
1700868056644562400,8.4085625,-1.7441191673278809,-15.497843742370605,15.114340782165527
1700868056661547500,8.425547607421874,-3.04484224319458,-9.35452651977539,15.600349426269531
1700868056678532900,8.442532958984375,-7.05806827545166,2.727721691131592,19.464927673339844
1700868056695508500,8.459508544921874,-12.98025131225586,8.839864730834961,38.276092529296875
1700868056712508700,8.4765087890625,-5.044746398925781,11.375846862792969,48.6116828918457
1700868056729502200,8.493502197265625,7.643335342407227,14.44456672668457,34.638282775878906
1700868056746488000,8.510488037109376,7.057892799377441,14.239646911621094,18.04245376586914
1700868056763476500,8.5274765625,0.26310062408447266,11.891793251037598,7.189418792724609
1700868056780449000,8.544448974609375,-1.6949524879455566,10.331833839416504,-0.09281444549560547
1700868056797453300,8.561453369140626,-0.2452840805053711,9.723328590393066,-4.018825531005859
1700868056814441500,8.57844140625,1.7855799198150635,9.906414031982422,-6.066457748413086
1700868056831430100,8.59543017578125,5.034566402435303,11.009425163269043,-7.198134422302246
1700868056848418600,8.61241845703125,6.547996520996094,12.540484428405762,-8.119486808776855
1700868056865406700,8.62940673828125,4.303745746612549,13.167423248291016,-10.081551551818848
1700868056882395100,8.64639501953125,-0.04008197784423828,14.052051544189453,-14.065069198608398
1700868056899382000,8.663382080078126,-2.855473279953003,15.600940704345703,-17.995676040649414
1700868056916371500,8.680371337890625,-2.3587090969085693,16.602392196655273,-16.908594131469727
1700868056933363000,8.697363037109374,-0.2865431308746338,16.038095474243164,-9.996307373046875
1700868056950349000,8.71434912109375,1.7355821132659912,14.071418762207031,-2.2241859436035156
1700868056967329500,8.73132958984375,4.083714962005615,11.604437828063965,1.5354442596435547
1700868056984325600,8.74832568359375,3.4966373443603516,10.88370132446289,4.158133506774902
1700868057001314000,8.76531396484375,1.9128835201263428,12.394845962524414,8.194137573242188
1700868057018302700,8.782302734375,3.949801445007324,14.295248031616211,14.668481826782227
1700868057035291000,8.799290771484374,6.474590301513672,12.072093963623047,20.722978591918945
1700868057052279300,8.816279296875,5.214423656463623,13.357942581176758,21.158355712890625
1700868057069268000,8.83326806640625,0.8659076690673828,13.559202194213867,26.078941345214844
1700868057086258700,8.8502587890625,-0.6386914253234863,5.023943901062012,36.22865676879883
1700868057103241700,8.86724169921875,3.629434108734131,-6.389078140258789,33.8644905090332
1700868057120222200,8.88422216796875,10.8040189743042,-13.958466529846191,20.962749481201172
1700868057137221000,8.90122119140625,12.449934005737305,-19.273868560791016,11.405622482299805
1700868057154205000,8.918204833984374,8.992140769958496,-22.81061553955078,6.444568157196045
1700868057171200300,8.9352001953125,3.97043514251709,-25.100561141967773,3.3185973167419434
1700868057188177400,8.952177490234375,-0.018593311309814453,-25.316051483154297,-0.9124548435211182
1700868057205166800,8.969166748046876,-2.8357529640197754,-25.372413635253906,-3.4404516220092773
1700868057222152400,8.98615234375,-2.7633461952209473,-25.200176239013672,-4.509334087371826
1700868057239146000,9.00314599609375,0.09624814987182617,-24.485614776611328,-5.195270538330078
1700868057256137000,9.020136962890625,3.0897791385650635,-22.235143661499023,-5.396501541137695
1700868057273122300,9.037122314453125,4.138169288635254,-19.91886329650879,-3.351763963699341
1700868057290109000,9.05410888671875,2.938430070877075,-18.304317474365234,1.1390793323516846
1700868057307095300,9.07109521484375,0.5336997509002686,-16.46143341064453,8.095985412597656
1700868057324087600,9.088087646484375,-3.0794262886047363,-13.684728622436523,14.054628372192383
1700868057341073000,9.105072998046875,-3.9862842559814453,-8.7550630569458,9.23880386352539
1700868057358063400,9.1220634765625,-6.674098491668701,-0.9242587089538574,5.080251216888428
1700868057375061500,9.1390615234375,-8.460241317749023,3.781980037689209,17.348121643066406
1700868057392039700,9.156039794921876,-0.2583155632019043,5.19564962387085,40.38130569458008
1700868057409035800,9.173035888671874,8.757246971130371,8.327381134033203,47.521636962890625
1700868057426024200,9.190024169921875,14.612218856811523,13.39639663696289,31.460939407348633
1700868057443012600,9.2070126953125,12.543088912963867,14.161942481994629,10.198034286499023
1700868057460001000,9.2240009765625,4.489028453826904,11.439139366149902,-0.9743127822875977
1700868057476989200,9.2409892578125,-0.8441777229309082,10.047574996948242,-7.714836120605469
1700868057493978000,9.25797802734375,-2.617692708969116,10.234150886535645,-12.648720741271973
1700868057510967000,9.274967041015625,-1.5746238231658936,10.877012252807617,-13.860183715820312
1700868057527939300,9.291939208984376,1.1834402084350586,12.4772367477417,-12.389927864074707
1700868057544940300,9.308940185546875,2.6301426887512207,14.092734336853027,-11.014041900634766
1700868057561934000,9.32593408203125,2.5950002670288086,14.908744812011719,-11.1978120803833
1700868057578909700,9.34290966796875,2.0442347526550293,14.440221786499023,-11.433558464050293
1700868057595908400,9.359908447265624,0.5614640712738037,13.737500190734863,-11.131864547729492
1700868057612896500,9.376896484375,-0.12494468688964844,13.014019012451172,-9.067626953125
1700868057629885000,9.393885009765626,0.9250602722167969,13.147319793701172,-4.819812774658203
1700868057646873600,9.41087353515625,2.4875078201293945,13.339619636535645,3.2596960067749023
1700868057663859200,9.427859130859375,5.527682304382324,13.349132537841797,13.924537658691406
1700868057680852700,9.444852783203125,9.701125144958496,15.91788101196289,21.04524040222168
1700868057697834000,9.461833984375,10.775091171264648,14.691783905029297,27.09207534790039
1700868057714831400,9.478831298828124,8.16504192352295,15.811111450195312,25.952632904052734
1700868057731815200,9.495815185546874,-1.976905107498169,11.440221786499023,33.88675308227539
1700868057748803600,9.512803466796875,-12.958399772644043,-0.3148069381713867,39.500709533691406
1700868057765792800,9.529792724609376,-4.454774856567383,-11.225412368774414,26.750131607055664
1700868057782776600,9.546776611328125,10.9893159866333,-19.019285202026367,11.917360305786133
1700868057799773000,9.56377294921875,17.128820419311523,-23.602710723876953,4.583085060119629
1700868057816757500,9.580757568359376,11.462996482849121,-26.043975830078125,1.9056788682937622
1700868057833745700,9.59774560546875,2.5690298080444336,-26.362516403198242,0.5490009784698486
1700868057850732300,9.614732177734375,-2.9150614738464355,-24.846330642700195,-1.9702118635177612
1700868057867711200,9.631711181640625,-3.3134994506835938,-23.589820861816406,-4.563316822052002
1700868057884703200,9.648703125,-0.24438858032226562,-23.366310119628906,-6.6431989669799805
1700868057901699300,9.66569921875,3.6894733905792236,-22.560096740722656,-7.774086952209473
1700868057918687700,9.682687744140624,5.427486896514893,-21.292877197265625,-6.985060691833496
1700868057935676000,9.699676025390625,4.515998840332031,-20.30116081237793,-3.212822914123535
1700868057952661000,9.716660888671875,2.349863290786743,-18.987503051757812,1.2446751594543457
1700868057969653500,9.733653564453125,0.9209976196289062,-17.60173797607422,4.447385311126709
1700868057986643700,9.750643798828126,-0.5600223541259766,-16.249292373657227,6.855452060699463
1700868058003629800,9.7676298828125,-1.9958338737487793,-15.395950317382812,8.811840057373047
1700868058020609300,9.784609375,-2.485233783721924,-12.172791481018066,8.812410354614258
1700868058037589000,9.801589111328125,-4.993659496307373,-1.3989322185516357,12.867691993713379
1700868058054594800,9.8185947265625,-9.874505043029785,5.345422267913818,36.010948181152344
1700868058071583200,9.835583251953125,-5.621487617492676,7.422386169433594,57.56210708618164
1700868058088571600,9.852571533203125,7.7788262367248535,11.943809509277344,46.76044464111328
1700868058105560300,9.869560302734374,17.112808227539062,15.054678916931152,21.209033966064453
1700868058122540300,9.886540283203125,13.758508682250977,12.998448371887207,6.104198455810547
1700868058139537000,9.903536865234376,5.8156208992004395,10.745454788208008,-0.38008785247802734
1700868058156522800,9.920522705078126,1.4271674156188965,10.82201099395752,-5.861288070678711
1700868058173505500,9.937505615234375,0.15631699562072754,11.091641426086426,-9.116677284240723
1700868058190499600,9.95449951171875,1.510498285293579,11.531442642211914,-9.445768356323242
1700868058207492600,9.97149267578125,2.981844425201416,11.91964340209961,-8.778172492980957
1700868058224468500,9.988468505859375,3.006502151489258,12.75472354888916,-9.071834564208984
1700868058241468700,10.00546875,1.0962612628936768,13.00023078918457,-10.272024154663086
1700868058258454300,10.022454345703125,-0.9852261543273926,12.4263916015625,-11.375353813171387
1700868058275444000,10.03944384765625,-2.9827263355255127,11.759013175964355,-11.34235954284668
1700868058292432400,10.056432373046874,-2.7430319786071777,10.767345428466797,-8.275654792785645
1700868058309420500,10.073420654296875,0.5235471725463867,9.113218307495117,-2.813628673553467
1700868058326409200,10.0904091796875,4.270105361938477,8.307732582092285,1.212773323059082
1700868058343397600,10.107397705078125,3.9133872985839844,8.109153747558594,4.032082557678223
1700868058360368600,10.12436865234375,1.7182338237762451,8.908788681030273,6.77051305770874
1700868058377374200,10.141374267578126,2.394486665725708,12.28261947631836,12.379305839538574
1700868058394362600,10.158362548828125,4.749267101287842,13.267321586608887,24.73078155517578
1700868058411352000,10.17535205078125,4.272228717803955,11.464683532714844,31.294376373291016
1700868058428337000,10.1923369140625,0.17206573486328125,7.467246055603027,31.377429962158203
1700868058445330200,10.209330078125,-4.452681541442871,-0.16385555267333984,29.404544830322266
1700868058462316300,10.22631640625,-1.663097620010376,-7.570974349975586,21.860103607177734
1700868058479304700,10.2433046875,5.237788200378418,-14.161002159118652,13.248340606689453
1700868058496290000,10.2602900390625,11.327242851257324,-19.068405151367188,6.863430023193359
1700868058513283800,10.277283935546874,12.670308113098145,-22.46513557434082,2.9362330436706543
1700868058530269700,10.294269775390624,8.258687973022461,-24.123178482055664,0.3641766309738159
1700868058547258000,10.311258056640625,3.0799503326416016,-24.686431884765625,-1.5314104557037354
1700868058564246500,10.32824658203125,1.5558240413665771,-24.876338958740234,-3.263357162475586
1700868058581238000,10.345238037109375,2.9885973930358887,-25.063716888427734,-4.7467193603515625
1700868058598211000,10.362211181640625,5.334025859832764,-24.545412063598633,-5.967441082000732
1700868058615211000,10.3792109375,5.714171886444092,-23.280841827392578,-5.720417022705078
1700868058632200200,10.3962001953125,3.833676815032959,-21.860313415527344,-3.4597251415252686
1700868058649188400,10.413188232421875,2.095398187637329,-20.327577590942383,-0.5549306869506836
1700868058666176800,10.4301767578125,0.1686863899230957,-18.66092872619629,4.199306488037109
1700868058683165000,10.4471650390625,-1.6795449256896973,-16.708633422851562,9.271196365356445
1700868058700149200,10.464149169921875,-4.923500061035156,-13.805675506591797,8.981664657592773
1700868058717146000,10.48114599609375,-10.033138275146484,-5.25551176071167,6.3850178718566895
1700868058734130200,10.498130126953125,-13.567146301269531,0.4361724853515625,21.813003540039062
1700868058751118600,10.51511865234375,-9.705585479736328,2.997528553009033,53.74388885498047
1700868058768094500,10.532094482421876,2.3524770736694336,8.038238525390625,60.69191360473633
1700868058785089300,10.54908935546875,13.973262786865234,15.244640350341797,35.19489288330078
1700868058802084400,10.56608447265625,10.772384643554688,14.977798461914062,12.794944763183594
1700868058819065000,10.583065185546875,1.5400550365447998,12.886302947998047,3.1669788360595703
1700868058836050200,10.60005029296875,-2.7598061561584473,11.948770523071289,-1.062452793121338
1700868058853042000,10.6170419921875,-2.3577749729156494,9.8958740234375,-3.8604531288146973
1700868058870028300,10.6340283203125,2.829989433288574,8.526548385620117,-6.120535373687744
1700868058887017200,10.651017333984376,6.05507755279541,8.040945053100586,-8.394824981689453
1700868058904003800,10.66800390625,5.424901962280273,8.527399063110352,-10.948097229003906
1700868058920993000,10.684992919921875,0.9898266792297363,8.425562858581543,-11.985272407531738
1700868058937982700,10.701982666015626,-2.655219554901123,8.03296947479248,-12.6347074508667
1700868058954971100,10.71897119140625,-3.1237051486968994,8.226663589477539,-12.445219039916992
1700868058971959600,10.73595947265625,-0.577256441116333,8.645475387573242,-11.220718383789062
1700868058988956200,10.7529560546875,1.426215648651123,8.567983627319336,-7.623297214508057
1700868059005933800,10.769933837890624,1.7075939178466797,7.8043060302734375,-3.112917423248291
1700868059022932700,10.7869326171875,0.7807943820953369,7.33267068862915,0.5038151741027832
1700868059039929900,10.803929931640624,-0.7974085807800293,8.624507904052734,2.9793648719787598
1700868059056909300,10.820909423828125,-0.2173604965209961,13.106523513793945,5.146571159362793
1700868059073898000,10.83789794921875,1.8829253911972046,14.199300765991211,16.20301628112793
1700868059090886100,10.85488623046875,3.654064178466797,13.787664413452148,26.081586837768555
1700868059107864300,10.8718642578125,3.8385512828826904,10.645975112915039,31.2131290435791
1700868059124860400,10.8888603515625,2.066514492034912,1.8319053649902344,33.72401809692383
1700868059141854500,10.9058544921875,2.6160247325897217,-9.029073715209961,27.950897216796875
1700868059158839800,10.92283984375,5.5223236083984375,-14.883088111877441,15.616812705993652
1700868059175828200,10.939828125,6.780334949493408,-18.824726104736328,7.037972927093506
1700868059192816400,10.95681640625,5.9504714012146,-21.782615661621094,2.0391733646392822
1700868059209805000,10.97380517578125,3.4191267490386963,-23.49813461303711,-1.2650787830352783
1700868059226792200,10.990792236328126,1.0834715366363525,-24.664588928222656,-4.2526092529296875
1700868059243782700,11.00778271484375,0.683354377746582,-25.277328491210938,-6.401810646057129
1700868059260770000,11.02477001953125,1.423811674118042,-25.101289749145508,-8.027880668640137
1700868059277761000,11.041760986328125,2.3625807762145996,-24.137136459350586,-8.101801872253418
1700868059294733800,11.05873388671875,2.579395055770874,-23.602142333984375,-5.701226234436035
1700868059311737600,11.075737548828124,2.392474889755249,-23.269691467285156,-2.853105068206787
1700868059328721000,11.092720947265626,1.4714024066925049,-22.875762939453125,0.2369213104248047
1700868059345711900,11.1097119140625,1.8532023429870605,-21.99624252319336,3.1145100593566895
1700868059362700300,11.1267001953125,2.0622682571411133,-21.050960540771484,6.866578102111816
1700868059379693800,11.14369384765625,-1.1140761375427246,-20.130603790283203,10.479000091552734
1700868059396674300,11.16067431640625,-6.4778594970703125,-18.45641326904297,11.219395637512207
1700868059413667800,11.177667724609375,-8.769115447998047,-12.683021545410156,13.286396026611328
1700868059430654000,11.194654052734375,-6.907414436340332,-8.764073371887207,32.45344543457031
1700868059447642000,11.21164208984375,3.061711311340332,-0.772848904132843,55.106414794921875
1700868059464630500,11.228630615234374,13.831134796142578,9.552451133728027,51.2965087890625
1700868059481608400,11.2456083984375,11.71245002746582,15.052828788757324,29.85298728942871
1700868059498606600,11.262606689453126,1.774207592010498,15.32160758972168,15.725374221801758
1700868059515596000,11.279595947265625,-4.062095642089844,14.359183311462402,8.822565078735352
1700868059532584000,11.296583984375,-3.5914723873138428,13.375421524047852,3.4476728439331055
1700868059549572000,11.313572021484376,0.09129595756530762,13.19858455657959,-0.45949649810791016
1700868059566567200,11.330567138671874,4.991117000579834,13.721966743469238,-3.541886329650879
1700868059583549200,11.347549072265625,7.812284469604492,14.861429214477539,-6.363391876220703
1700868059600526800,11.36452685546875,6.533506870269775,16.063587188720703,-8.547385215759277
1700868059617525800,11.38152587890625,2.1039175987243652,16.571928024291992,-9.623157501220703
1700868059634514200,11.39851416015625,-3.600797653198242,17.828569412231445,-11.353582382202148
1700868059651499000,11.4154990234375,-6.118167400360107,17.435340881347656,-9.96963119506836
1700868059668494000,11.432494140625,-1.8077635765075684,16.09822654724121,-6.440426826477051
1700868059685460500,11.44946044921875,3.185209274291992,14.288339614868164,-2.4631357192993164
1700868059702457000,11.46645703125,5.137386322021484,11.790687561035156,2.6805219650268555
1700868059719455000,11.483455078125,1.8650609254837036,10.620535850524902,7.033626556396484
1700868059736445200,11.500445068359374,-5.916863918304443,11.282306671142578,10.306079864501953
1700868059753427200,11.51742724609375,-7.911901950836182,12.730506896972656,17.408145904541016
1700868059770419000,11.5344189453125,-0.885348916053772,13.48698616027832,26.80791664123535
1700868059787411700,11.55141162109375,4.589172840118408,9.069183349609375,35.510555267333984
1700868059804397800,11.568397705078125,1.715969443321228,5.970428466796875,36.26658248901367
1700868059821386200,11.58538623046875,-6.007096290588379,-0.13851451873779297,36.508079528808594
1700868059838374400,11.60237451171875,-6.27194881439209,-8.199362754821777,33.133724212646484
1700868059855363000,11.619363037109375,-1.0633482933044434,-16.291423797607422,25.56391143798828
1700868059872351000,11.63635107421875,3.464940309524536,-21.73104476928711,16.107175827026367
1700868059889339600,11.653339599609374,5.843371391296387,-24.56466293334961,7.063018798828125
1700868059906327800,11.670327880859375,4.773754119873047,-25.60540008544922,0.7853055596351624
1700868059923316200,11.687316162109376,1.9592373371124268,-25.284500122070312,-2.779222249984741
1700868059940304400,11.704304443359375,-0.09573864936828613,-25.01500701904297,-3.708383083343506
1700868059957293000,11.72129296875,-0.15663647651672363,-25.82819366455078,-2.1489341259002686
1700868059974281200,11.73828125,2.854872703552246,-26.859712600708008,-0.6329081654548645
1700868059991270000,11.755269775390625,7.558839797973633,-26.530664443969727,-1.8682446479797363
1700868060008258000,11.772258056640625,7.470486164093018,-24.66260528564453,-4.226471900939941
1700868060025246500,11.78924658203125,2.329678535461426,-22.385009765625,-4.566062927246094
1700868060042221800,11.806221923828126,-3.436830520629883,-20.254650115966797,-0.5787208080291748
1700868060059225600,11.8232255859375,-7.428213119506836,-18.20745277404785,7.2164506912231445
1700868060076200000,11.840199951171876,-9.075723648071289,-15.47274398803711,11.960792541503906
1700868060093201200,11.857201171875,-9.23421573638916,-9.463741302490234,9.051146507263184
1700868060110188000,11.87418798828125,-9.610636711120605,-4.9512786865234375,14.19338607788086
1700868060127176700,11.8911767578125,-8.641958236694336,-3.3495688438415527,27.96624755859375
1700868060144165000,11.9081650390625,-4.443598747253418,-2.457908868789673,39.290061950683594
1700868060161143000,11.92514306640625,2.289433479309082,2.340609550476074,33.8546142578125
1700868060178141700,11.9421416015625,6.336365699768066,7.9923176765441895,25.955726623535156
1700868060195129900,11.9591298828125,3.882031202316284,7.458340644836426,23.29814910888672
1700868060212107800,11.976107666015626,2.4325857162475586,7.213857650756836,13.996305465698242
1700868060229107000,11.99310693359375,2.8731637001037598,7.402702331542969,4.052420616149902
1700868060246095000,12.01009521484375,4.452273845672607,8.562662124633789,-2.805147647857666
1700868060263083500,12.02708349609375,6.209414482116699,10.635886192321777,-4.8086442947387695
1700868060280072000,12.044072021484375,4.844554901123047,13.096456527709961,-3.253039836883545
1700868060297060400,12.061060302734376,0.971515417098999,15.835305213928223,-4.023083686828613
1700868060314048000,12.078048095703124,-2.2709717750549316,18.82168197631836,-9.001551628112793
1700868060331037000,12.095036865234375,-7.386923789978027,21.429609298706055,-13.902841567993164
1700868060348025300,12.112025390625,-6.633606910705566,21.19089698791504,-12.755925178527832
1700868060365003800,12.129003662109374,1.374861478805542,20.90449333190918,-5.919492244720459
1700868060381991700,12.14599169921875,1.7150542736053467,19.607934951782227,2.179300308227539
1700868060398990300,12.162990234375,-2.9361865520477295,16.698238372802734,5.0178937911987305
1700868060415980800,12.179980712890625,-5.453790664672852,14.572005271911621,2.292165756225586
1700868060432967200,12.19696728515625,-8.002593040466309,15.266640663146973,4.687077522277832
1700868060449957600,12.21395751953125,-9.95586109161377,19.433292388916016,22.619178771972656
1700868060466944000,12.230944091796875,-5.309786319732666,17.359325408935547,37.42539978027344
1700868060483932200,12.24793212890625,-1.5685508251190186,13.48822021484375,36.433292388916016
1700868060500920800,12.2649208984375,-7.562790393829346,7.6759443283081055,32.107994079589844
1700868060517906200,12.28190625,-11.116588592529297,-0.7562265396118164,31.128604888916016
1700868060534899700,12.298899658203124,-7.092738628387451,-9.114446640014648,22.775253295898438
1700868060551885600,12.315885498046875,1.277637004852295,-17.239227294921875,19.691537857055664
1700868060568874000,12.3328740234375,8.31269645690918,-22.974102020263672,18.659053802490234
1700868060585862400,12.3498623046875,10.927395820617676,-26.10744857788086,13.85732364654541
1700868060602839800,12.36683984375,10.897193908691406,-29.5563907623291,10.489232063293457
1700868060619839000,12.3838388671875,8.01508617401123,-33.70753479003906,6.363519191741943
1700868060636827100,12.4008271484375,5.202507019042969,-33.68967056274414,-1.4218761920928955
1700868060653812500,12.4178125,3.215498447418213,-31.752159118652344,-6.31675910949707
1700868060670804200,12.43480419921875,3.9887967109680176,-30.81151580810547,-3.853126049041748
1700868060696276700,12.46027685546875,8.845958709716797,-29.28492546081543,3.9397525787353516
1700868060713277200,12.477277099609376,9.117016792297363,-27.014293670654297,7.953554153442383
1700868060730255400,12.49425537109375,6.28538703918457,-24.400283813476562,9.072707176208496
1700868060747246800,12.511246826171876,-0.9481849670410156,-22.12424087524414,10.592171669006348
1700868060764236800,12.52823681640625,-8.30706787109375,-21.265003204345703,18.37176513671875
1700868060781219600,12.545219482421874,-12.196603775024414,-17.703411102294922,22.45138931274414
1700868060798216700,12.562216796875,-11.815701484680176,-14.141057014465332,22.062421798706055
1700868060815198200,12.5791982421875,1.5597175359725952,-10.768877029418945,29.00732421875
1700868060832183300,12.596183349609374,10.335050582885742,-3.042990207672119,52.637939453125
1700868060849169700,12.613169677734374,4.641592979431152,7.521798133850098,57.6508903503418
1700868060866162200,12.630162109375,-6.0912885665893555,16.583402633666992,38.72985076904297
1700868060883148500,12.6471484375,-10.609485626220703,19.373952865600586,22.22076988220215
1700868060900148500,12.6641484375,-4.745748996734619,18.858369827270508,12.752693176269531
1700868060917136000,12.681135986328124,4.136331558227539,18.800922393798828,8.998795509338379
1700868060934121200,12.698121337890624,7.9903178215026855,21.671192169189453,7.286391258239746
1700868060951113700,12.71511376953125,4.963346481323242,24.1213436126709,0.9727869033813477
1700868060968100900,12.732100830078124,-2.3150339126586914,27.028526306152344,-10.056578636169434
1700868060985088000,12.749087890625,-8.3142728805542,29.2100830078125,-17.555503845214844
1700868061002068000,12.76606787109375,-9.446870803833008,30.821887969970703,-18.701139450073242
1700868061019064800,12.78306494140625,-7.43110466003418,31.61886215209961,-10.552390098571777
1700868061036053000,12.800052978515625,-8.749893188476562,30.802961349487305,-2.4749579429626465
1700868061053054500,12.817054443359375,-7.678980827331543,28.36349105834961,3.415315628051758
1700868061070045400,12.83404541015625,-1.3681012392044067,24.329627990722656,11.354622840881348
1700868061087019500,12.85101953125,3.2223446369171143,18.672321319580078,23.06310272216797
1700868061104006100,12.868006103515626,4.769780158996582,12.64736557006836,31.914939880371094
1700868061120994600,12.88499462890625,1.1381698846817017,7.373747825622559,41.4104118347168
1700868061137981200,12.901981201171875,-5.34505558013916,2.5937581062316895,49.337711334228516
1700868061154969900,12.918969970703126,-10.692667007446289,-6.760356426239014,54.31230545043945
1700868061171960800,12.9359609375,-11.572572708129883,-12.634273529052734,47.05230712890625
1700868061188948000,12.952947998046875,-5.053615570068359,-17.13902473449707,36.283607482910156
1700868061205937200,12.969937255859374,4.709547996520996,-22.35877227783203,27.907773971557617
1700868061222925000,12.986925048828125,9.3684663772583,-25.525287628173828,18.430917739868164
1700868061239903200,13.0039033203125,8.015960693359375,-27.03134536743164,11.642945289611816
1700868061256902400,13.02090234375,6.198023796081543,-26.32236099243164,8.325366973876953
1700868061273890600,13.037890625,7.603075981140137,-27.515920639038086,8.106466293334961
1700868061290878200,13.054878173828126,13.758870124816895,-30.579456329345703,6.775859832763672
1700868061307867600,13.07186767578125,19.734949111938477,-32.94865036010742,1.6371009349822998
1700868061324854800,13.088854736328125,18.81340789794922,-32.62913131713867,-4.621541500091553
1700868061341833700,13.105833740234376,11.132822036743164,-30.865467071533203,-7.459223747253418
1700868061358829000,13.1228291015625,3.5285887718200684,-28.438884735107422,-6.856135368347168
1700868061375823000,13.139822998046874,1.2025549411773682,-26.464324951171875,-3.6528210639953613
1700868061392808200,13.15680810546875,2.3566055297851562,-24.48802947998047,0.44628381729125977
1700868061409797000,13.173797119140625,3.3863284587860107,-23.21239471435547,3.3858320713043213
1700868061426784800,13.19078466796875,2.1844334602355957,-22.294078826904297,4.860660552978516
1700868061443774200,13.207774169921874,-4.758286476135254,-21.618675231933594,8.06431770324707
1700868061460761600,13.22476171875,-13.474580764770508,-20.841856002807617,7.29392147064209
1700868061477747700,13.241747802734375,-16.27542495727539,-21.711647033691406,10.095685005187988
1700868061494740700,13.25874072265625,-8.367392539978027,-24.014482498168945,26.444133758544922
1700868061511727600,13.2757275390625,7.393886566162109,-16.670475006103516,50.19197082519531
1700868061528714800,13.29271484375,5.326974868774414,-3.143911361694336,64.82931518554688
1700868061545704000,13.309703857421875,-8.102697372436523,6.058812618255615,60.87439727783203
1700868061562687200,13.326687255859374,-6.236011505126953,10.807950019836426,37.36722183227539
1700868061579675000,13.3436748046875,2.5765035152435303,11.696063995361328,15.638083457946777
1700868061596665300,13.360665283203126,6.616914749145508,11.61416244506836,5.487382888793945
1700868061613659600,13.37765966796875,10.112186431884766,13.71168041229248,3.5093460083007812
1700868061630646800,13.394646728515625,11.162284851074219,18.06606101989746,6.62119197845459
1700868061647634200,13.41163427734375,8.46597957611084,23.20223045349121,4.569974899291992
1700868061664621300,13.428621337890625,4.800373077392578,27.648836135864258,-0.9700088500976562
1700868061681610500,13.445610595703124,-0.49254095554351807,28.8851261138916,-4.737955570220947
1700868061698599000,13.462598876953125,-4.484681129455566,27.507190704345703,-9.047840118408203
1700868061715576600,13.47957666015625,-5.814897537231445,25.5830078125,-13.548102378845215
1700868061732574500,13.496574462890624,-5.9930739402771,23.875070571899414,-12.556833267211914
1700868061749563600,13.513563720703125,-7.3732218742370605,21.386953353881836,-6.757001876831055
1700868061766541000,13.530541015625,-6.362792015075684,18.6113338470459,0.0052471160888671875
1700868061783540700,13.547540771484375,-3.7885141372680664,16.404823303222656,7.6819868087768555
1700868061800518000,13.564517822265625,-3.032407760620117,14.77863883972168,16.3319091796875
1700868061817517300,13.581517333984374,-2.6431031227111816,13.80642032623291,23.29036521911621
1700868061834505000,13.5985048828125,-1.1920586824417114,13.123668670654297,30.461925506591797
1700868061851494000,13.615493896484375,-3.311889886856079,10.38731575012207,38.6876335144043
1700868061868481300,13.632481201171874,-5.923742294311523,5.625265598297119,47.10884475708008
1700868061885470200,13.64947021484375,-6.757756233215332,-2.8329830169677734,47.99967956542969
1700868061902458400,13.666458251953125,-2.786207675933838,-11.631266593933105,39.31142044067383
1700868061919447600,13.683447509765625,2.0014660358428955,-18.041370391845703,28.451419830322266
1700868061936424200,13.700424072265625,5.717959403991699,-22.2077579498291,18.381938934326172
1700868061953424000,13.717423828125,10.964930534362793,-25.16785430908203,10.332382202148438
1700868061970411800,13.734411865234375,11.880254745483398,-27.742605209350586,4.289698600769043
1700868061987400700,13.751400634765625,6.230866432189941,-31.991798400878906,1.298980474472046
1700868062004387800,13.768387939453126,2.9588918685913086,-35.11860656738281,-2.363992691040039
1700868062021374500,13.78537451171875,5.941464424133301,-36.86602020263672,-7.076419353485107
1700868062038367500,13.802367431640626,12.08631420135498,-36.184669494628906,-10.943811416625977
1700868062055353900,13.819353759765624,14.610147476196289,-34.665679931640625,-9.638813972473145
1700868062072341500,13.836341552734375,11.021376609802246,-32.82127380371094,-3.0029959678649902
1700868062089320000,13.85331982421875,4.115998268127441,-30.319087982177734,3.762620687484741
1700868062106318300,13.870318359375,-0.5912106037139893,-27.524660110473633,5.605865478515625
1700868062123307300,13.887307373046875,-1.828293800354004,-24.996776580810547,4.44474458694458
1700868062140285200,13.90428515625,-3.474541425704956,-22.799842834472656,7.09796142578125
1700868062157283800,13.921283935546874,-7.128700256347656,-21.222103118896484,14.977605819702148
1700868062174271200,13.938271240234375,-8.221123695373535,-19.479175567626953,15.791362762451172
1700868062191247400,13.955247314453125,-7.798476219177246,-8.686721801757812,13.98386287689209
1700868062208245500,13.97224560546875,-15.664997100830078,-5.886225700378418,37.79691696166992
1700868062225239300,13.9892392578125,-14.731698989868164,-7.198097229003906,60.49625778198242
1700868062242214100,14.006214111328125,1.8683362007141113,0.11511284112930298,49.33254623413086
1700868062259201300,14.023201171875,17.108993530273438,8.06794261932373,27.96810531616211
1700868062276188700,14.040188720703124,14.215534210205078,11.288838386535645,19.47431182861328
1700868062293189600,14.057189697265626,6.527374267578125,12.631186485290527,15.221823692321777
1700868062310175000,14.074175048828126,3.3020100593566895,15.187312126159668,10.296341896057129
1700868062327157000,14.091156982421875,2.470684051513672,17.58342742919922,5.4851179122924805
1700868062344147500,14.1081474609375,1.9260622262954712,18.79688835144043,1.3399715423583984
1700868062361131800,14.1251318359375,0.7566821575164795,19.613380432128906,-2.660308837890625
1700868062378129000,14.14212890625,-1.4379228353500366,20.052064895629883,-5.4372100830078125
1700868062395114800,14.15911474609375,-3.430663585662842,19.354036331176758,-7.622252464294434
1700868062412107000,14.17610693359375,-5.118107318878174,17.90015411376953,-8.1596097946167
1700868062429087000,14.1930869140625,-5.9049882888793945,15.54865837097168,-8.275150299072266
1700868062446077000,14.210076904296875,-5.185183525085449,13.171741485595703,-6.882753372192383
1700868062463067100,14.227067138671876,-4.290074348449707,12.328134536743164,-2.8292856216430664
1700868062480057000,14.24405712890625,-7.536196231842041,13.11257553100586,3.69980525970459
1700868062497040000,14.261039794921874,-14.377227783203125,13.400507926940918,14.871892929077148
1700868062514040800,14.278040771484376,-11.87119197845459,12.442359924316406,24.31781005859375
1700868062531026700,14.295026611328124,4.466033458709717,11.388748168945312,31.176483154296875
1700868062548014300,14.312014404296875,12.786696434020996,7.403433322906494,34.24800491333008
1700868062565003300,14.329003173828125,9.644560813903809,2.1467642784118652,36.517181396484375
1700868062581981400,14.3459814453125,3.680495262145996,-5.279137134552002,34.36138916015625
1700868062598976500,14.3629765625,0.12817296385765076,-11.754629135131836,26.130390167236328
1700868062615963000,14.379962890625,0.10584455728530884,-17.455074310302734,18.589378356933594
1700868062632955600,14.39695556640625,3.16259765625,-22.21643829345703,12.459693908691406
1700868062649945300,14.4139453125,6.754411697387695,-27.297401428222656,7.3796186447143555
1700868062666933500,14.43093359375,10.033340454101562,-32.38787841796875,2.239527463912964
1700868062683921000,14.4479208984375,10.444735527038574,-34.97505569458008,-3.1306025981903076
1700868062700899000,14.464899169921875,9.312482833862305,-34.68891143798828,-7.367382049560547
1700868062717895200,14.481895263671875,6.543017387390137,-33.78955078125,-6.236942768096924
1700868062734889500,14.498889404296875,4.819382190704346,-32.79417419433594,-1.5023829936981201
1700868062751874000,14.5158740234375,5.032628059387207,-30.238834381103516,1.0442256927490234
1700868062768863200,14.53286328125,6.315320014953613,-26.835590362548828,0.635164737701416
1700868062785834800,14.549834716796875,7.468817710876465,-24.05029296875,0.47408246994018555
1700868062802839800,14.56683984375,5.510291576385498,-22.82103157043457,2.903660774230957
1700868062819827500,14.583827392578126,-2.2610878944396973,-20.7081298828125,8.98724365234375
1700868062836816400,14.60081640625,-10.377104759216309,-18.393112182617188,10.77769947052002
1700868062853804000,14.617803955078125,-11.484966278076172,-19.4748477935791,9.268404960632324
1700868062870793200,14.634793212890624,-5.626946449279785,-22.012115478515625,12.136743545532227
1700868062887772000,14.65177197265625,-2.461047410964966,-23.205036163330078,25.003416061401367
1700868062904769500,14.66876953125,-2.65120530128479,-16.889286041259766,44.252098083496094
1700868062921757700,14.6857578125,-2.0214855670928955,-6.426107406616211,56.550498962402344
1700868062938746600,14.70274658203125,-1.8060801029205322,5.245976448059082,49.06198501586914
1700868062955734000,14.719734130859376,-8.958751678466797,9.781489372253418,35.41191864013672
1700868062972722700,14.73672265625,-9.095211029052734,11.928807258605957,22.206104278564453
1700868062989710800,14.7537109375,-2.8564672470092773,12.256908416748047,12.835082054138184
1700868063006699800,14.77069970703125,3.556370973587036,12.88842487335205,7.9725236892700195
1700868063023687000,14.78768701171875,6.5960493087768555,14.215055465698242,5.602761268615723
1700868063040676000,14.804676025390625,6.865674018859863,17.57830238342285,1.5522499084472656
1700868063057663700,14.821663818359376,3.8229243755340576,20.00551986694336,-3.2844181060791016
1700868063074642400,14.838642333984374,-0.39604759216308594,19.971797943115234,-6.307819843292236
1700868063091627300,14.855627197265624,-2.540173053741455,18.85543441772461,-9.267457008361816
1700868063108631800,14.8726318359375,-1.467653751373291,18.439037322998047,-12.570950508117676
1700868063125614000,14.889614013671874,0.5904039144515991,18.288211822509766,-13.156436920166016
1700868063142609400,14.906609375,1.0025007724761963,17.665363311767578,-10.50338363647461
1700868063159593500,14.923593505859374,-1.6535190343856812,15.667981147766113,-6.321173667907715
1700868063176582700,14.940582763671875,-4.26861047744751,13.388976097106934,-3.8890442848205566
1700868063193570300,14.9575703125,-6.38686466217041,11.305670738220215,-1.8380842208862305
1700868063210559500,14.9745595703125,-4.717150688171387,10.05419635772705,0.6320228576660156
1700868063227546600,14.991546630859375,-1.600919485092163,8.89155101776123,6.73890495300293
1700868063244533200,15.008533203125,5.44600248336792,9.774909973144531,15.904303550720215
1700868063261520400,15.025520263671876,10.206618309020996,12.208030700683594,28.192054748535156
1700868063278512600,15.0425126953125,6.56282901763916,10.17051887512207,38.33454132080078
1700868063295499800,15.059499755859376,0.5139303803443909,7.921195030212402,40.81452941894531
1700868063312489000,15.076489013671875,-7.080440521240234,2.9630517959594727,41.82709503173828
1700868063329476900,15.093476806640625,-7.039943695068359,-6.288012981414795,39.742919921875
1700868063346455300,15.110455322265626,0.24371486902236938,-13.218135833740234,31.582500457763672
1700868063363453200,15.127453125,4.068525314331055,-17.85396385192871,23.350223541259766
1700868063380454400,15.144454345703124,4.175278663635254,-21.051708221435547,16.095321655273438
1700868063397430000,15.161429931640624,3.6790976524353027,-24.44841194152832,10.547700881958008
1700868063414419000,15.1784189453125,1.5998178720474243,-28.281726837158203,5.549050331115723
1700868063431406000,15.195406005859375,0.07037591934204102,-31.200881958007812,-0.6739459037780762
1700868063448395500,15.2123955078125,0.6394652128219604,-33.767120361328125,-6.026871204376221
1700868063465380600,15.229380615234374,3.4782299995422363,-33.696685791015625,-10.061894416809082
1700868063482382000,15.246382080078124,5.3380303382873535,-32.11815643310547,-10.927425384521484
1700868063499359500,15.263359375,4.070327281951904,-29.959285736083984,-8.825056076049805
1700868063516345900,15.280345947265625,1.9801291227340698,-27.17798614501953,-5.112151145935059
1700868063533329200,15.2973291015625,0.5312192440032959,-25.416109085083008,-0.6088896989822388
1700868063550325200,15.3143251953125,0.873732328414917,-24.506975173950195,4.176015853881836
1700868063567312400,15.3313125,1.2965795993804932,-23.228649139404297,6.0566558837890625
1700868063584301800,15.3483017578125,0.25034642219543457,-21.913055419921875,6.108293056488037
1700868063601289700,15.365289794921875,-5.576955795288086,-20.687820434570312,8.537273406982422
1700868063618278700,15.382278564453125,-14.528528213500977,-17.738576889038086,16.091764450073242
1700868063635265800,15.399265869140624,-14.706811904907227,-13.586433410644531,29.39511489868164
1700868063652254700,15.416254638671875,-2.7512857913970947,-6.468547344207764,42.316261291503906
1700868063669243000,15.433242919921875,2.8489160537719727,2.3720922470092773,47.08512878417969
1700868063686229000,15.45022900390625,-2.020390510559082,11.26970100402832,42.1109504699707
1700868063703221800,15.4672216796875,-7.480705261230469,16.546476364135742,34.78990936279297
1700868063720214500,15.484214599609375,-6.790802001953125,16.232681274414062,26.633832931518555
1700868063737195300,15.5011953125,-0.725944995880127,14.629132270812988,14.430920600891113
1700868063754186000,15.51818603515625,3.05226469039917,13.822854042053223,3.5312671661376953
1700868063771172000,15.535172119140626,3.6264851093292236,13.889190673828125,-2.956594944000244
1700868063788161500,15.55216162109375,3.24241304397583,15.263567924499512,-6.211601257324219
1700868063805149000,15.56914892578125,2.128124237060547,16.364316940307617,-7.727658748626709
1700868063822127600,15.586127685546876,-1.707597255706787,16.68324851989746,-8.845703125
1700868063839125500,15.60312548828125,-5.148278713226318,15.748326301574707,-9.643333435058594
1700868063856111000,15.620111083984375,-6.340826034545898,14.370262145996094,-11.694978713989258
1700868063873105700,15.637105712890625,-4.5764923095703125,12.79864501953125,-12.81976318359375
1700868063890091500,15.654091552734375,-1.3890867233276367,11.402765274047852,-11.770733833312988
1700868063907078400,15.671078369140625,-0.1823335886001587,10.544219017028809,-7.701182842254639
1700868063924069600,15.688069580078125,-2.7996954917907715,9.610514640808105,-1.6724538803100586
1700868063941053400,15.705053466796874,-5.7978410720825195,9.798742294311523,0.3888692855834961
1700868063958035200,15.72203515625,-5.564670562744141,9.871213912963867,2.3092966079711914
1700868063975029200,15.739029296875,-3.9058985710144043,9.952295303344727,5.903933525085449
1700868063992023300,15.756023193359376,-0.856945276260376,12.379156112670898,13.12747859954834
1700868064009008600,15.773008544921876,-3.979522466659546,13.077922821044922,24.657520294189453
1700868064025997800,15.789997802734375,-10.683175086975098,13.38923168182373,29.746061325073242
1700868064042984700,15.806984619140625,-12.817523956298828,10.753259658813477,33.62757873535156
1700868064059974000,15.823973876953126,-5.055730819702148,1.723677635192871,38.57284927368164
1700868064076961800,15.8409619140625,6.571066856384277,-7.785423278808594,36.04966735839844
1700868064093943000,15.857943115234375,11.852190017700195,-13.499495506286621,27.35762596130371
1700868064110938000,15.874938232421876,9.196271896362305,-17.575786590576172,18.35440444946289
1700868064127924500,15.891924560546874,4.014420509338379,-20.033958435058594,11.289599418640137
1700868064144917800,15.908917724609376,0.9987261295318604,-20.74156379699707,6.019708633422852
1700868064161903900,15.92590380859375,0.1289200782775879,-21.805885314941406,2.091036796569824
1700868064178893300,15.942893310546875,0.4062199592590332,-23.21316909790039,-0.5216069221496582
1700868064195867600,15.95986767578125,2.9312660694122314,-24.421932220458984,-3.3411402702331543
1700868064212856000,15.97685595703125,6.161073207855225,-25.046184539794922,-6.235065460205078
1700868064229848800,15.993848876953125,7.898321151733398,-24.728425979614258,-7.987743377685547
1700868064246833000,16.0108330078125,6.714360237121582,-24.148704528808594,-7.1693315505981445
1700868064263822300,16.027822265625,4.571171760559082,-23.560894012451172,-4.515235900878906
1700868064280810800,16.044810791015625,3.409517526626587,-22.575439453125,-2.5328094959259033
1700868064297806800,16.061806884765623,3.7133102416992188,-21.64305305480957,-1.2604116201400757
1700868064314797000,16.078797119140624,5.2076897621154785,-20.661964416503906,-1.4248719215393066
1700868064331777300,16.09577734375,5.363140106201172,-19.38143539428711,-0.4914255142211914
1700868064348764200,16.11276416015625,1.7554447650909424,-18.34354019165039,3.9584479331970215
1700868064365753600,16.129753662109376,-5.921309471130371,-17.63496208190918,9.700725555419922
1700868064382741200,16.1467412109375,-11.119808197021484,-10.828307151794434,8.582184791564941
1700868064399733500,16.1637333984375,-8.713932037353516,-6.321537971496582,15.764026641845703
1700868064416722400,16.180722412109375,-5.664299011230469,-6.202905178070068,35.10718536376953
1700868064433719000,16.197718994140626,-0.5820720195770264,-4.622879505157471,50.344696044921875
1700868064450699800,16.21469970703125,8.514904022216797,2.7092583179473877,36.741844177246094
1700868064467693000,16.231693115234375,10.001035690307617,5.349861145019531,20.267162322998047
1700868064484678000,16.248677978515627,0.9088149070739746,4.776778221130371,12.156904220581055
1700868064501672400,16.26567236328125,-6.9471635818481445,6.144964218139648,8.083473205566406
1700868064518657000,16.282656982421877,-7.15116024017334,6.682183742523193,6.3937225341796875
1700868064535645700,16.299645751953125,-3.5087056159973145,5.386989593505859,12.59555435180664
1700868064552633900,16.3166337890625,0.5368306636810303,6.493473529815674,8.901556015014648
1700868064569620500,16.333620361328126,2.0892679691314697,7.729812145233154,-1.3264102935791016
1700868064586612500,16.350612548828124,1.7770869731903076,9.127622604370117,-7.5513105392456055
1700868064603599400,16.367599365234376,-0.23032259941101074,10.592884063720703,-8.722529411315918
1700868064620576300,16.384576171875,-3.617194175720215,11.719038009643555,-6.242681503295898
1700868064637565700,16.401565673828124,-6.7992634773254395,12.353318214416504,-1.2811269760131836
1700868064654563000,16.41856298828125,-7.749754905700684,12.974607467651367,-3.582451820373535
1700868064671551200,16.43555126953125,-6.640403747558594,12.164814949035645,-8.528831481933594
1700868064688541000,16.452541015625,-3.4470512866973877,11.193044662475586,-11.360259056091309
1700868064705529000,16.469529052734377,-1.9073394536972046,11.306879043579102,-10.051979064941406
1700868064722516200,16.48651611328125,-3.891946315765381,11.852197647094727,-4.214681625366211
1700868064739514000,16.50351416015625,-4.778726577758789,12.650375366210938,3.145730972290039
1700868064756493300,16.520493408203127,-1.5237979888916016,13.223112106323242,10.954656600952148
1700868064773482200,16.537482177734375,1.128666877746582,12.549208641052246,19.023250579833984
1700868064790468600,16.554468505859376,0.918515145778656,12.607412338256836,23.43734359741211
1700868064807459300,16.571459228515625,0.46065211296081543,8.893226623535156,31.301481246948242
1700868064824446000,16.588446044921874,1.7106142044067383,2.5441887378692627,38.15150451660156
1700868064841435600,16.605435546875,3.162506580352783,-4.11456823348999,36.840187072753906
1700868064858422500,16.622422607421875,2.484748363494873,-9.249592781066895,30.1623477935791
1700868064875411700,16.63941162109375,0.2796502113342285,-11.931329727172852,22.61749839782715
1700868064892399400,16.6563994140625,-0.47075867652893066,-13.677541732788086,18.585311889648438
1700868064909372000,16.673371826171874,1.0771621465682983,-15.807989120483398,15.312967300415039
1700868064926375400,16.69037548828125,3.2121949195861816,-17.125001907348633,11.832196235656738
1700868064943364600,16.707364501953126,4.394028663635254,-17.19013214111328,8.589664459228516
1700868064960352500,16.7243525390625,3.9480104446411133,-16.680950164794922,6.036566257476807
1700868064977341700,16.741341796875,2.7374320030212402,-16.17828369140625,4.290909290313721
1700868064994328600,16.75832861328125,2.149179220199585,-16.155136108398438,3.100719928741455
1700868065011317800,16.77531787109375,4.2596588134765625,-16.347461700439453,1.9158093929290771
1700868065028305400,16.792305419921874,5.772181510925293,-16.034135818481445,0.7164925336837769
1700868065045294600,16.809294677734375,5.1068596839904785,-15.312734603881836,-0.10426628589630127
1700868065062267100,16.82626708984375,3.240220308303833,-14.40651798248291,-0.28555434942245483
1700868065079268400,16.843268310546875,2.3255178928375244,-13.425474166870117,-0.15712518990039825
1700868065096258300,16.86025830078125,2.4104528427124023,-12.597253799438477,0.3031836748123169
1700868065113250300,16.877250244140626,2.6732232570648193,-12.275684356689453,1.0869295597076416
1700868065130231000,16.89423095703125,2.1576569080352783,-11.910331726074219,1.4499874114990234
1700868065147223800,16.911223876953127,1.6615300178527832,-11.067845344543457,0.8211974501609802
1700868065164211700,16.928211669921875,-0.6585936546325684,-8.936275482177734,-1.332864761352539
1700868065181201000,16.945200927734376,-4.331063747406006,-6.268510818481445,-3.6809957027435303
1700868065198188000,16.96218798828125,-8.99479866027832,-2.4954614639282227,-4.041109561920166
1700868065215177000,16.979177001953126,-11.554803848266602,0.8870086669921875,-2.914189577102661
1700868065232164600,16.99616455078125,-10.422842025756836,2.647610664367676,-0.44323939085006714
1700868065249147600,17.013147705078126,-8.209458351135254,2.345425605773926,1.786003589630127
1700868065266140200,17.03014013671875,-3.5145058631896973,1.3376245498657227,2.4530811309814453
1700868065283131600,17.047131591796877,2.2951788902282715,0.9733295440673828,2.1047403812408447
1700868065300118000,17.064117919921873,6.101577281951904,0.886378288269043,1.2717785835266113
1700868065317107000,17.08110693359375,6.728652000427246,0.5444469451904297,1.1146280765533447
1700868065334083300,17.098083251953124,7.455617904663086,0.24873924255371094,2.4916584491729736
1700868065351083300,17.115083251953124,7.836378574371338,-0.2893686294555664,5.198613166809082
1700868065368071000,17.13207080078125,6.510454177856445,-0.9571590423583984,5.2553253173828125
1700868065385060000,17.14906005859375,4.70632791519165,-2.087954521179199,4.481822967529297
1700868065402037800,17.166037841796875,3.523336887359619,-2.5183892250061035,2.4690537452697754
1700868065419036200,17.1830361328125,2.161672592163086,-2.551985263824463,0.43925172090530396
1700868065436024800,17.20002490234375,1.1630806922912598,-2.1109862327575684,-0.31703028082847595
1700868065453010000,17.217010009765627,0.13761568069458008,-2.0741162300109863,0.7160252332687378
1700868065470002700,17.234002685546876,-0.8274869918823242,-2.4983785152435303,1.9263685941696167
1700868065486989300,17.2509892578125,-0.5545773506164551,-2.5621752738952637,1.4018876552581787
1700868065503978800,17.267978759765626,-0.8762779235839844,-2.602579116821289,-0.044841766357421875
1700868065520964900,17.28496484375,-2.0441832542419434,-2.6729321479797363,1.412285566329956
1700868065537950700,17.30195068359375,-1.3872547149658203,-1.0877432823181152,0.9248478412628174
1700868065554945000,17.318945068359376,-1.234947681427002,-1.344503402709961,0.25053685903549194
1700868065571929900,17.335929931640624,-1.1318683624267578,-1.32029390335083,-0.3205863833427429
1700868065588919300,17.352919189453125,-0.4810638427734375,-1.6826114654541016,-0.04849737882614136
1700868065605906400,17.369906494140626,0.2753176689147949,-1.431800365447998,0.8795302510261536
1700868065622895400,17.386895263671875,0.02782440185546875,-1.0119647979736328,1.1191613674163818
1700868065639880400,17.40388037109375,-0.2945399284362793,-0.5611691474914551,0.8621957302093506
1700868065656875000,17.420875,-0.03046417236328125,-0.1596965789794922,0.9568161964416504
1700868065673859300,17.437859375,1.0204215049743652,0.016620159149169922,1.4719865322113037
1700868065690847000,17.454846923828125,1.8811779022216797,0.3831615447998047,1.9419411420822144
1700868065707836400,17.47183642578125,2.787858486175537,0.8089876174926758,2.2633090019226074
1700868065724825000,17.4888251953125,2.288565158843994,0.8727221488952637,1.2807815074920654
1700868065741812500,17.5058125,1.6626367568969727,0.3559393882751465,0.4830346703529358
1700868065758792400,17.52279248046875,2.0092411041259766,-0.1638784408569336,0.5269057154655457
1700868065775779800,17.53977978515625,3.393277168273926,-0.8269448280334473,1.015890121459961
1700868065792772400,17.5567724609375,4.590725898742676,-1.0620760917663574,1.013859748840332
1700868065809763300,17.573763427734374,4.611009120941162,-1.0937566757202148,0.8566410541534424
1700868065826748700,17.590748779296874,3.7298197746276855,-1.1581411361694336,0.8693399429321289
1700868065843741200,17.6077412109375,2.221057415008545,-1.3607115745544434,0.596026599407196
1700868065860719400,17.62471923828125,0.9378447532653809,-1.4928045272827148,0.5192566514015198
1700868065877712400,17.64171240234375,0.07982444763183594,-2.055755138397217,0.8029124736785889
1700868065894700800,17.65870068359375,-0.7110424041748047,-1.9825730323791504,1.0216543674468994
1700868065911686100,17.67568603515625,0.03263711929321289,-1.8514246940612793,1.0288903713226318
1700868065928681500,17.692681396484375,1.553027629852295,-1.649726390838623,1.1211756467819214
1700868065945661400,17.709661376953125,1.7204933166503906,-1.895578384399414,0.9436709880828857
