time,seconds_elapsed,z,y,x
1700957967194774000,0.11777392578125,-0.6786909103393555,-0.10048341751098633,-0.5059831738471985
1700957967211776500,0.134776611328125,-0.4933004379272461,0.09767770767211914,0.17390641570091248
1700957967228752000,0.151751953125,-0.7164449691772461,0.5072197914123535,0.41134414076805115
1700957967245745700,0.16874560546875,-0.41425323486328125,0.6343216896057129,0.305796355009079
1700957967262738000,0.185738037109375,-0.46239471435546875,0.7226047515869141,0.13216951489448547
1700957967279722800,0.20272265625,-0.27636146545410156,0.9377331733703613,0.17840799689292908
1700957967296720000,0.219719970703125,-0.04331493377685547,0.9938387870788574,0.34499210119247437
1700957967313707000,0.23670703125,0.05830669403076172,1.214345932006836,0.32064834237098694
1700957967330699800,0.25369970703125,-0.20160484313964844,1.368577003479004,0.15477672219276428
1700957967347695000,0.270695068359375,-0.578516960144043,1.4381775856018066,-0.059007883071899414
1700957967364681200,0.28768115234375,-0.9321856498718262,1.4790215492248535,-0.11130949854850769
1700957967381677800,0.304677734375,-1.1018481254577637,1.3409943580627441,-0.06051906943321228
1700957967398668500,0.32166845703125,-1.1527767181396484,1.0689349174499512,0.004535853862762451
1700957967415654700,0.338654541015625,-1.647141456604004,0.6387410163879395,-0.012495875358581543
1700957967432648200,0.355648193359375,-2.279355525970459,-0.1690349578857422,0.3945010304450989
1700957967449640700,0.372640625,-2.407320022583008,1.1411423683166504,-0.46529459953308105
1700957967466625300,0.389625244140625,-3.4625296592712402,0.40238332748413086,-0.47703495621681213
1700957967483624700,0.406624755859375,-4.288447856903076,-0.022296428680419922,-1.030724287033081
1700957967500612600,0.423612548828125,-5.400046348571777,-0.4962782859802246,-1.0917285680770874
1700957967517602600,0.4406025390625,-6.625570297241211,-1.1713511943817139,-0.9112627506256104
1700957967534595300,0.45759521484375,-6.361842155456543,-1.7177982330322266,-0.6511354446411133
1700957967551585500,0.47458544921875,-4.89225435256958,-2.622995615005493,-1.2014201879501343
1700957967568578000,0.491578125,-3.2071914672851562,-3.5646533966064453,-2.622908353805542
1700957967585565200,0.508565185546875,-3.7160720825195312,-4.944957733154297,-3.391150712966919
1700957967602558700,0.525558837890625,-5.744335174560547,-6.550925254821777,-3.4914932250976562
1700957967619548700,0.542548583984375,-5.7304487228393555,-8.368307113647461,-2.9348020553588867
1700957967636530200,0.5595302734375,-3.5412986278533936,-10.280708312988281,-0.9453210830688477
1700957967653530400,0.5765302734375,-1.00252103805542,-11.150218963623047,-0.7868366241455078
1700957967670515200,0.59351513671875,-3.519570827484131,-12.366744995117188,-0.2577323913574219
1700957967687509800,0.610509765625,-3.7731778621673584,-13.625736236572266,1.4750099182128906
1700957967704508400,0.62750830078125,-2.627814292907715,-15.064589500427246,4.763444900512695
1700957967721496600,0.64449658203125,-0.07342112064361572,-16.61001205444336,9.879857063293457
1700957967738489000,0.661489013671875,2.835505485534668,-16.34810447692871,12.724443435668945
1700957967755476000,0.67847607421875,4.100072383880615,-15.081006050109863,12.31104564666748
1700957967772469200,0.69546923828125,4.616105556488037,-12.934996604919434,12.056692123413086
1700957967789459700,0.712459716796875,4.031403541564941,-9.939469337463379,13.70063591003418
1700957967806447900,0.72944775390625,2.390899658203125,-6.883975505828857,17.951406478881836
1700957967823446500,0.746446533203125,1.1976771354675293,-3.695516347885132,19.560749053955078
1700957967840434400,0.763434326171875,1.6053560972213745,-0.5632777214050293,15.880789756774902
1700957967857416400,0.78041650390625,2.035599946975708,1.9299969673156738,11.670342445373535
1700957967874405400,0.7974052734375,1.4570367336273193,4.61728048324585,9.364692687988281
1700957967891406600,0.814406494140625,-0.3914903700351715,6.828925609588623,9.949687957763672
1700957967908397800,0.831397705078125,-3.84855318069458,8.147851943969727,11.3946533203125
1700957967925389600,0.8483896484375,-6.076417922973633,9.117635726928711,9.910571098327637
1700957967942380000,0.865380126953125,-5.621979713439941,10.044235229492188,7.101675033569336
1700957967959372500,0.88237255859375,-3.5519156455993652,11.151229858398438,5.007730960845947
1700957967976352800,0.899352783203125,-2.4553089141845703,12.340885162353516,5.021754741668701
1700957967993354000,0.91635400390625,-2.953336477279663,13.734275817871094,5.912543296813965
1700957968010345000,0.933344970703125,-3.4037675857543945,15.303220748901367,6.06873893737793
1700957968027332900,0.950332763671875,-3.1493241786956787,17.86368751525879,5.266780853271484
1700957968044327200,0.9673271484375,-2.8454065322875977,19.73741340637207,3.7068867683410645
1700957968061313800,0.984313720703125,-1.304617166519165,21.760578155517578,3.0347118377685547
1700957968078313700,1.001313720703125,1.8073030710220337,23.65028953552246,3.6364569664001465
1700957968095289900,1.018289794921875,2.8079819679260254,25.045211791992188,6.825957298278809
1700957968112290800,1.035290771484375,0.4977235496044159,24.706478118896484,11.106201171875
1700957968129283000,1.052282958984375,-4.722508430480957,23.56564712524414,15.18445110321045
1700957968146270500,1.0692705078125,-8.643537521362305,21.76053237915039,18.71584701538086
1700957968163251000,1.0862509765625,-8.050435066223145,18.11117935180664,25.858583450317383
1700957968180256300,1.10325634765625,-1.3365612030029297,12.69112777709961,30.1014347076416
1700957968197236200,1.120236328125,4.792579174041748,8.167206764221191,31.03217315673828
1700957968214238000,1.137238037109375,4.578740119934082,4.8475422859191895,35.45045852661133
1700957968231228000,1.154227783203125,1.2136547565460205,0.9639209508895874,41.190731048583984
1700957968248220700,1.171220703125,-2.14188289642334,-5.582182884216309,44.605743408203125
1700957968265205500,1.18820556640625,-4.95496129989624,-11.594839096069336,42.774227142333984
1700957968282207500,1.20520751953125,-4.598647117614746,-17.221956253051758,37.03375244140625
1700957968299195400,1.2221953125,1.967440128326416,-23.541519165039062,28.291946411132812
1700957968316176600,1.2391767578125,11.511170387268066,-29.350509643554688,19.339111328125
1700957968333156400,1.25615625,17.83055877685547,-34.109153747558594,9.923589706420898
1700957968350167000,1.2731669921875,18.041532516479492,-38.958614349365234,1.5138888359069824
1700957968367154200,1.290154296875,15.751383781433105,-40.71425247192383,-6.003388404846191
1700957968384148500,1.3071484375,12.202499389648438,-41.9052848815918,-10.073410987854004
1700957968401139000,1.324138916015625,8.748453140258789,-44.379554748535156,-10.670806884765625
1700957968418131500,1.34113134765625,6.4856061935424805,-42.34995651245117,-15.374860763549805
1700957968435118300,1.358118408203125,5.832592010498047,-36.729644775390625,-17.663175582885742
1700957968452110800,1.37511083984375,4.17761754989624,-32.77785873413086,-8.05031681060791
1700957968469105700,1.392105712890625,0.1332073211669922,-29.350753784179688,4.810236930847168
1700957968486091800,1.409091796875,-2.780912399291992,-23.654821395874023,9.852174758911133
1700957968503084800,1.426084716796875,-3.946837902069092,-19.64727210998535,8.318519592285156
1700957968520077800,1.443077880859375,-5.961339473724365,-19.51457977294922,10.6997652053833
1700957968537065200,1.460065185546875,-11.378203392028809,-21.43254280090332,30.031673431396484
1700957968554059300,1.477059326171875,-8.9811372756958,-17.270618438720703,38.79310607910156
1700957968571051300,1.49405126953125,3.4720962047576904,-7.815008163452148,40.49762725830078
1700957968588040000,1.5110400390625,4.184286117553711,0.5220487117767334,51.74006652832031
1700957968605029400,1.528029296875,-0.7868614196777344,6.63946533203125,50.4695930480957
1700957968622029300,1.545029296875,2.2450003623962402,12.110807418823242,30.506214141845703
1700957968639030800,1.56203076171875,3.8973896503448486,16.83190155029297,19.100879669189453
1700957968655988700,1.57898876953125,-2.109656572341919,22.158830642700195,15.55178165435791
1700957968672987600,1.595987548828125,-5.740399360656738,26.65057373046875,9.991937637329102
1700957968689993700,1.61299365234375,-5.2866339683532715,31.625041961669922,0.03075265884399414
1700957968706976300,1.629976318359375,-3.3754706382751465,37.24984359741211,-4.9465179443359375
1700957968723970300,1.64697021484375,-4.998940467834473,39.883148193359375,-2.406723976135254
1700957968740960300,1.663960205078125,-7.973705291748047,39.927635192871094,-0.8715262413024902
1700957968757941000,1.68094091796875,-8.543410301208496,36.17466735839844,0.48929595947265625
1700957968774942700,1.697942626953125,-4.411346912384033,31.604598999023438,2.6764392852783203
1700957968791932400,1.714932373046875,-1.5839624404907227,28.6486759185791,10.026453971862793
1700957968808927000,1.731927001953125,-4.727363586425781,24.280855178833008,24.29977035522461
1700957968825913300,1.748913330078125,-7.504380702972412,18.350135803222656,36.04093933105469
1700957968842906600,1.76590673828125,-3.6887381076812744,11.585553169250488,42.26152801513672
1700957968859899400,1.7828994140625,0.3042970299720764,3.9547741413116455,46.11869812011719
1700957968876886500,1.799886474609375,1.6806004047393799,1.4583678245544434,48.1822624206543
1700957968893880600,1.816880615234375,0.3919757008552551,-2.4293246269226074,54.49736785888672
1700957968910870800,1.833870849609375,-0.6471810340881348,-7.912680625915527,56.36158752441406
1700957968927863600,1.850863525390625,-4.021778583526611,-15.978506088256836,49.746665954589844
1700957968944850700,1.8678505859375,-4.561832427978516,-25.997390747070312,33.687503814697266
1700957968961844000,1.884843994140625,-0.156227707862854,-33.5689582824707,16.209850311279297
1700957968978832600,1.90183251953125,6.293940544128418,-38.278011322021484,5.372952938079834
1700957968995828000,1.918827880859375,9.527653694152832,-39.67860412597656,0.45309770107269287
1700957969012807000,1.935806884765625,10.163599967956543,-40.59539794921875,3.4245402812957764
1700957969029799000,1.952798828125,10.576004028320312,-41.200836181640625,10.27302360534668
1700957969046790400,1.969790283203125,11.976338386535645,-39.545650482177734,12.045905113220215
1700957969063791400,1.986791259765625,11.89017105102539,-36.20378494262695,9.346138954162598
1700957969080781600,2.003781494140625,8.505880355834961,-33.62744140625,6.241401195526123
1700957969097766000,2.020765869140625,2.4807181358337402,-30.8896484375,4.942682266235352
1700957969114765300,2.037765380859375,-1.628464698791504,-28.051498413085938,4.837675094604492
1700957969131748400,2.054748291015625,-3.4780585765838623,-26.92475700378418,7.913692951202393
1700957969148747800,2.071747802734375,-3.6709401607513428,-23.951383590698242,9.769235610961914
1700957969165738200,2.08873828125,-1.5304012298583984,-18.16896629333496,14.215394020080566
1700957969182720800,2.105720703125,-7.727838516235352,-14.976153373718262,27.125648498535156
1700957969199722800,2.12272265625,-15.729479789733887,-13.271685600280762,34.676963806152344
1700957969216708600,2.13970849609375,-7.525007247924805,-6.490962505340576,35.5220947265625
1700957969233697800,2.15669775390625,-3.142730236053467,-0.3219142258167267,50.79322052001953
1700957969250692000,2.173692138671875,0.9949349164962769,5.876715660095215,61.416046142578125
1700957969267683000,2.19068310546875,10.71517276763916,12.2393798828125,47.250518798828125
1700957969284665900,2.207665771484375,12.19275951385498,14.476001739501953,29.332115173339844
1700957969301666800,2.224666748046875,5.497453689575195,14.643317222595215,15.074010848999023
1700957969318658300,2.241658203125,1.6310042142868042,16.658832550048828,2.2550230026245117
1700957969335645400,2.2586455078125,1.372222900390625,20.802875518798828,-5.971783638000488
1700957969352639000,2.275638916015625,2.9226818084716797,25.37460708618164,-5.945078372955322
1700957969369631700,2.2926318359375,7.238461494445801,27.807090759277344,-0.9176983833312988
1700957969386618600,2.30961865234375,10.194129943847656,29.734655380249023,-1.2973461151123047
1700957969403602700,2.326602783203125,7.236064434051514,30.0820369720459,-6.736171722412109
1700957969420600600,2.3436005859375,0.7905995845794678,29.949832916259766,-11.350014686584473
1700957969437606000,2.36060595703125,-1.8369598388671875,29.277851104736328,-9.076693534851074
1700957969454584300,2.377584228515625,0.07059073448181152,26.601686477661133,0.40667724609375
1700957969471576300,2.394576416015625,2.316190242767334,24.266639709472656,9.878715515136719
1700957969488569000,2.411569091796875,-0.5804574489593506,22.287900924682617,18.610240936279297
1700957969505556200,2.42855615234375,-5.028711318969727,19.016036987304688,27.106163024902344
1700957969522549800,2.4455498046875,-4.636446475982666,16.568607330322266,32.65281677246094
1700957969539542300,2.462542236328125,0.027448296546936035,14.284191131591797,40.50857162475586
1700957969556529400,2.479529296875,3.7551798820495605,7.896249771118164,45.20136642456055
1700957969573521400,2.496521484375,2.310659408569336,5.0426483154296875,44.349578857421875
1700957969590518500,2.5135185546875,-4.276851177215576,-5.261043071746826,41.82583236694336
1700957969607494400,2.530494384765625,-6.049333572387695,-15.91107177734375,30.337106704711914
1700957969624494300,2.547494384765625,-5.241677284240723,-23.948795318603516,20.504390716552734
1700957969641489700,2.56448974609375,1.0355403423309326,-28.18621063232422,10.874140739440918
1700957969658479900,2.58147998046875,9.18397331237793,-30.18410873413086,4.412947654724121
1700957969675468000,2.598468017578125,10.282078742980957,-32.80514907836914,4.623945236206055
1700957969692460300,2.615460205078125,7.914920806884766,-35.328739166259766,8.170260429382324
1700957969709452300,2.632452392578125,7.099710464477539,-37.83946228027344,11.950759887695312
1700957969726440200,2.649440185546875,9.885653495788574,-38.45110321044922,11.291641235351562
1700957969743434500,2.6664345703125,12.272541999816895,-36.167667388916016,5.7354817390441895
1700957969760427000,2.683427001953125,10.315134048461914,-32.60289764404297,1.1213184595108032
1700957969777400300,2.700400390625,6.65762996673584,-31.275741577148438,3.485809087753296
1700957969794409200,2.7174091796875,3.036424160003662,-31.34036636352539,9.955999374389648
1700957969811395800,2.734395751953125,0.6390688419342041,-30.481380462646484,15.000506401062012
1700957969828390700,2.751390625,-1.6497626304626465,-28.959121704101562,17.208885192871094
1700957969845368800,2.768368896484375,-2.938650369644165,-20.230260848999023,17.470182418823242
1700957969862371300,2.785371337890625,-15.362837791442871,-10.893332481384277,34.93920135498047
1700957969879363800,2.80236376953125,-25.097597122192383,-2.685917377471924,65.94749450683594
1700957969896343800,2.81934375,-7.212279319763184,5.211855411529541,78.81822204589844
1700957969913342700,2.8363427734375,11.56303882598877,17.158723831176758,57.87628173828125
1700957969930338800,2.8533388671875,11.689115524291992,19.235380172729492,31.588268280029297
1700957969947324400,2.870324462890625,2.8926496505737305,18.127893447875977,15.195026397705078
1700957969964316000,2.88731591796875,-3.740664005279541,17.686317443847656,3.619858741760254
1700957969981309000,2.904308837890625,-3.5047495365142822,18.322935104370117,-4.378821849822998
1700957969998301400,2.921301513671875,3.7294411659240723,21.86603546142578,-7.945843696594238
1700957970015288600,2.93828857421875,12.271200180053711,25.77605628967285,-7.074052810668945
1700957970032282000,2.9552822265625,15.646990776062012,28.220088958740234,-2.1872496604919434
1700957970049275000,2.97227490234375,10.72068977355957,28.32376480102539,-1.1636018753051758
1700957970066261800,2.98926171875,0.8936240673065186,26.516151428222656,-8.3483247756958
1700957970083245000,3.0062451171875,-4.308089733123779,25.33456039428711,-16.209583282470703
1700957970100248000,3.023248046875,-4.713435173034668,23.552501678466797,-12.904516220092773
1700957970117235200,3.040235107421875,-2.9334168434143066,19.783893585205078,-0.3740711212158203
1700957970134226200,3.05722607421875,-2.1378660202026367,17.048234939575195,8.281721115112305
1700957970151219700,3.0742197265625,-1.8956319093704224,16.697477340698242,13.330543518066406
1700957970168212500,3.09121240234375,-2.6560065746307373,16.543058395385742,19.31623077392578
1700957970185203000,3.108202880859375,-3.293426275253296,17.60039710998535,25.554431915283203
1700957970202194000,3.12519384765625,-2.433701515197754,18.684123992919922,35.99199676513672
1700957970219185200,3.14218505859375,-2.70369815826416,14.818270683288574,43.637996673583984
1700957970236160500,3.159160400390625,-7.153532981872559,11.41180419921875,42.86977005004883
1700957970253156600,3.176156494140625,-8.600194931030273,-1.4080872535705566,45.14475631713867
1700957970270158300,3.193158447265625,5.178374290466309,-16.3734073638916,33.51020431518555
1700957970287149300,3.2101494140625,16.905248641967773,-23.080326080322266,16.41506004333496
1700957970304140300,3.227140380859375,13.718742370605469,-26.171541213989258,6.687124729156494
1700957970321131300,3.24413134765625,6.021020889282227,-27.52641487121582,4.074987411499023
1700957970338111500,3.261111572265625,0.1640796661376953,-26.926097869873047,2.9289565086364746
1700957970355102000,3.27810205078125,0.09023857116699219,-29.452224731445312,6.894374370574951
1700957970372104400,3.2951044921875,6.3595452308654785,-34.142478942871094,14.032049179077148
1700957970389098500,3.312098388671875,13.298982620239258,-36.081787109375,13.780797958374023
1700957970406084400,3.32908447265625,15.077018737792969,-35.00109100341797,8.533824920654297
1700957970423080700,3.346080810546875,11.01181697845459,-32.88801574707031,3.5003881454467773
1700957970440069400,3.3630693359375,6.212620735168457,-31.07866859436035,2.116453170776367
1700957970457060400,3.380060302734375,3.0349719524383545,-30.575637817382812,7.44012451171875
1700957970474051000,3.397051025390625,1.0109682083129883,-29.61973762512207,16.197004318237305
1700957970491042600,3.41404248046875,0.35460925102233887,-25.98579978942871,22.87767791748047
1700957970508033500,3.431033447265625,-0.26195287704467773,-17.551755905151367,21.46930503845215
1700957970525024800,3.448024658203125,-6.712019920349121,-6.708433628082275,25.630985260009766
1700957970542015700,3.465015625,-18.440298080444336,2.3293519020080566,48.62368392944336
1700957970559004200,3.482004150390625,-17.433956146240234,8.494161605834961,70.08934020996094
1700957970575995000,3.498994873046875,-2.772453784942627,16.01943588256836,66.37549591064453
1700957970592989000,3.515989013671875,8.38273811340332,22.168621063232422,37.99907684326172
1700957970609980200,3.532980224609375,4.569043159484863,21.67121124267578,12.70907974243164
1700957970626971100,3.54997119140625,-2.6199867725372314,20.22205924987793,-0.5339059829711914
1700957970643962000,3.566962158203125,-3.9377939701080322,20.294864654541016,-8.272787094116211
1700957970660948000,3.583947998046875,-0.3989269733428955,22.549386978149414,-10.318041801452637
1700957970677942500,3.600942626953125,5.290312767028809,26.925844192504883,-7.488593578338623
1700957970694929200,3.61792919921875,7.865715980529785,29.378192901611328,-2.1714844703674316
1700957970711916500,3.63491650390625,7.4921722412109375,27.47553825378418,-3.3281683921813965
1700957970728909000,3.651908935546875,5.74949836730957,24.81940460205078,-12.238533020019531
1700957970745906400,3.668906494140625,2.8555121421813965,23.03610610961914,-17.961376190185547
1700957970762899200,3.685899169921875,0.36407971382141113,23.197540283203125,-13.945541381835938
1700957970779883500,3.702883544921875,-1.598380446434021,22.45048713684082,0.5506610870361328
1700957970796877800,3.7198779296875,-3.1407504081726074,22.425912857055664,14.591511726379395
1700957970813864000,3.736864013671875,-3.973747730255127,20.973594665527344,21.963516235351562
1700957970830864100,3.753864013671875,-4.085642337799072,19.015527725219727,23.032405853271484
1700957970847855400,3.77085546875,-1.100261926651001,19.502256393432617,27.73388671875
1700957970864857900,3.78785791015625,-0.6101452112197876,14.992410659790039,39.880184173583984
1700957970881837600,3.804837646484375,-4.386889457702637,11.428605079650879,44.82756042480469
1700957970898826200,3.821826171875,-10.62249755859375,0.3176088333129883,45.44289779663086
1700957970915822300,3.838822265625,-7.819547176361084,-12.296792030334473,34.687767028808594
1700957970932811000,3.85581103515625,4.582608699798584,-21.088336944580078,19.790550231933594
1700957970949799400,3.87279931640625,14.136670112609863,-25.69004249572754,9.214763641357422
1700957970966795800,3.889795654296875,14.064807891845703,-29.565963745117188,4.851199150085449
1700957970983774000,3.90677392578125,6.147014617919922,-31.507545471191406,3.3630313873291016
1700957971000775400,3.923775390625,-0.4814023971557617,-30.0915470123291,2.575016498565674
1700957971017756000,3.940755859375,-0.21883749961853027,-31.464923858642578,6.951324462890625
1700957971034757600,3.957757568359375,4.934423923492432,-34.13855743408203,10.925768852233887
1700957971051744800,3.974744873046875,11.764108657836914,-34.149967193603516,8.27822494506836
1700957971068743700,3.99174365234375,12.916269302368164,-32.03955841064453,4.554179668426514
1700957971085730600,4.00873046875,9.593852043151855,-30.0941104888916,3.355017900466919
1700957971102722000,4.02572216796875,5.241431713104248,-29.17790985107422,5.517104625701904
1700957971119712800,4.042712646484375,1.430128574371338,-28.754009246826172,11.086263656616211
1700957971136701400,4.059701416015625,-0.6763734817504883,-27.586090087890625,14.882843017578125
1700957971153697800,4.07669775390625,-0.2658395767211914,-24.612991333007812,16.118459701538086
1700957971170686500,4.0936865234375,0.4665853977203369,-15.59616470336914,17.339706420898438
1700957971187677400,4.110677490234375,-11.501166343688965,-5.0610032081604,32.666587829589844
1700957971204668400,4.12766845703125,-21.546613693237305,1.8054876327514648,60.60832595825195
1700957971221659400,4.144659423828125,-7.406395435333252,9.949431419372559,68.01801300048828
1700957971238650600,4.161650634765625,8.24207878112793,21.4454402923584,45.811344146728516
1700957971255633400,4.17863330078125,8.129412651062012,23.45452117919922,28.654468536376953
1700957971272632800,4.1956328125,1.7533512115478516,20.531932830810547,16.714195251464844
1700957971289626600,4.212626708984375,0.7311375141143799,18.030179977416992,2.8580284118652344
1700957971306612500,4.229612548828125,1.1801843643188477,18.209779739379883,-10.029890060424805
1700957971323606300,4.246606201171875,3.1794967651367188,21.04038429260254,-14.936260223388672
1700957971340597200,4.26359716796875,3.277651786804199,24.742340087890625,-11.291045188903809
1700957971357575400,4.280575439453125,2.1109108924865723,26.9239501953125,-3.045196056365967
1700957971374569000,4.29756884765625,4.045253276824951,27.55727767944336,-3.865718364715576
1700957971391573200,4.3145732421875,9.374551773071289,27.016523361206055,-12.326824188232422
1700957971408553700,4.3315537109375,10.610538482666016,26.242971420288086,-13.856575965881348
1700957971425547000,4.348547119140625,4.880038738250732,25.108379364013672,-6.1268157958984375
1700957971442535000,4.365534912109375,-1.8935291767120361,22.520339965820312,8.641434669494629
1700957971459528400,4.382528564453125,-3.178943634033203,19.281612396240234,19.2784423828125
1700957971476518000,4.399517822265625,0.7779639959335327,17.140060424804688,21.600326538085938
1700957971493509000,4.416509033203125,5.324908256530762,17.59463119506836,25.478641510009766
1700957971510498300,4.433498291015625,4.760108470916748,14.405484199523926,36.35974884033203
1700957971527492000,4.4504921875,-2.202204704284668,8.287837982177734,42.699066162109375
1700957971544482000,4.46748193359375,-10.375922203063965,4.245125770568848,39.99055480957031
1700957971561471000,4.484470947265625,-14.9512357711792,-4.7878007888793945,35.47808074951172
1700957971578466800,4.501466796875,-3.758375883102417,-18.61053466796875,26.52176856994629
1700957971595453700,4.51845361328125,17.12578582763672,-28.148488998413086,12.922932624816895
1700957971612450300,4.5354501953125,25.1667423248291,-30.833454132080078,1.8569623231887817
1700957971629436200,4.552436279296875,12.911825180053711,-35.02615737915039,1.0573999881744385
1700957971646421800,4.569421875,0.12478375434875488,-34.39556121826172,1.2362695932388306
1700957971663430100,4.58643017578125,-2.5501484870910645,-32.54450225830078,4.242359161376953
1700957971680419300,4.60341943359375,0.23880577087402344,-34.496795654296875,10.074997901916504
1700957971697399800,4.62039990234375,8.737264633178711,-34.75386428833008,7.263638019561768
1700957971714401300,4.6374013671875,15.490398406982422,-32.15167999267578,0.8534344434738159
1700957971731390000,4.654389892578125,14.603355407714844,-30.53449058532715,-0.22332215309143066
1700957971748386300,4.67138623046875,9.583166122436523,-29.824525833129883,3.8507001399993896
1700957971765374700,4.688374755859375,4.152156352996826,-28.52945327758789,10.020556449890137
1700957971782366200,4.7053662109375,-0.9451184272766113,-26.600021362304688,15.42934799194336
1700957971799354400,4.722354248046875,-3.8973114490509033,-21.87247085571289,15.939756393432617
1700957971816340500,4.739340576171875,-6.6309685707092285,-13.204411506652832,19.025009155273438
1700957971833337000,4.756337158203125,-14.477533340454102,-6.043537139892578,41.8541374206543
1700957971850335200,4.773335205078125,-15.068623542785645,3.397404670715332,65.67822265625
1700957971867318800,4.79031884765625,2.8797543048858643,13.767152786254883,62.52384948730469
1700957971884312300,4.807312255859375,15.006351470947266,20.274105072021484,39.411312103271484
1700957971901303600,4.824303466796875,8.246063232421875,19.354768753051758,20.509431838989258
1700957971918294500,4.84129443359375,-0.5608503818511963,18.374422073364258,5.38551139831543
1700957971935286000,4.8582861328125,-5.171316146850586,18.41837501525879,-4.640472412109375
1700957971952273400,4.8752734375,-2.5625452995300293,20.42032241821289,-10.284570693969727
1700957971969259000,4.892259033203125,4.150023460388184,22.51932144165039,-10.607231140136719
1700957971986259200,4.90925927734375,6.568730354309082,25.530921936035156,-8.920404434204102
1700957972003246600,4.92624658203125,5.697842121124268,26.333587646484375,-8.04471492767334
1700957972020245000,4.943244873046875,4.0382609367370605,25.23130226135254,-9.58739948272705
1700957972037222100,4.96022216796875,3.533252239227295,23.279396057128906,-12.815147399902344
1700957972054223600,4.9772236328125,3.7419164180755615,22.469127655029297,-12.781265258789062
1700957972071214600,4.994214599609375,3.8614165782928467,21.48680305480957,-5.936859130859375
1700957972088205600,5.01120556640625,2.1093082427978516,19.698467254638672,4.641697883605957
1700957972105197300,5.028197265625,-2.080218553543091,18.461822509765625,13.853263854980469
1700957972122187500,5.0451875,-4.094638824462891,17.781831741333008,20.094375610351562
1700957972139179300,5.06217919921875,1.221861720085144,19.463476181030273,25.170061111450195
1700957972156161000,5.0791611328125,6.07391881942749,17.14008331298828,35.737483978271484
1700957972173161200,5.0961611328125,5.360713005065918,13.007157325744629,42.27614212036133
1700957972190152700,5.113152587890625,-2.69496488571167,5.6688690185546875,43.704708099365234
1700957972207143700,5.130143798828125,-6.381379127502441,-6.10066032409668,39.12532043457031
1700957972224134700,5.147134765625,0.726665735244751,-16.127235412597656,27.034793853759766
1700957972241126000,5.1641259765625,8.678277015686035,-23.58061981201172,15.603943824768066
1700957972258116900,5.181116943359375,11.974830627441406,-27.912063598632812,7.496755123138428
1700957972275107800,5.19810791015625,8.833409309387207,-31.007518768310547,3.1203742027282715
1700957972292086000,5.2150859375,3.061619281768799,-32.779014587402344,2.5105085372924805
1700957972309092600,5.232092529296875,2.35062837600708,-34.4942626953125,2.9230051040649414
1700957972326078700,5.24907861328125,6.534027099609375,-37.18721008300781,4.515629768371582
1700957972343075000,5.266074951171875,10.445968627929688,-37.54900360107422,3.3327698707580566
1700957972360051000,5.283051025390625,9.728411674499512,-34.686859130859375,0.6789275407791138
1700957972377056800,5.300056884765625,6.528342247009277,-31.04561996459961,1.249162197113037
1700957972394043400,5.31704345703125,4.25543212890625,-29.058765411376953,6.696010589599609
1700957972411036700,5.33403662109375,4.156906604766846,-26.979827880859375,11.801473617553711
1700957972428028000,5.35102783203125,2.2385425567626953,-23.79544448852539,16.67706871032715
1700957972445019100,5.36801904296875,-1.8970327377319336,-16.553329467773438,19.780941009521484
1700957972462009900,5.385009765625,-6.177412509918213,-4.496743202209473,27.1160888671875
1700957972479001300,5.40200146484375,-13.7325439453125,4.60840368270874,43.570709228515625
1700957972495992300,5.418992431640625,-13.284995079040527,10.651215553283691,54.47825622558594
1700957972512985000,5.435985107421875,4.11481237411499,12.731669425964355,45.25831985473633
1700957972529972000,5.452971923828125,16.66277313232422,14.723751068115234,29.21453857421875
1700957972546968300,5.46996826171875,13.966455459594727,14.770365715026855,15.415861129760742
1700957972563957000,5.48695703125,4.889427185058594,15.030533790588379,5.183905601501465
1700957972580948000,5.503947998046875,-2.285510778427124,15.360631942749023,-0.9578332901000977
1700957972597939000,5.52093896484375,-5.268274307250977,17.193374633789062,-5.170189380645752
1700957972614927600,5.537927734375,-1.7662183046340942,19.414939880371094,-6.616528511047363
1700957972631921700,5.554921630859375,3.52986478805542,20.6876277923584,-6.220757484436035
1700957972648916500,5.57191650390625,8.40902328491211,20.780906677246094,-5.83582067489624
1700957972665902000,5.588902099609375,8.342820167541504,20.116859436035156,-8.203082084655762
1700957972682894600,5.60589453125,4.548150062561035,19.8651123046875,-12.553256034851074
1700957972699885800,5.6228857421875,0.9183719754219055,20.557607650756836,-13.757564544677734
1700957972716876800,5.639876708984375,-0.3355926275253296,20.60388946533203,-8.804662704467773
1700957972733867800,5.65686767578125,0.2963881492614746,19.49535369873047,1.0574541091918945
1700957972750859300,5.673859375,1.1650642156600952,16.988683700561523,10.127957344055176
1700957972767850200,5.690850341796875,-0.6542346477508545,17.135143280029297,12.844361305236816
1700957972784830700,5.707830810546875,-0.42571091651916504,20.6025390625,18.54436683654785
1700957972801832400,5.72483251953125,2.9300155639648438,19.998897552490234,29.843093872070312
1700957972818823700,5.74182373046875,5.929423809051514,15.415112495422363,38.11207962036133
1700957972835814700,5.758814697265625,2.8420963287353516,12.413424491882324,40.817047119140625
1700957972852806000,5.775805908203125,-4.767977714538574,3.273906707763672,40.896484375
1700957972869797000,5.792797119140625,-4.443656921386719,-7.845108985900879,32.60163497924805
1700957972886777600,5.809777587890625,2.156564950942993,-17.04751968383789,21.707592010498047
1700957972903776500,5.826776611328125,7.796169281005859,-23.192106246948242,12.880245208740234
1700957972920773000,5.843773193359375,8.87155818939209,-27.635356903076172,7.757898330688477
1700957972937750800,5.860750732421875,4.960291862487793,-30.63079071044922,4.556928634643555
1700957972954753500,5.87775341796875,1.294547438621521,-31.88453483581543,2.7357351779937744
1700957972971742500,5.894742431640625,2.0425491333007812,-34.67251968383789,4.1701812744140625
1700957972988734700,5.911734619140625,5.904542922973633,-37.088016510009766,5.789272308349609
1700957973005715200,5.928715087890625,9.160645484924316,-36.35381317138672,3.8059098720550537
1700957973022717200,5.94571728515625,8.007020950317383,-33.75897216796875,1.4577243328094482
1700957973039708200,5.962708251953125,4.9539947509765625,-31.429393768310547,1.7213953733444214
1700957973056699100,5.97969921875,2.008989095687866,-29.888870239257812,5.214785099029541
1700957973073680000,5.996679931640625,0.12228608131408691,-28.377857208251953,12.162671089172363
1700957973090681300,6.013681396484375,-1.6380009651184082,-25.962200164794922,18.82992172241211
1700957973107671800,6.030671875,-1.3548121452331543,-19.206510543823242,24.388460159301758
1700957973124670000,6.047669921875,-3.1289799213409424,-5.722714900970459,31.48065948486328
1700957973141654800,6.06465478515625,-13.605502128601074,1.1215543746948242,43.56976318359375
1700957973158646000,6.08164599609375,-8.304680824279785,6.465606689453125,45.733856201171875
1700957973175635200,6.09863525390625,3.9544336795806885,11.582208633422852,45.608516693115234
1700957973192628200,6.115628173828125,6.284575462341309,17.196449279785156,37.72606658935547
1700957973209619500,6.132619384765625,2.3568623065948486,21.744184494018555,23.36257553100586
1700957973226610400,6.1496103515625,-1.5908451080322266,22.459270477294922,12.509727478027344
1700957973243601700,6.1666015625,-3.337057590484619,23.007436752319336,2.1905603408813477
1700957973260592600,6.183592529296875,-3.8978302478790283,24.437570571899414,-5.8969526290893555
1700957973277573400,6.200573486328125,-1.2434895038604736,25.753517150878906,-9.0391263961792
1700957973294574800,6.217574951171875,2.7144594192504883,27.516935348510742,-8.955329895019531
1700957973311565800,6.23456591796875,3.843200206756592,27.19525146484375,-8.475526809692383
1700957973328556800,6.251556884765625,2.209777593612671,25.408966064453125,-11.372560501098633
1700957973345558300,6.268558349609375,0.18155372142791748,23.5880069732666,-13.24372673034668
1700957973362539500,6.28553955078125,0.7707175016403198,22.171669006347656,-8.912898063659668
1700957973379529000,6.302529052734375,2.9248127937316895,19.649322509765625,1.650564193725586
1700957973396523000,6.31952294921875,2.4309847354888916,16.6012020111084,14.12380599975586
1700957973413510100,6.33651025390625,0.9672632217407227,14.728225708007812,19.9417724609375
1700957973430506200,6.35350634765625,1.2809009552001953,13.08315658569336,24.949909210205078
1700957973447492000,6.3704921875,7.152209758758545,14.155563354492188,29.030189514160156
1700957973464488700,6.38748876953125,7.03854513168335,10.771296501159668,39.98744583129883
1700957973481477400,6.404477294921875,2.3062334060668945,6.491424560546875,44.88608169555664
1700957973498468000,6.421468017578125,-4.352433681488037,2.060884475708008,42.04380798339844
1700957973515459600,6.43845947265625,-11.346807479858398,-5.5184431076049805,35.414634704589844
1700957973532439300,6.455439208984375,-6.118855953216553,-15.01705551147461,24.386632919311523
1700957973549443000,6.472443115234375,7.9812822341918945,-23.810466766357422,13.509016036987305
1700957973566422500,6.489422607421875,19.67397689819336,-28.410688400268555,5.925339698791504
1700957973583413500,6.50641357421875,16.884214401245117,-31.430221557617188,3.2054343223571777
1700957973600414200,6.523414306640625,6.448275566101074,-33.77909469604492,3.917590618133545
1700957973617407000,6.540406982421875,-1.5429143905639648,-32.876163482666016,5.904082298278809
1700957973634397200,6.557397216796875,-4.732662200927734,-32.089073181152344,8.006027221679688
1700957973651389400,6.574389404296875,0.7152283191680908,-32.14252471923828,7.5887837409973145
1700957973668377600,6.591377685546875,6.764418601989746,-30.657886505126953,5.001195907592773
1700957973685370600,6.60837060546875,8.323745727539062,-27.864364624023438,3.9727156162261963
1700957973702361900,6.62536181640625,5.126381874084473,-25.66033172607422,5.675962924957275
1700957973719352800,6.642352783203125,0.9147689342498779,-23.888290405273438,9.253205299377441
1700957973736333300,6.659333251953125,-4.800908088684082,-22.17770004272461,16.385459899902344
1700957973753332500,6.67633251953125,-6.998593330383301,-19.116405487060547,22.623943328857422
1700957973770328000,6.693328125,-5.342497825622559,-13.487663269042969,21.666584014892578
1700957973787318300,6.710318359375,-3.973870038986206,-3.0175886154174805,21.608322143554688
1700957973804308500,6.72730859375,-4.348749160766602,4.291621685028076,32.781578063964844
1700957973821299500,6.744299560546875,-0.9263355731964111,6.183830738067627,52.242374420166016
1700957973838291000,6.761291015625,6.40382194519043,12.50247573852539,60.10387420654297
1700957973855282000,6.778281982421875,14.814797401428223,21.077913284301758,43.54862594604492
1700957973872273200,6.795273193359375,14.214088439941406,22.39396095275879,20.908302307128906
1700957973889263900,6.812263916015625,6.299501419067383,19.178728103637695,5.438597679138184
1700957973906255400,6.82925537109375,0.9919201135635376,17.3591251373291,-6.238053321838379
1700957973923246600,6.84624658203125,-0.6481685638427734,18.31247329711914,-13.286334037780762
1700957973940237600,6.863237548828125,-0.10468006134033203,19.71686363220215,-15.076310157775879
1700957973957228800,6.880228759765625,1.120578408241272,21.13729476928711,-14.751070022583008
1700957973974221600,6.8972216796875,2.394996404647827,21.86773681640625,-14.451093673706055
1700957973991209200,6.914209228515625,3.7721433639526367,21.554950714111328,-14.328067779541016
1700957974008202500,6.931202392578125,4.120388507843018,20.749643325805664,-13.772116661071777
1700957974025193200,6.948193115234375,3.163811206817627,19.766706466674805,-10.490096092224121
1700957974042184200,6.96518408203125,0.5284543037414551,18.260120391845703,-3.2791271209716797
1700957974059175400,6.982175537109375,-1.3480685949325562,16.576025009155273,5.68160343170166
1700957974076161300,6.999161376953125,-1.430983304977417,15.274921417236328,12.58925724029541
1700957974093157400,7.016157470703125,1.4865925312042236,15.336784362792969,19.459354400634766
1700957974110138400,7.033138427734375,6.641707420349121,17.25955581665039,25.22508430480957
1700957974127139800,7.050139892578125,6.164225101470947,14.974166870117188,35.07514953613281
1700957974144120600,7.06712060546875,-0.2100006341934204,11.956109046936035,43.65436553955078
1700957974161119700,7.08411962890625,-10.01609992980957,5.0395097732543945,43.187416076660156
1700957974178104000,7.10110400390625,-13.152950286865234,-3.300273895263672,31.51500129699707
1700957974195100700,7.1181005859375,-5.174420356750488,-10.572543144226074,20.855592727661133
1700957974212088800,7.1350888671875,3.6052439212799072,-17.667909622192383,15.024909973144531
1700957974229072000,7.15207177734375,10.494359016418457,-21.627681732177734,9.767905235290527
1700957974246080300,7.169080322265625,11.66750431060791,-25.438400268554688,6.363710880279541
1700957974263069000,7.18606884765625,6.904741287231445,-28.062313079833984,4.023192882537842
1700957974280059100,7.20305908203125,2.8187103271484375,-29.019899368286133,2.6204776763916016
1700957974297051100,7.220051025390625,3.055344820022583,-30.132373809814453,2.277757167816162
1700957974314039800,7.237039794921875,7.430288314819336,-32.387813568115234,3.058547019958496
1700957974331036200,7.2540361328125,10.15813159942627,-32.757469177246094,2.3578431606292725
1700957974348024800,7.27102490234375,8.377945899963379,-31.43675994873047,2.0361857414245605
1700957974365015600,7.288015625,4.842227935791016,-29.27798080444336,2.5055739879608154
1700957974382007000,7.305007080078125,4.007185935974121,-27.919376373291016,4.078854560852051
1700957974398998000,7.321998046875,2.7798337936401367,-27.305761337280273,8.892306327819824
1700957974415989000,7.338989013671875,-1.7711601257324219,-26.066967010498047,17.70561408996582
1700957974432978200,7.355978271484375,-6.903310775756836,-21.07437515258789,20.273761749267578
1700957974449971000,7.372970947265625,-7.611612319946289,-8.066659927368164,17.71112060546875
1700957974466959600,7.389959716796875,-12.810932159423828,-0.8110365867614746,31.098834991455078
1700957974483956500,7.40695654296875,-12.06473159790039,2.822734832763672,53.780948638916016
1700957974500935000,7.423934814453125,0.46350765228271484,9.774045944213867,67.38775634765625
1700957974517935900,7.440935791015625,9.712044715881348,19.192590713500977,49.846866607666016
1700957974534926800,7.4579267578125,7.609322547912598,19.90047836303711,22.29560089111328
1700957974551916800,7.474916748046875,-4.086104393005371,16.521728515625,4.486860275268555
1700957974568910800,7.491910888671875,-12.037043571472168,15.456357955932617,-7.075559616088867
1700957974585900300,7.508900390625,-9.66650390625,15.874706268310547,-14.35779857635498
1700957974602891500,7.5258916015625,-0.8672451972961426,16.731250762939453,-14.885086059570312
1700957974619882500,7.542882568359375,4.530595779418945,19.464569091796875,-9.775613784790039
1700957974636886000,7.559885986328125,0.8096365928649902,21.775672912597656,-5.763538360595703
1700957974653864700,7.57686474609375,-3.216672658920288,22.94797706604004,-10.643196105957031
1700957974670856200,7.593856201171875,-3.2564873695373535,22.692323684692383,-16.388500213623047
1700957974687848000,7.610847900390625,1.5430374145507812,21.49004554748535,-14.39797592163086
1700957974704838100,7.627838134765625,3.6461637020111084,19.298137664794922,-4.324629306793213
1700957974721829400,7.644829345703125,1.4529322385787964,17.41241455078125,7.827215194702148
1700957974738820600,7.661820556640625,-1.2539421319961548,16.258317947387695,14.216743469238281
1700957974755811800,7.678811767578125,-2.1146621704101562,15.635530471801758,16.4157772064209
1700957974772803000,7.695802978515625,1.694976806640625,16.835426330566406,20.332061767578125
1700957974789794000,7.7127939453125,6.248835563659668,14.837725639343262,29.964401245117188
1700957974806785000,7.729784912109375,5.56215763092041,11.716201782226562,36.57292175292969
1700957974823778800,7.74677880859375,-2.3003010749816895,7.249321937561035,38.38108444213867
1700957974840768500,7.7637685546875,-7.341808319091797,-0.9820270538330078,37.204593658447266
1700957974857747700,7.780747802734375,-3.9482903480529785,-11.331230163574219,31.221277236938477
1700957974874747000,7.797746826171875,5.181972026824951,-21.09444808959961,22.37739372253418
1700957974891743500,7.814743408203125,13.3707914352417,-27.779293060302734,13.023391723632812
1700957974908727800,7.831727783203125,16.41606903076172,-31.115039825439453,5.403193950653076
1700957974925718800,7.84871875,12.378639221191406,-34.87489318847656,1.9790329933166504
1700957974942702600,7.86570263671875,5.408627510070801,-36.04985046386719,-0.13529671728610992
1700957974959700500,7.882700439453125,1.4317269325256348,-35.44152069091797,-2.088115692138672
1700957974976689000,7.89968896484375,2.0117502212524414,-34.868133544921875,-2.6258835792541504
1700957974993676500,7.916676513671875,4.752349376678467,-32.94244384765625,-2.9099225997924805
1700957975010670000,7.933670166015625,6.209869861602783,-30.685302734375,-1.3242595195770264
1700957975027660500,7.95066064453125,5.965798854827881,-28.20604705810547,3.740215539932251
1700957975044653300,7.9676533203125,4.722287654876709,-26.04142951965332,8.942754745483398
1700957975061643800,7.984643798828125,1.9244709014892578,-23.657543182373047,11.408601760864258
1700957975078635300,8.00163525390625,-3.5181198120117188,-21.082103729248047,13.347734451293945
1700957975095629300,8.01862939453125,-5.537961006164551,-12.051627159118652,15.239767074584961
1700957975112623400,8.035623291015625,-4.810726165771484,-3.8398990631103516,30.865856170654297
1700957975129609000,8.05260888671875,-8.464534759521484,1.5084717273712158,54.5407600402832
1700957975146598100,8.06959814453125,0.1182107925415039,9.540200233459473,53.866050720214844
1700957975163588000,8.086588134765625,14.405954360961914,18.274011611938477,38.0029296875
1700957975180592400,8.10359228515625,11.058880805969238,19.350778579711914,28.159128189086914
1700957975197571000,8.120571044921874,2.3593661785125732,17.514543533325195,17.928752899169922
1700957975214572500,8.137572509765626,-0.29311275482177734,14.581218719482422,5.004956245422363
1700957975231563800,8.154563720703125,0.9768387079238892,12.411018371582031,-4.902204513549805
1700957975248554800,8.1715546875,3.303096294403076,12.679240226745605,-10.0011625289917
1700957975265545700,8.188545654296876,3.9728312492370605,14.195140838623047,-11.331135749816895
1700957975282535200,8.20553515625,3.1912503242492676,16.114391326904297,-9.997411727905273
1700957975299528200,8.222528076171875,3.7531557083129883,17.386730194091797,-8.48634147644043
1700957975316519400,8.23951953125,4.834356307983398,17.60848045349121,-9.6748628616333
1700957975333508000,8.256508056640625,2.474125862121582,17.18746566772461,-11.490161895751953
1700957975350504200,8.273504150390625,-1.2616677284240723,16.790699005126953,-11.418676376342773
1700957975367492600,8.29049267578125,-3.9566526412963867,16.062946319580078,-8.060144424438477
1700957975384483800,8.30748388671875,-5.262237071990967,15.053753852844238,-1.111900806427002
1700957975401475000,8.32447509765625,-3.927454710006714,13.159257888793945,7.366467475891113
1700957975418466000,8.341466064453124,-0.6128555536270142,13.458277702331543,11.516164779663086
1700957975435457000,8.35845703125,3.581038475036621,16.47201919555664,15.597803115844727
1700957975452448800,8.37544873046875,6.463709354400635,18.100589752197266,27.03118896484375
1700957975469439500,8.392439453125,8.964695930480957,13.677047729492188,39.65039825439453
1700957975486431000,8.409430908203126,7.899062156677246,8.91714859008789,43.064735412597656
1700957975503421700,8.426421630859375,-0.01735830307006836,2.071136474609375,41.93104553222656
1700957975520411000,8.443410888671876,-3.5235002040863037,-7.214442253112793,34.88396072387695
1700957975537406500,8.460406494140624,-0.5748500823974609,-14.556841850280762,23.025306701660156
1700957975554386000,8.477385986328125,3.8455681800842285,-21.269641876220703,14.532175064086914
1700957975571386400,8.494386474609374,7.664742469787598,-27.281986236572266,8.306464195251465
1700957975588377300,8.51137744140625,8.924036979675293,-32.239166259765625,2.486720323562622
1700957975605368800,8.528368896484375,7.865512847900391,-35.038482666015625,-0.8748589158058167
1700957975622360000,8.545360107421875,5.949026107788086,-35.76498794555664,-2.854421854019165
1700957975639351000,8.56235107421875,3.199777841567993,-35.62632751464844,-3.1982977390289307
1700957975656332000,8.57933203125,1.0672714710235596,-34.2753791809082,-3.425244092941284
1700957975673331000,8.5963310546875,0.7558882236480713,-31.939697265625,-2.7880187034606934
1700957975690327300,8.613327392578125,1.7071635723114014,-30.08383560180664,-0.5770425796508789
1700957975707315700,8.630315673828125,2.689213752746582,-29.974748611450195,4.581568717956543
1700957975724304400,8.647304443359374,2.271134853363037,-29.583065032958984,10.708590507507324
1700957975741290000,8.6642900390625,0.449451208114624,-27.03744888305664,15.44106674194336
1700957975758289200,8.6812890625,-5.214605808258057,-22.64586067199707,17.518239974975586
1700957975775280000,8.698280029296875,-8.549270629882812,-12.722612380981445,15.716432571411133
1700957975792271400,8.715271240234374,-12.535938262939453,-8.95355224609375,30.127653121948242
1700957975809260000,8.732260009765625,-17.868755340576172,-6.186125755310059,55.10341262817383
1700957975826256100,8.749256103515625,-4.126747131347656,-2.4736549854278564,63.570823669433594
1700957975843245000,8.7662451171875,16.67745018005371,8.02229118347168,47.32109451293945
1700957975860233200,8.783233154296875,23.183528900146484,10.968781471252441,28.074127197265625
1700957975877229800,8.800229736328125,16.997041702270508,11.230573654174805,13.606109619140625
1700957975894218500,8.817218505859374,3.6895828247070312,11.609511375427246,5.374049186706543
1700957975911209700,8.834209716796876,-6.072650909423828,12.660636901855469,2.6014108657836914
1700957975928200700,8.85120068359375,-7.260628700256348,13.902950286865234,1.781245231628418
1700957975945192000,8.86819189453125,-0.05015873908996582,14.702980041503906,-1.2454590797424316
1700957975962172400,8.88517236328125,7.578978061676025,15.727909088134766,-3.798271656036377
1700957975979174100,8.902174072265625,10.738144874572754,16.523977279663086,-4.760404586791992
1700957975996151000,8.919151123046875,9.006681442260742,17.264888763427734,-7.078320503234863
1700957976013156600,8.936156494140626,5.554352760314941,17.236352920532227,-9.23799991607666
1700957976030145300,8.953145263671875,2.3115556240081787,17.086015701293945,-10.149873733520508
1700957976047140900,8.970140869140625,1.7529017925262451,15.951159477233887,-9.11175537109375
1700957976064130000,8.987130126953126,3.218654155731201,13.388863563537598,-5.899250507354736
1700957976081121000,9.00412109375,4.4021430015563965,10.874990463256836,-1.8126296997070312
1700957976098103300,9.021103271484375,4.972311019897461,10.152338027954102,1.6223669052124023
1700957976115103200,9.038103271484376,6.569949150085449,12.263184547424316,6.365543365478516
1700957976132082000,9.05508203125,8.024571418762207,14.238574981689453,17.121562957763672
1700957976149088300,9.072088134765625,8.902851104736328,15.826181411743164,29.733158111572266
1700957976166077000,9.089076904296874,5.979647159576416,14.34457778930664,44.62413024902344
1700957976183067600,9.106067626953125,-1.9807639122009277,6.937621593475342,51.31340026855469
1700957976200065500,9.1230654296875,-8.623238563537598,-1.6646103858947754,47.21490478515625
1700957976217050000,9.140050048828124,-7.771786212921143,-11.43737506866455,36.068721771240234
1700957976234041300,9.157041259765625,-2.2982001304626465,-17.73174285888672,22.63622283935547
1700957976251032300,9.1740322265625,2.4905545711517334,-20.036827087402344,14.404237747192383
1700957976268023600,9.1910234375,5.015061378479004,-20.907909393310547,11.489776611328125
1700957976285014800,9.208014892578126,5.571580410003662,-21.837980270385742,9.897049903869629
1700957976302004700,9.225004638671875,6.227845191955566,-23.255416870117188,9.437150001525879
1700957976318988500,9.241988525390624,6.8244781494140625,-26.013973236083984,8.039113998413086
1700957976335988500,9.258988525390626,6.646807670593262,-28.211915969848633,4.231065273284912
1700957976352977200,9.27597705078125,5.619186878204346,-27.915224075317383,-1.7680445909500122
1700957976369973200,9.29297314453125,4.28059196472168,-26.121755599975586,-5.639784336090088
1700957976386962000,9.3099619140625,2.6653008460998535,-24.65239143371582,-6.185804843902588
1700957976403953000,9.326952880859375,3.0893924236297607,-23.94921875,-4.96366024017334
1700957976420945200,9.343945068359375,5.535181999206543,-23.862083435058594,-3.274651527404785
1700957976437923300,9.36092333984375,8.425933837890625,-23.229656219482422,-2.9024624824523926
1700957976454919400,9.37791943359375,6.236387252807617,-22.9405517578125,-3.3861093521118164
1700957976471916300,9.394916259765624,1.216904640197754,-20.657896041870117,-3.4318947792053223
1700957976488910000,9.41191015625,-4.532973289489746,-15.225300788879395,0.3566737174987793
1700957976505892900,9.428892822265626,-9.87170124053955,-10.074209213256836,15.172243118286133
1700957976522891000,9.44589111328125,-9.210905075073242,-4.040668487548828,30.608827590942383
1700957976539882200,9.46288232421875,-5.446310043334961,3.5288901329040527,35.932472229003906
1700957976556885800,9.4798857421875,-0.5400071144104004,9.731537818908691,34.70901107788086
1700957976573864200,9.4968642578125,-0.33306407928466797,10.287869453430176,30.767528533935547
1700957976590855700,9.513855712890624,-1.9097986221313477,9.845691680908203,24.40526008605957
1700957976607847000,9.530846923828125,-2.452091693878174,9.417654037475586,15.043437957763672
1700957976624838100,9.547838134765625,-1.0204429626464844,9.130302429199219,6.916652202606201
1700957976641816000,9.564816162109375,-0.888946533203125,8.23789119720459,3.0382442474365234
1700957976658825000,9.581824951171875,-1.0495247840881348,7.0653581619262695,0.6839895248413086
1700957976675809000,9.59880908203125,-0.09452533721923828,5.929328918457031,-1.7860403060913086
1700957976692802800,9.615802734375,1.244340419769287,4.813545227050781,-3.494129180908203
1700957976709781800,9.63278173828125,2.184356927871704,4.31374979019165,-4.962246894836426
1700957976726776000,9.649776123046875,2.35793137550354,4.094858169555664,-6.305811882019043
1700957976743778600,9.666778564453125,1.9683432579040527,4.357142448425293,-7.082647800445557
1700957976760767200,9.683767333984376,1.5080673694610596,4.559009075164795,-7.339951515197754
1700957976777747700,9.700747802734375,1.6954255104064941,4.410038948059082,-6.545166969299316
1700957976794749400,9.71774951171875,2.056975841522217,4.1631245613098145,-5.206790924072266
1700957976811741000,9.734740966796876,1.8895184993743896,3.72843337059021,-4.47035551071167
1700957976828731600,9.751731689453125,1.798832654953003,4.458396911621094,-4.818922996520996
1700957976845723000,9.768722900390625,0.5999181270599365,6.431740760803223,-4.696244239807129
1700957976862705700,9.78570556640625,-1.1890051364898682,9.82121753692627,-2.715559959411621
1700957976879705600,9.80270556640625,-2.403860092163086,12.05080795288086,3.740769863128662
1700957976896696600,9.819696533203125,3.2286744117736816,16.53805160522461,9.358125686645508
1700957976913687600,9.8366875,6.0108418464660645,18.511198043823242,19.642114639282227
1700957976930679000,9.853678955078125,7.9065046310424805,16.688684463500977,29.589143753051758
1700957976947670000,9.870669921875,6.008544445037842,10.865459442138672,34.523502349853516
1700957976964651000,9.887651123046876,4.344449520111084,4.9746246337890625,30.188140869140625
1700957976981649700,9.904649658203125,3.3891382217407227,-1.0167617797851562,22.838294982910156
1700957976998646300,9.921646240234375,2.839737892150879,-6.139978408813477,16.066097259521484
1700957977015635000,9.938635009765624,2.0599122047424316,-9.314937591552734,10.919561386108398
1700957977032622300,9.955622314453125,0.8007364273071289,-11.18425178527832,7.655071258544922
1700957977049620700,9.972620849609376,-0.4400712251663208,-12.362464904785156,5.451817989349365
1700957977066608000,9.989608154296874,-1.4356133937835693,-13.019633293151855,3.613678455352783
1700957977083599000,10.00659912109375,-1.6882216930389404,-13.271692276000977,2.069807767868042
1700957977100603000,10.023602783203126,-1.4523720741271973,-13.180781364440918,0.5254403352737427
1700957977117571000,10.040571044921874,-1.4092718362808228,-12.86457633972168,-0.7234421968460083
1700957977134572500,10.057572509765626,-1.6834816932678223,-12.575749397277832,-1.013361930847168
1700957977151560400,10.074560546875,-2.1947739124298096,-12.23888111114502,-0.8998919725418091
1700957977168554200,10.09155419921875,-2.626213312149048,-11.894911766052246,-0.061981916427612305
1700957977185547300,10.10854736328125,-2.6717963218688965,-11.378515243530273,0.5082414150238037
1700957977202537200,10.125537109375,-3.0020437240600586,-10.803000450134277,0.7056586742401123
1700957977219526000,10.14252587890625,-3.2586402893066406,-10.116741180419922,0.036426544189453125
1700957977236520200,10.159520263671874,-2.8824422359466553,-9.542567253112793,-0.882601261138916
1700957977253510400,10.176510498046875,-2.123582601547241,-9.33452033996582,-1.2790228128433228
1700957977270504700,10.193504638671875,-1.005208134651184,-9.019233703613281,-1.211643099784851
1700957977287493400,10.210493408203124,0.08884775638580322,-8.547259330749512,-0.2569856643676758
1700957977304484400,10.227484375,1.1581754684448242,-7.1958160400390625,0.5863721370697021
1700957977321475800,10.244475830078125,1.8605321645736694,-5.122359275817871,0.9142401218414307
1700957977338464300,10.26146435546875,3.217501640319824,-3.583474636077881,0.44744038581848145
1700957977355459600,10.27845947265625,1.3445162773132324,1.1771020889282227,0.3036763668060303
1700957977372439300,10.295439208984375,0.9679759740829468,4.07850456237793,-0.33032822608947754
1700957977389442000,10.312442138671875,1.9990894794464111,6.9956865310668945,1.696944236755371
1700957977406429700,10.3294296875,5.678232192993164,5.474005699157715,5.3462982177734375
1700957977423422700,10.346422607421875,8.110098838806152,3.518310546875,6.954001426696777
1700957977440413400,10.363413330078124,8.051010131835938,1.736119270324707,5.607719421386719
1700957977457405400,10.380405517578126,8.261922836303711,0.5997285842895508,2.0413999557495117
1700957977474396200,10.397396240234375,9.138967514038086,0.795262336730957,-0.6154124736785889
1700957977491375900,10.4143759765625,8.792403221130371,0.597930908203125,-0.4200916290283203
1700957977508380200,10.431380126953124,6.240032196044922,0.048220157623291016,1.0038646459579468
1700957977525371000,10.448370849609375,2.574769973754883,-0.2123432159423828,5.274898052215576
1700957977542361000,10.465361083984375,0.7816276550292969,1.672262191772461,9.906187057495117
1700957977559349500,10.482349609375,-4.172888278961182,1.0126514434814453,0.751960277557373
1700957977576335400,10.49933544921875,-4.413564205169678,-0.469327449798584,-2.882754325866699
1700957977593331500,10.51633154296875,-3.2689883708953857,-2.7986855506896973,-4.209892272949219
1700957977610328000,10.533328125,-0.8469681739807129,-3.6831634044647217,-3.4464359283447266
1700957977627316500,10.55031640625,0.5722036361694336,-4.547387599945068,-1.9819397926330566
1700957977644298000,10.567298095703125,1.156486988067627,-4.795419692993164,-1.3020070791244507
1700957977661293300,10.584293212890625,0.3474607467651367,-4.405573844909668,-1.350967288017273
1700957977678280000,10.601280029296875,-0.8912253379821777,-3.3437209129333496,-0.9269923567771912
1700957977695274200,10.618274169921875,-0.8424763679504395,-2.2252426147460938,-0.06029915809631348
1700957977712269600,10.63526953125,0.12882041931152344,-1.2109246253967285,0.893722653388977
1700957977729266200,10.65226611328125,0.8093123435974121,-0.5001640319824219,1.3524341583251953
1700957977746266400,10.669266357421876,1.0107359886169434,-0.39953184127807617,0.7484273910522461
1700957977763246300,10.686246337890625,1.1045913696289062,-0.6821932792663574,-0.07500326633453369
1700957977780237300,10.7032373046875,1.1113905906677246,-0.8006811141967773,0.08611512184143066
1700957977797218300,10.72021826171875,1.841057300567627,-0.6692886352539062,0.3972017765045166
1700957977814219800,10.7372197265625,2.8229904174804688,-0.3056035041809082,0.6633479595184326
1700957977831211000,10.7542109375,3.5120315551757812,-0.04938983917236328,0.6788430213928223
1700957977848191500,10.77119140625,4.269874572753906,0.2614002227783203,0.592705488204956
1700957977865193000,10.78819287109375,4.434473991394043,0.1251692771911621,0.7278452515602112
1700957977882184400,10.805184326171876,4.560952663421631,-0.3024435043334961,0.963487982749939
1700957977899176000,10.822176025390625,5.098466396331787,-0.640894889831543,0.9746009111404419
1700957977916161500,10.83916162109375,5.514185905456543,-0.9076714515686035,0.8386985659599304
1700957977933158000,10.856157958984374,5.00506591796875,-1.1282992362976074,0.6867967247962952
1700957977950162200,10.873162109375,3.627997875213623,-1.2959637641906738,0.5816158056259155
1700957977967140000,10.89014013671875,2.4243693351745605,-1.4309120178222656,0.5727867484092712
1700957977984130800,10.907130859375,1.5133318901062012,-1.5651450157165527,0.40047669410705566
1700957978001123300,10.924123291015626,0.7207021713256836,-1.7651495933532715,0.44674384593963623
1700957978018113500,10.941113525390625,0.4257164001464844,-1.998347282409668,0.4967484474182129
1700957978035105000,10.95810498046875,0.7737908363342285,-2.080810546875,0.7092655897140503
1700957978052093400,10.975093505859375,1.5009632110595703,-2.4546051025390625,1.0929310321807861
1700957978069088000,10.992087890625,0.7660832405090332,-2.388174057006836,1.6721453666687012
1700957978086080300,11.009080322265625,0.04414653778076172,-2.387302875518799,1.6153323650360107
1700957978103069700,11.026069580078126,-0.10990142822265625,-2.225069522857666,1.2314993143081665
