time,seconds_elapsed,z,y,x
1700958236856504800,0.1155048828125,-0.5877103805541992,-0.09968185424804688,0.30216825008392334
1700958236873509400,0.13250927734375,-0.8953399658203125,0.1370677947998047,0.430997371673584
1700958236890497500,0.14949755859375,-1.0315170288085938,0.030379772186279297,0.20647871494293213
1700958236907492900,0.166492919921875,-1.3055930137634277,-0.10757160186767578,-0.39894378185272217
1700958236924484000,0.183484130859375,-1.347762107849121,-0.23885202407836914,-0.9675285220146179
1700958236941474800,0.200474853515625,-1.5917091369628906,-0.4928274154663086,-0.754663348197937
1700958236958473500,0.217473388671875,-2.195232391357422,-0.7961564064025879,-0.6055507063865662
1700958236975462700,0.234462646484375,-3.116647720336914,-0.9603142738342285,-0.5698453783988953
1700958236992456700,0.251456787109375,-3.376204252243042,-1.5363140106201172,-0.7238895893096924
1700958237009445000,0.268445068359375,-3.028082847595215,-1.761970043182373,-0.3743259906768799
1700958237026440000,0.28543994140625,-2.5412745475769043,-2.406303644180298,-0.5057433843612671
1700958237043434000,0.30243408203125,-1.3242058753967285,-2.796008825302124,-1.3945579528808594
1700958237060422400,0.31942236328125,-0.706000804901123,-3.6256606578826904,-2.216322898864746
1700958237077420500,0.336420654296875,-0.08381509780883789,-4.816734313964844,-2.566251277923584
1700958237094411800,0.353411865234375,-0.017520427703857422,-5.385492324829102,-2.864989757537842
1700958237111400700,0.370400634765625,-2.350257396697998,-6.348250389099121,-3.3626701831817627
1700958237128383000,0.387383056640625,-5.071988582611084,-7.433584690093994,-2.836615800857544
1700958237145382100,0.404382080078125,-3.5796332359313965,-8.95195484161377,-1.9828238487243652
1700958237162371000,0.42137109375,-1.3854057788848877,-10.51395034790039,-1.3099584579467773
1700958237179365400,0.438365478515625,-0.09636330604553223,-11.349071502685547,-0.5475530624389648
1700958237196367600,0.45536767578125,-0.915388822555542,-11.95486068725586,0.7989592552185059
1700958237213359900,0.47235986328125,-2.7364203929901123,-12.349199295043945,2.407163619995117
1700958237230343200,0.48934326171875,-3.3757131099700928,-13.578415870666504,3.9836244583129883
1700958237247345200,0.50634521484375,-1.5146596431732178,-14.43452262878418,5.315341949462891
1700958237264338700,0.523338623046875,1.2253772020339966,-14.972444534301758,6.627001762390137
1700958237281327600,0.54032763671875,3.5049123764038086,-15.130104064941406,6.988978385925293
1700958237298307300,0.557307373046875,4.709547996520996,-14.85571002960205,6.855335235595703
1700958237315309300,0.574309326171875,4.1747870445251465,-14.07414722442627,8.075385093688965
1700958237332304400,0.591304443359375,2.826404094696045,-13.513635635375977,10.582775115966797
1700958237349296000,0.608296142578125,2.1354308128356934,-12.507110595703125,12.31296157836914
1700958237366291500,0.62529150390625,2.9436678886413574,-10.631612777709961,12.84243392944336
1700958237383285500,0.642285400390625,3.751941442489624,-8.140327453613281,12.146862983703613
1700958237400272000,0.65927197265625,3.794394016265869,-5.889028072357178,11.422484397888184
1700958237417267200,0.67626708984375,3.8325629234313965,-3.3184680938720703,11.35038948059082
1700958237434261000,0.693260986328125,3.1393866539001465,-0.7565360069274902,13.089141845703125
1700958237451236600,0.710236572265625,1.8668025732040405,2.712940216064453,13.491537094116211
1700958237468245500,0.72724560546875,-0.47811782360076904,5.1895341873168945,12.405393600463867
1700958237485237000,0.744237060546875,-2.616687536239624,6.960019111633301,11.25970458984375
1700958237502228000,0.76122802734375,-2.9270882606506348,8.146950721740723,12.010385513305664
1700958237519220200,0.77822021484375,-0.41914862394332886,8.784719467163086,13.882699966430664
1700958237536217000,0.795217041015625,1.522282600402832,10.142243385314941,14.09439468383789
1700958237553208600,0.81220849609375,0.8644475340843201,11.692038536071777,13.44191837310791
1700958237570198000,0.829197998046875,-1.1375970840454102,13.349370956420898,13.142280578613281
1700958237587181000,0.84618115234375,-1.4728288650512695,15.574542999267578,13.654121398925781
1700958237604186000,0.86318603515625,-0.09187528491020203,16.694313049316406,14.959537506103516
1700958237621174300,0.88017431640625,-0.3288270831108093,16.732606887817383,15.908456802368164
1700958237638170600,0.897170654296875,-1.0606415271759033,15.413747787475586,14.868206977844238
1700958237655161900,0.914161865234375,-1.048551321029663,14.033327102661133,11.337454795837402
1700958237672152800,0.93115283203125,-0.2910380959510803,12.415789604187012,8.650285720825195
1700958237689146000,0.94814599609375,0.6632820963859558,10.048563957214355,8.338884353637695
1700958237706141200,0.96514111328125,1.2054343223571777,8.554168701171875,12.276987075805664
1700958237723133700,0.9821337890625,0.0543784499168396,5.446271896362305,16.743377685546875
1700958237740121600,0.99912158203125,1.0299302339553833,1.8208606243133545,17.88876724243164
1700958237757117000,1.016116943359375,5.5096755027771,-1.307572841644287,16.511940002441406
1700958237774111200,1.033111328125,9.243408203125,-5.446599006652832,18.450069427490234
1700958237791099400,1.050099365234375,9.463921546936035,-10.879947662353516,23.00524139404297
1700958237808094700,1.0670947265625,7.322051525115967,-16.079147338867188,26.123594284057617
1700958237825087700,1.084087646484375,3.3169310092926025,-20.372037887573242,26.442760467529297
1700958237842075000,1.101074951171875,-0.18419581651687622,-22.76652717590332,24.26141357421875
1700958237859074600,1.118074462890625,-0.3082619309425354,-23.486719131469727,20.496021270751953
1700958237876065000,1.13506494140625,2.613528251647949,-24.4954833984375,16.355819702148438
1700958237893057800,1.152057861328125,5.814774513244629,-24.855268478393555,10.759571075439453
1700958237910049500,1.169049560546875,8.77148151397705,-24.084938049316406,4.237386703491211
1700958237927030000,1.186030029296875,11.012733459472656,-22.93761444091797,-1.5318398475646973
1700958237944035800,1.203035888671875,10.487618446350098,-22.59219741821289,-5.819685935974121
1700958237961024300,1.220024169921875,6.750271797180176,-24.624614715576172,-8.577049255371094
1700958237978017300,1.237017333984375,1.517124891281128,-25.979263305664062,-16.955236434936523
1700958237995001300,1.25400146484375,3.419954299926758,-23.66141128540039,-25.714208602905273
1700958238012002000,1.271001953125,7.942276954650879,-22.194293975830078,-27.3809814453125
1700958238028987100,1.287987060546875,10.953178405761719,-21.66301918029785,-22.785600662231445
1700958238045989400,1.3049892578125,8.932085037231445,-20.09598159790039,-15.797141075134277
1700958238062980600,1.321980712890625,2.172518014907837,-17.575029373168945,-10.96064567565918
1700958238079974400,1.338974365234375,-3.8460617065429688,-14.777734756469727,-7.569842338562012
1700958238096962800,1.355962890625,-2.512873888015747,-13.751907348632812,-4.196309566497803
1700958238113964500,1.372964599609375,5.092310428619385,-12.285740852355957,-1.1789636611938477
1700958238130949400,1.389949462890625,5.6410675048828125,-12.124011993408203,4.704357147216797
1700958238147945000,1.406945068359375,-0.976438581943512,-12.568662643432617,11.548547744750977
1700958238164937500,1.4239375,-9.03951644897461,-12.85388469696045,10.991961479187012
1700958238181926700,1.4409267578125,-9.66628360748291,-10.576858520507812,9.01164722442627
1700958238198922500,1.457922607421875,-2.314258098602295,-9.599926948547363,15.821318626403809
1700958238215914200,1.474914306640625,5.39893102645874,-6.107192039489746,26.609832763671875
1700958238232908300,1.491908203125,7.366988658905029,-1.0141246318817139,34.42412185668945
1700958238249896700,1.508896728515625,6.779653072357178,4.343375205993652,31.99160385131836
1700958238266891500,1.5258916015625,6.105653285980225,9.279987335205078,22.03882598876953
1700958238283885600,1.542885498046875,2.2551209926605225,11.523462295532227,13.954280853271484
1700958238300874000,1.5598740234375,-1.7005915641784668,12.990411758422852,7.146860122680664
1700958238317868800,1.576868896484375,-3.105515480041504,14.647684097290039,0.25045013427734375
1700958238334863000,1.593863037109375,0.3102991580963135,16.654727935791016,-4.403504848480225
1700958238351851800,1.610851806640625,4.149833679199219,18.466449737548828,-4.726554870605469
1700958238368847400,1.627847412109375,4.260083198547363,19.37704849243164,-3.035492420196533
1700958238385828600,1.64482861328125,0.7768445014953613,19.41630744934082,-1.8829808235168457
1700958238402833200,1.661833251953125,-3.0721006393432617,17.556034088134766,-1.956803321838379
1700958238419818500,1.678818603515625,-3.969935894012451,15.130849838256836,-3.8830833435058594
1700958238436816400,1.69581640625,-1.0658525228500366,12.955204963684082,-4.902470588684082
1700958238453810700,1.712810791015625,2.158360481262207,10.615416526794434,-3.073375701904297
1700958238470799000,1.729799072265625,3.9680023193359375,7.878279685974121,2.4887704849243164
1700958238487794200,1.746794189453125,3.9626340866088867,5.620702743530273,6.955185890197754
1700958238504788000,1.7637880859375,0.8113279342651367,4.738745212554932,8.842713356018066
1700958238521773800,1.78077392578125,-2.33819317817688,4.472390651702881,12.241251945495605
1700958238538774000,1.79777392578125,1.8939229249954224,5.406247138977051,19.671573638916016
1700958238555764700,1.8147646484375,6.382713317871094,2.3164749145507812,30.182697296142578
1700958238572747500,1.83174755859375,6.161998748779297,-3.5005123615264893,35.31817626953125
1700958238589746700,1.84874658203125,3.736844778060913,-7.99677848815918,31.072885513305664
1700958238606741500,1.865741455078125,1.6167210340499878,-10.908161163330078,24.924896240234375
1700958238623735600,1.882735595703125,1.6539955139160156,-14.056768417358398,18.928359985351562
1700958238640724000,1.899723876953125,4.199958324432373,-18.351823806762695,12.757789611816406
1700958238657719000,1.916718994140625,9.968879699707031,-22.088653564453125,4.600097179412842
1700958238674712800,1.933712890625,14.84282112121582,-23.319942474365234,-3.8609251976013184
1700958238691701500,1.950701416015625,13.202183723449707,-23.653120040893555,-8.629379272460938
1700958238708697300,1.967697265625,8.238548278808594,-22.88197898864746,-10.786786079406738
1700958238725672200,1.984672119140625,3.1735942363739014,-22.26823616027832,-9.124753952026367
1700958238742672600,2.001672607421875,-0.546900749206543,-21.853803634643555,-4.8722734451293945
1700958238759671600,2.018671630859375,-0.24822688102722168,-20.386417388916016,-6.0835089683532715
1700958238776666400,2.035666259765625,2.864694356918335,-18.494182586669922,-10.638105392456055
1700958238793660400,2.052660400390625,5.975131034851074,-16.448888778686523,-13.048763275146484
1700958238810649000,2.069649169921875,5.501054286956787,-15.39565372467041,-11.002601623535156
1700958238827647000,2.08664697265625,1.7904468774795532,-14.686186790466309,-3.2895302772521973
1700958238844648200,2.103648193359375,-4.686244964599609,-13.913827896118164,5.489282131195068
1700958238861619000,2.120618896484375,-6.667587757110596,-11.680824279785156,7.697579383850098
1700958238878624300,2.137624267578125,-1.2686183452606201,-6.792118072509766,4.255345344543457
1700958238895614200,2.1546142578125,1.0791904926300049,3.272953987121582,7.391373634338379
1700958238912611600,2.171611572265625,-4.469232559204102,7.781476974487305,29.135906219482422
1700958238929594000,2.188593994140625,-6.929651737213135,9.502330780029297,47.05891799926758
1700958238946594800,2.2055947265625,-0.1491405963897705,13.250434875488281,38.06889343261719
1700958238963585500,2.22258544921875,7.8482818603515625,13.307632446289062,19.349590301513672
1700958238980573700,2.23957373046875,10.435697555541992,10.904056549072266,6.64553165435791
1700958238997570300,2.2565703125,6.5093207359313965,7.92277717590332,0.41496944427490234
1700958239014561500,2.2735615234375,0.012983441352844238,5.5256123542785645,-3.660214900970459
1700958239031551500,2.290551513671875,-3.998300075531006,3.8424274921417236,-8.215547561645508
1700958239048547000,2.307547119140625,-3.9936094284057617,3.0255727767944336,-11.70531177520752
1700958239065548500,2.324548583984375,-0.6278969049453735,2.9323925971984863,-12.574954986572266
1700958239082530600,2.341530517578125,1.6048610210418701,2.0132975578308105,-11.088766098022461
1700958239099524600,2.358524658203125,2.7444965839385986,0.8108720779418945,-8.958739280700684
1700958239116516400,2.375516357421875,2.344020366668701,-0.03226613998413086,-9.227776527404785
1700958239133510400,2.392510498046875,-0.24809634685516357,0.876622200012207,-11.885643005371094
1700958239150490600,2.40949072265625,-3.386686086654663,3.0721535682678223,-12.292154312133789
1700958239167494100,2.426494140625,-3.021450996398926,4.4434332847595215,-7.693669319152832
1700958239184487700,2.44348779296875,-0.16781127452850342,5.393685340881348,-1.0056939125061035
1700958239201473300,2.460473388671875,2.211109161376953,7.630858421325684,4.918282508850098
1700958239218475000,2.47747509765625,1.5378854274749756,10.657440185546875,5.340038299560547
1700958239235463700,2.494463623046875,3.696176767349243,15.437494277954102,7.460251808166504
1700958239252458200,2.511458251953125,8.253622055053711,17.74645233154297,16.7017822265625
1700958239269446400,2.5284462890625,9.738975524902344,14.346561431884766,25.592355728149414
1700958239286441500,2.54544140625,9.5385103225708,9.778404235839844,26.328798294067383
1700958239303435500,2.562435546875,7.00022029876709,3.292140483856201,23.448993682861328
1700958239320424000,2.579423828125,4.329111576080322,-3.5555806159973145,18.081937789916992
1700958239337418800,2.596418701171875,4.343128204345703,-10.184796333312988,11.464921951293945
1700958239354412800,2.613412841796875,5.7256669998168945,-15.783210754394531,4.168544769287109
1700958239371401500,2.6304013671875,5.792387008666992,-19.570751190185547,-2.0111918449401855
1700958239388397300,2.647397216796875,5.34211540222168,-22.499849319458008,-5.273690700531006
1700958239405389300,2.664389404296875,5.09389591217041,-24.025232315063477,-7.148846626281738
1700958239422369800,2.681369873046875,4.384202003479004,-24.659542083740234,-6.895539283752441
1700958239439379000,2.69837890625,3.7733967304229736,-24.431320190429688,-5.919605255126953
1700958239456367400,2.715367431640625,3.4483320713043213,-23.711225509643555,-5.698115348815918
1700958239473360400,2.7323603515625,2.3658149242401123,-22.336029052734375,-5.716427803039551
1700958239490345700,2.749345703125,0.441753625869751,-20.948740005493164,-5.923991680145264
1700958239507346400,2.766346435546875,-1.1316142082214355,-19.901002883911133,-5.1234846115112305
1700958239524338000,2.783337890625,-1.5563268661499023,-19.43972396850586,-0.5909223556518555
1700958239541328000,2.800327880859375,-0.9173154830932617,-19.196067810058594,6.798599720001221
1700958239558317600,2.817317626953125,-1.3739490509033203,-18.07941246032715,13.963310241699219
1700958239575314000,2.83431396484375,-1.6001319885253906,-13.655509948730469,14.315516471862793
1700958239592307200,2.85130712890625,-1.5692033767700195,-4.936326503753662,12.903655052185059
1700958239609299200,2.86829931640625,-1.8944871425628662,-1.7851771116256714,27.240068435668945
1700958239626292200,2.885292236328125,2.5073256492614746,-0.4398782253265381,43.056129455566406
1700958239643287600,2.90228759765625,8.291142463684082,3.8595452308654785,48.254638671875
1700958239660274000,2.91927392578125,12.52773380279541,9.584744453430176,32.58397674560547
1700958239677268500,2.9362685546875,13.264968872070312,12.222817420959473,13.149250984191895
1700958239694262500,2.953262451171875,8.506339073181152,11.832418441772461,4.2953691482543945
1700958239711251500,2.97025146484375,3.32254695892334,11.47678279876709,-0.02292156219482422
1700958239728247000,2.9872470703125,1.036801815032959,11.62112045288086,-5.260914325714111
1700958239745238800,3.00423876953125,1.7153806686401367,12.430745124816895,-9.034687995910645
1700958239762229200,3.021229248046875,3.2609612941741943,13.482175827026367,-10.465510368347168
1700958239779223600,3.0382236328125,3.0018811225891113,14.583663940429688,-9.509984970092773
1700958239796217000,3.055217041015625,0.8463696241378784,13.626089096069336,-6.148960113525391
1700958239813210400,3.07221044921875,-0.928165078163147,12.165472984313965,-6.294101715087891
1700958239830196700,3.08919677734375,-1.5133936405181885,10.248866081237793,-8.629119873046875
1700958239847185000,3.106184814453125,-0.8562905788421631,9.216779708862305,-9.719037055969238
1700958239864188200,3.123188232421875,-0.5774455666542053,7.746657848358154,-5.958746910095215
1700958239881179000,3.140178955078125,-0.8146162033081055,6.46435546875,0.7295236587524414
1700958239898173000,3.1571728515625,-2.174074172973633,6.283149719238281,7.800797462463379
1700958239915164700,3.17416455078125,-2.423595428466797,7.536403179168701,12.552926063537598
1700958239932157200,3.1911572265625,1.3111997842788696,10.721933364868164,13.651765823364258
1700958239949149400,3.2081494140625,8.552011489868164,12.958535194396973,18.169597625732422
1700958239966142200,3.22514208984375,12.052313804626465,9.521726608276367,26.594398498535156
1700958239983132200,3.242132080078125,11.814382553100586,5.441690921783447,27.67822265625
1700958240000125400,3.25912548828125,7.019070625305176,1.0599055290222168,24.99140739440918
1700958240017119700,3.27611962890625,3.2800240516662598,-4.389288902282715,22.16492462158203
1700958240034112000,3.293112060546875,3.9109914302825928,-11.736272811889648,18.229293823242188
1700958240051104800,3.310104736328125,8.620664596557617,-18.663867950439453,10.972832679748535
1700958240068097000,3.327096923828125,13.956674575805664,-22.26144027709961,1.9958875179290771
1700958240085080300,3.344080322265625,13.411320686340332,-23.975786209106445,-3.582399606704712
1700958240102081800,3.361081787109375,7.87486457824707,-24.96986961364746,-5.062656402587891
1700958240119074600,3.378074462890625,2.714578151702881,-25.033138275146484,-4.7119646072387695
1700958240136066000,3.395066162109375,-0.6946477890014648,-24.48477554321289,-2.3408203125
1700958240153062400,3.4120625,-2.5756335258483887,-23.44580841064453,-0.38863635063171387
1700958240170049500,3.429049560546875,-2.6254372596740723,-22.297422409057617,-1.559272289276123
1700958240187033900,3.446033935546875,-1.6146669387817383,-20.890932083129883,-5.841718673706055
1700958240204035300,3.463035400390625,-0.22963714599609375,-19.30254364013672,-8.345810890197754
1700958240221031200,3.48003125,-1.4756801128387451,-17.909282684326172,-4.647256374359131
1700958240238009000,3.497009033203125,-3.8756890296936035,-16.044286727905273,5.9229960441589355
1700958240255017200,3.514017333984375,-2.089021682739258,-11.996970176696777,13.030757904052734
1700958240272007200,3.531007080078125,1.4458410739898682,-5.929860591888428,14.951705932617188
1700958240288999700,3.547999755859375,0.15748906135559082,3.3738789558410645,15.429519653320312
1700958240305979600,3.564979736328125,-2.148252487182617,7.483126163482666,21.789539337158203
1700958240322978800,3.581978759765625,0.2806844711303711,6.695333957672119,30.59012222290039
1700958240339979500,3.5989794921875,7.132621765136719,7.524537563323975,34.23418426513672
1700958240356969500,3.615969482421875,13.669485092163086,9.864429473876953,31.70469856262207
1700958240373962000,3.6329619140625,16.905548095703125,11.428485870361328,18.694910049438477
1700958240390954800,3.649954833984375,11.958168983459473,10.141148567199707,5.321904182434082
1700958240407947000,3.666947021484375,1.1119651794433594,8.240243911743164,-4.364211559295654
1700958240424926700,3.6839267578125,-6.987017631530762,8.132644653320312,-11.95741081237793
1700958240441926000,3.70092578125,-7.936676979064941,8.091989517211914,-13.532577514648438
1700958240458924300,3.71792431640625,-3.147196054458618,7.71049690246582,-10.103306770324707
1700958240475903500,3.734903564453125,2.8920836448669434,8.158125877380371,-6.527463912963867
1700958240492909300,3.751909423828125,6.93210506439209,9.731746673583984,-6.792475700378418
1700958240509901300,3.7689013671875,6.189558029174805,10.481609344482422,-11.138590812683105
1700958240526895400,3.785895263671875,3.1877894401550293,11.073158264160156,-14.657232284545898
1700958240543876600,3.802876708984375,0.7570617198944092,11.896329879760742,-12.100147247314453
1700958240560879900,3.8198798828125,0.8402489423751831,11.698960304260254,-3.6669063568115234
1700958240577871600,3.83687158203125,1.8146511316299438,11.229028701782227,6.521900653839111
1700958240594864400,3.853864501953125,2.6512529850006104,11.054410934448242,12.640188217163086
1700958240611857000,3.87085693359375,4.518217086791992,10.724860191345215,13.70125961303711
1700958240628838000,3.887837890625,8.666681289672852,12.199689865112305,14.655197143554688
1700958240645831000,3.904830810546875,9.19591999053955,12.630209922790527,20.171733856201172
1700958240662828000,3.921828125,8.032352447509766,10.208091735839844,26.341325759887695
1700958240679817500,3.9388173828125,2.538224458694458,4.996079444885254,27.772319793701172
1700958240696809500,3.9558095703125,-3.80808424949646,-0.7123289108276367,22.36994171142578
1700958240713805300,3.972805419921875,-3.5292162895202637,-6.907978057861328,15.515054702758789
1700958240730795300,3.989795166015625,3.6668829917907715,-14.150470733642578,8.750438690185547
1700958240747787800,4.006787841796875,11.145475387573242,-18.671470642089844,2.3633627891540527
1700958240764772400,4.0237724609375,13.200054168701172,-20.297082901000977,-1.5245862007141113
1700958240781773800,4.04077392578125,9.519499778747559,-21.19196891784668,-0.4427567720413208
1700958240798769200,4.05776904296875,5.0854058265686035,-20.705303192138672,2.6780924797058105
1700958240815758800,4.0747587890625,2.4224495887756348,-19.023544311523438,4.175732135772705
1700958240832757200,4.09175732421875,1.8424322605133057,-17.623464584350586,2.52518892288208
1700958240849741600,4.108741455078125,2.9155097007751465,-17.290725708007812,-0.23023629188537598
1700958240866734800,4.12573486328125,3.543111801147461,-17.131107330322266,-1.399730920791626
1700958240883726600,4.1427265625,2.400524377822876,-16.724857330322266,-1.027318000793457
1700958240900722400,4.159722412109375,2.117767810821533,-16.058090209960938,-1.4506199359893799
1700958240917723100,4.17672314453125,1.2154958248138428,-15.924297332763672,0.9249262809753418
1700958240934714600,4.193714599609375,-1.4844844341278076,-16.006471633911133,5.120530605316162
1700958240951704300,4.210704345703125,-5.064826965332031,-14.684331893920898,9.20060920715332
1700958240968702500,4.227702392578125,-7.499790668487549,-8.397880554199219,6.319956302642822
1700958240985681700,4.244681640625,-7.2934370040893555,0.14506101608276367,9.150188446044922
1700958241002684400,4.261684326171875,-4.1801557540893555,5.849483489990234,24.4105224609375
1700958241019677000,4.278677001953125,4.755721092224121,7.724476337432861,35.21677780151367
1700958241036665000,4.2956650390625,10.572823524475098,9.179139137268066,31.914531707763672
1700958241053662200,4.312662109375,8.833876609802246,10.210805892944336,26.539560317993164
1700958241070652200,4.329652099609375,7.512710094451904,10.915359497070312,13.903889656066895
1700958241087639000,4.34663916015625,5.646341323852539,9.873382568359375,0.7940826416015625
1700958241104639700,4.3636396484375,3.227451801300049,8.0418062210083,-7.197295188903809
1700958241121631200,4.38063134765625,3.522036075592041,6.901067733764648,-11.64882755279541
1700958241138620700,4.39762060546875,4.811058044433594,6.579998016357422,-9.677976608276367
1700958241155621600,4.41462158203125,5.545509338378906,7.29158878326416,-5.359024524688721
1700958241172609500,4.431609619140625,8.103843688964844,9.517239570617676,-9.177534103393555
1700958241189602300,4.448602294921875,7.034183502197266,11.465316772460938,-13.511979103088379
1700958241206594600,4.465594482421875,2.733668327331543,12.379802703857422,-14.115667343139648
1700958241223589400,4.48258935546875,-0.009465694427490234,12.646856307983398,-10.076148986816406
1700958241240579800,4.499579833984375,-0.33424103260040283,11.963098526000977,-3.106484889984131
1700958241257572000,4.516572021484375,1.9071236848831177,11.289929389953613,-0.0878143310546875
1700958241274564900,4.53356494140625,4.617718696594238,10.636592864990234,1.4582252502441406
1700958241291557400,4.550557373046875,4.5458879470825195,9.8384428024292,6.175095558166504
1700958241308549600,4.567549560546875,3.8115556240081787,10.857475280761719,14.52623176574707
1700958241325542100,4.584542236328125,6.504580974578857,13.160221099853516,21.269542694091797
1700958241342532600,4.60153271484375,9.826303482055664,11.40326976776123,27.585329055786133
1700958241359518000,4.61851806640625,8.773603439331055,7.990874767303467,29.99990463256836
1700958241376519400,4.63551953125,-0.12877154350280762,2.108126640319824,29.377483367919922
1700958241393512000,4.652511962890625,-7.070613861083984,-3.287761688232422,22.62270736694336
1700958241410500900,4.6695009765625,-4.556333541870117,-8.230931282043457,13.033997535705566
1700958241427498800,4.686498779296875,2.170785427093506,-14.39706039428711,5.158158302307129
1700958241444487200,4.703487060546875,9.501520156860352,-19.12982940673828,-1.1470386981964111
1700958241461483000,4.72048291015625,13.379501342773438,-21.32522201538086,-4.7802958488464355
1700958241478474500,4.737474609375,11.235679626464844,-23.663698196411133,-4.613630294799805
1700958241495467300,4.75446728515625,5.841494083404541,-24.890605926513672,-0.9563658237457275
1700958241512459800,4.771459716796875,0.3420712947845459,-24.78612518310547,1.5202374458312988
1700958241529452300,4.788452392578125,-1.5955452919006348,-23.481565475463867,-1.5814785957336426
1700958241546437000,4.80543701171875,0.03186798095703125,-21.73453140258789,-6.357743740081787
1700958241563437300,4.822437255859375,2.5410165786743164,-20.175857543945312,-8.792455673217773
1700958241580429600,4.8394296875,3.344475269317627,-19.317787170410156,-4.47217321395874
1700958241597422000,4.856422119140625,1.7288284301757812,-18.627519607543945,3.4830713272094727
1700958241614414600,4.87341455078125,-0.9369235038757324,-17.922842025756836,12.087907791137695
1700958241631407000,4.890406982421875,-0.9011635780334473,-15.651634216308594,13.716711044311523
1700958241648400000,4.90739990234375,0.44605040550231934,-7.796765327453613,6.193064212799072
1700958241665381600,4.924381591796875,-2.2813141345977783,1.9360051155090332,6.988913536071777
1700958241682384600,4.941384521484375,-7.428371429443359,4.853712558746338,31.16292381286621
1700958241699377400,4.95837744140625,-2.3978264331817627,7.769134521484375,47.310081481933594
1700958241716369700,4.97536962890625,8.454166412353516,12.830785751342773,34.698062896728516
1700958241733362400,4.992362548828125,14.464670181274414,15.048236846923828,15.199915885925293
1700958241750355000,5.00935498046875,11.048384666442871,13.326797485351562,4.685699462890625
1700958241767347500,5.026347412109375,3.6367623805999756,11.43165397644043,-0.37424468994140625
1700958241784339700,5.043339599609375,-1.1161799430847168,11.167221069335938,-6.194184303283691
1700958241801322000,5.060322021484375,-1.3840110301971436,10.925650596618652,-9.533203125
1700958241818324700,5.07732470703125,0.12496829032897949,10.059967041015625,-8.057929992675781
1700958241835317200,5.094317138671875,1.8968017101287842,9.996803283691406,-8.354272842407227
1700958241852310000,5.11131005859375,2.997448682785034,9.955150604248047,-10.564483642578125
1700958241869302300,5.12830224609375,2.4768877029418945,9.526806831359863,-12.549463272094727
1700958241886284500,5.145284423828125,1.318117380142212,8.810432434082031,-13.735121726989746
1700958241903283500,5.162283447265625,1.2495977878570557,8.1108980178833,-12.953790664672852
1700958241920283600,5.17928369140625,2.6589457988739014,7.6641740798950195,-7.117496490478516
1700958241937272300,5.196272216796875,5.3665900230407715,7.941953659057617,-1.2817587852478027
1700958241954264800,5.213264892578125,7.056696891784668,9.13811206817627,3.7642321586608887
1700958241971257300,5.23025732421875,5.392735481262207,10.725418090820312,10.520004272460938
1700958241988249900,5.247249755859375,5.128409385681152,13.257608413696289,14.954619407653809
1700958242005242400,5.264242431640625,6.569184303283691,14.134330749511719,20.08318328857422
1700958242022232000,5.281232177734375,8.509685516357422,11.240713119506836,24.824132919311523
1700958242039225300,5.298225341796875,6.549443244934082,8.408381462097168,25.00741195678711
1700958242056210000,5.3152099609375,0.653139591217041,2.4988174438476562,25.295841217041016
1700958242073212400,5.33221240234375,-2.4038374423980713,-4.202597141265869,21.734994888305664
1700958242090205000,5.349204833984375,0.44177675247192383,-10.144360542297363,13.554712295532227
1700958242107187000,5.36618701171875,4.816039085388184,-15.746020317077637,5.947909355163574
1700958242124181800,5.383181640625,7.869257926940918,-19.405839920043945,0.41201210021972656
1700958242141181200,5.40018115234375,7.902484893798828,-21.512195587158203,-2.2406630516052246
1700958242158176000,5.417176025390625,4.675752639770508,-22.770397186279297,-0.5484306812286377
1700958242175167200,5.434167236328125,1.7563855648040771,-22.797685623168945,2.4783034324645996
1700958242192146700,5.451146728515625,1.3546433448791504,-21.617767333984375,2.11257266998291
1700958242209152500,5.468152587890625,2.80743670463562,-20.852855682373047,-1.5545369386672974
1700958242226145000,5.48514501953125,3.636049747467041,-20.298656463623047,-5.209959983825684
1700958242243137500,5.502137451171875,2.5033676624298096,-18.759525299072266,-5.794161796569824
1700958242260130000,5.519130126953125,-1.5163052082061768,-17.031721115112305,-0.1474459171295166
1700958242277121500,5.53612158203125,-3.182307004928589,-15.342218399047852,5.7958269119262695
1700958242294116000,5.5531162109375,-1.4883627891540527,-14.063823699951172,7.2193732261657715
1700958242311107300,5.570107421875,-0.4578862190246582,-13.319791793823242,7.646613121032715
1700958242328100000,5.58710009765625,-3.7226641178131104,-8.773096084594727,4.925626754760742
1700958242345092400,5.60409228515625,-7.763243198394775,-3.1314761638641357,11.105413436889648
1700958242362085000,5.621085205078125,-6.896984577178955,0.9940261840820312,27.92045021057129
1700958242379077400,5.638077392578125,0.5508377552032471,4.170036792755127,39.62297439575195
1700958242396070100,5.655070068359375,7.697623252868652,7.748052597045898,32.9931755065918
1700958242413062700,5.672062744140625,11.550336837768555,10.092565536499023,18.79305648803711
1700958242430052600,5.689052490234375,9.481073379516602,10.5211181640625,8.064876556396484
1700958242447039700,5.706039794921875,5.078406810760498,8.732559204101562,3.150599479675293
1700958242464029400,5.723029541015625,3.451051712036133,7.951553821563721,-0.2620267868041992
1700958242481030100,5.740030029296875,3.800105094909668,8.998897552490234,-0.9600362777709961
1700958242498027500,5.757027587890625,7.486238956451416,10.903726577758789,-3.9714279174804688
1700958242515017700,5.774017822265625,9.687209129333496,12.610282897949219,-7.228418350219727
1700958242532007700,5.791007568359375,8.11247730255127,13.849642753601074,-9.769888877868652
1700958242549004800,5.8080048828125,5.645237922668457,14.290987014770508,-12.233379364013672
1700958242565995300,5.824995361328125,3.770556926727295,14.493637084960938,-13.112473487854004
1700958242582985200,5.841985107421875,2.501241445541382,14.215055465698242,-9.412394523620605
1700958242599982600,5.858982666015625,3.23406982421875,13.502055168151855,-4.394964694976807
1700958242616972800,5.875972900390625,5.647005081176758,12.955974578857422,0.01582050323486328
1700958242633965000,5.892965087890625,7.310901165008545,12.27151107788086,5.14997673034668
1700958242650957800,5.909957763671875,5.859860420227051,11.464400291442871,11.876558303833008
1700958242667949000,5.926948974609375,4.943958759307861,11.323623657226562,16.008134841918945
1700958242684944000,5.94394384765625,7.253810882568359,10.833318710327148,18.95193862915039
1700958242701925000,5.960925048828125,9.059795379638672,7.64113712310791,22.503143310546875
1700958242718928000,5.977927978515625,6.392367362976074,4.619949817657471,23.64922332763672
1700958242735920000,5.994920166015625,-0.4488658905029297,0.04145336151123047,25.266897201538086
1700958242752912600,6.01191259765625,-5.14280366897583,-5.163330078125,23.767139434814453
1700958242769905200,6.0289052734375,-1.92958664894104,-11.386850357055664,17.04143524169922
1700958242786897700,6.045897705078125,4.756580352783203,-17.375852584838867,8.669943809509277
1700958242803890700,6.062890625,10.469691276550293,-20.579254150390625,1.5389320850372314
1700958242820882700,6.079882568359375,10.618232727050781,-22.429248809814453,-2.4772815704345703
1700958242837875200,6.096875244140625,6.948733329772949,-22.830524444580078,-3.6469483375549316
1700958242854870500,6.11387060546875,2.770958423614502,-22.48797607421875,-2.7231810092926025
1700958242871857700,6.130857666015625,0.07677102088928223,-22.181474685668945,-0.9171960353851318
1700958242888852700,6.147852783203125,-0.1830611228942871,-21.588504791259766,-2.160141944885254
1700958242905835000,6.1648349609375,1.7701165676116943,-20.659996032714844,-5.280231475830078
1700958242922835500,6.18183544921875,3.319931745529175,-19.479183197021484,-6.511883735656738
1700958242939833000,6.1988330078125,3.0005767345428467,-18.567285537719727,-3.858161687850952
1700958242956812300,6.215812255859375,1.1652922630310059,-17.947246551513672,3.8833508491516113
1700958242973815600,6.232815673828125,-0.6886491775512695,-16.554277420043945,11.502714157104492
1700958242990808000,6.24980810546875,-1.9095616340637207,-13.832351684570312,10.65378475189209
1700958243007800300,6.26680029296875,-3.632869005203247,-7.488263130187988,4.463418006896973
1700958243024790500,6.28379052734375,-5.697678089141846,-2.9956908226013184,12.07746696472168
1700958243041788200,6.3007880859375,0.4390451908111572,1.0048766136169434,29.658843994140625
1700958243058777900,6.31777783203125,11.605165481567383,5.165794849395752,38.922237396240234
1700958243075760000,6.334760009765625,15.07224178314209,10.443674087524414,33.52724838256836
1700958243092763100,6.35176318359375,11.665292739868164,13.515216827392578,19.30921745300293
1700958243109755600,6.368755615234375,6.184919357299805,13.53466796875,6.455926895141602
1700958243126739500,6.385739501953125,1.3176510334014893,11.989009857177734,-0.2932014465332031
1700958243143740700,6.40274072265625,0.10266804695129395,11.04888916015625,-5.088475227355957
1700958243160730400,6.41973046875,1.7330951690673828,10.510438919067383,-7.391816139221191
1700958243177715700,6.4367158203125,3.922844886779785,10.171186447143555,-6.481128692626953
1700958243194710000,6.4537099609375,5.8524675369262695,10.715140342712402,-7.150581359863281
1700958243211710700,6.470710693359375,4.993494987487793,11.256421089172363,-9.8113374710083
1700958243228699600,6.48769970703125,2.106257915496826,11.14208984375,-11.878084182739258
1700958243245698600,6.504698486328125,0.588680624961853,10.70765495300293,-12.882226943969727
1700958243262677500,6.521677490234375,1.9481279850006104,10.642766952514648,-11.06814956665039
1700958243279678000,6.538677978515625,4.554387092590332,10.668115615844727,-6.137045860290527
1700958243296675600,6.555675537109375,6.895370960235596,10.893674850463867,0.6982612609863281
1700958243313665800,6.572665771484375,6.589836597442627,10.649795532226562,6.977543354034424
1700958243330655700,6.58965576171875,5.315547943115234,9.71653938293457,9.033163070678711
1700958243347652900,6.60665283203125,7.075921535491943,10.877166748046875,10.325477600097656
1700958243364651000,6.623651123046875,9.270906448364258,9.799518585205078,16.06974983215332
1700958243381635600,6.640635498046875,11.445988655090332,7.921106338500977,20.84686279296875
1700958243398628000,6.657628173828125,8.993180274963379,4.802033424377441,23.919658660888672
1700958243415620400,6.674620361328125,3.7647595405578613,-1.1821398735046387,26.03262710571289
1700958243432613000,6.691613037109375,0.6606100797653198,-8.663078308105469,22.55339241027832
1700958243449606000,6.70860595703125,1.5300294160842896,-14.64509391784668,13.106614112854004
1700958243466598100,6.72559814453125,3.1426119804382324,-18.763031005859375,4.448610782623291
1700958243483590700,6.742590576171875,3.822171449661255,-21.08880615234375,-1.093353033065796
1700958243500583200,6.759583251953125,3.2422266006469727,-22.425342559814453,-3.055992841720581
1700958243517575700,6.77657568359375,1.8154393434524536,-22.552764892578125,-2.650367021560669
1700958243534568200,6.793568115234375,1.1904480457305908,-22.17577362060547,-1.2423574924468994
1700958243551560400,6.810560546875,2.125241756439209,-21.135509490966797,-1.7665537595748901
1700958243568553200,6.82755322265625,3.303819417953491,-19.96371841430664,-3.3403120040893555
1700958243585545700,6.844545654296875,3.369514226913452,-18.59009552001953,-4.518926620483398
1700958243602527700,6.86152783203125,2.3960959911346436,-17.187992095947266,-3.2044677734375
1700958243619531300,6.87853125,0.23384332656860352,-15.857460021972656,2.5729613304138184
1700958243636523500,6.8955234375,-0.37467098236083984,-13.763860702514648,8.66971492767334
1700958243653516000,6.91251611328125,2.1584067344665527,-9.790793418884277,8.663402557373047
1700958243670506800,6.9295068359375,0.8944873809814453,-3.4198977947235107,6.887805461883545
1700958243687494100,6.946494140625,-6.927713871002197,-0.5533413887023926,13.248483657836914
1700958243704493600,6.96349365234375,-9.182600021362305,-0.5103874206542969,24.756641387939453
1700958243721483300,6.980483154296875,-0.4748506546020508,0.5665388107299805,34.24306869506836
1700958243738478300,6.997478271484375,11.316975593566895,5.813092231750488,27.347492218017578
1700958243755473400,7.014473388671875,15.096710205078125,9.946527481079102,16.594890594482422
1700958243772453000,7.031453125,10.126713752746582,11.008471488952637,9.991793632507324
1700958243789455600,7.04845556640625,3.0856692790985107,10.871078491210938,5.669219017028809
1700958243806435800,7.065435791015625,-3.35899019241333,10.126405715942383,6.398237228393555
1700958243823432700,7.0824326171875,-5.186280250549316,10.186513900756836,4.238374710083008
1700958243840433400,7.099433349609375,-1.8976430892944336,10.624039649963379,-3.762558937072754
1700958243857426000,7.116426025390625,1.8427605628967285,10.409148216247559,-9.405261039733887
1700958243874418200,7.133418212890625,3.591860771179199,9.887426376342773,-11.791046142578125
1700958243891411000,7.150410888671875,2.639664888381958,9.53000259399414,-13.054100036621094
1700958243908403500,7.167403564453125,0.3893289566040039,10.271903991699219,-13.144187927246094
1700958243925383200,7.184383056640625,-0.748532772064209,11.289338111877441,-10.69221019744873
1700958243942380800,7.201380859375,-0.13729596138000488,11.816073417663574,-4.879914283752441
1700958243959372000,7.2183720703125,2.064138650894165,11.237628936767578,0.50775146484375
1700958243976372200,7.235372314453125,4.8170342445373535,10.019405364990234,4.905026435852051
1700958243993369600,7.25236962890625,5.631186008453369,8.559412002563477,6.316507339477539
1700958244010349000,7.26934912109375,6.261043071746826,8.91901969909668,7.620773792266846
1700958244027337000,7.2863369140625,7.6690993309021,12.006996154785156,14.867713928222656
1700958244044347000,7.303346923828125,10.075414657592773,11.90613842010498,22.69296646118164
1700958244061336000,7.320336181640625,10.893006324768066,10.924280166625977,25.93009376525879
1700958244078328800,7.337328857421875,6.764439582824707,5.899344444274902,26.805103302001953
1700958244095321000,7.354321044921875,0.7770214080810547,-2.245971202850342,24.216447830200195
1700958244112313600,7.371313720703125,-0.612288236618042,-9.686079025268555,17.137126922607422
1700958244129294800,7.388294921875,2.4218363761901855,-15.96688461303711,8.391593933105469
1700958244146292000,7.4052919921875,5.812091827392578,-20.568483352661133,1.2425310611724854
1700958244163281200,7.42228125,8.079395294189453,-22.881019592285156,-3.0145463943481445
1700958244180273700,7.439273681640625,7.544305801391602,-24.15401840209961,-4.5809736251831055
1700958244197266400,7.456266357421875,5.14209508895874,-24.953458786010742,-3.622690200805664
1700958244214260500,7.473260498046875,2.618488311767578,-25.267152786254883,-1.4313997030258179
1700958244231253200,7.490253173828125,1.4897522926330566,-24.610280990600586,-0.848177433013916
1700958244248247800,7.507247802734375,1.128148078918457,-23.254161834716797,-2.1986937522888184
1700958244265237200,7.5242373046875,2.0212483406066895,-21.30501365661621,-4.238395690917969
1700958244282227700,7.541227783203125,2.436307668685913,-20.34979820251465,-2.1306936740875244
1700958244299223300,7.558223388671875,1.9088685512542725,-19.79835319519043,4.259012699127197
1700958244316217000,7.575217041015625,-0.1314716339111328,-18.62147331237793,9.949996948242188
1700958244333211000,7.5922109375,-2.888547897338867,-16.695642471313477,10.729988098144531
1700958244350200000,7.609199951171875,-6.208477973937988,-12.000177383422852,6.737758159637451
1700958244367189500,7.626189453125,-6.100615501403809,-7.507416725158691,13.015057563781738
1700958244384185300,7.643185302734375,-4.261295318603516,-6.582643032073975,33.63970947265625
1700958244401166600,7.66016650390625,3.5681512355804443,-3.0103392601013184,44.74908447265625
1700958244418172400,7.67717236328125,13.908928871154785,3.5919301509857178,38.85540008544922
1700958244435164200,7.6941640625,20.278600692749023,10.727537155151367,23.08404541015625
1700958244452153000,7.711153076171875,16.50623321533203,13.271461486816406,14.224485397338867
1700958244469156400,7.72815625,7.6841888427734375,13.641558647155762,9.694387435913086
1700958244486148900,7.74514892578125,0.5057423114776611,14.45339584350586,5.017801284790039
1700958244503141400,7.762141357421875,-2.6996192932128906,14.546850204467773,3.908639907836914
1700958244520133600,7.779133544921875,-0.03983736038208008,14.579622268676758,-0.2318105697631836
1700958244537126400,7.79612646484375,4.749744415283203,14.988653182983398,-6.382591724395752
1700958244554119000,7.813118896484375,7.739785194396973,15.895988464355469,-10.041583061218262
1700958244571111400,7.830111328125,7.384469985961914,15.459789276123047,-10.155847549438477
1700958244588104000,7.84710400390625,5.428424835205078,15.252071380615234,-9.120099067687988
1700958244605085700,7.864085693359375,3.229872703552246,14.671967506408691,-5.063392639160156
1700958244622089000,7.8810888671875,3.111081123352051,13.352703094482422,0.5668420791625977
1700958244639081200,7.898081298828125,4.482362270355225,11.173379898071289,5.384751319885254
1700958244656073700,7.91507373046875,5.481698036193848,8.627606391906738,8.779813766479492
1700958244673066200,7.932066162109375,4.661459922790527,6.1762309074401855,11.952333450317383
1700958244690059000,7.94905908203125,5.757752418518066,5.779644966125488,14.819958686828613
1700958244707040800,7.966040771484375,4.4646687507629395,5.957828521728516,20.05571937561035
1700958244724042800,7.983042724609375,4.047176361083984,4.757145404815674,23.8872127532959
1700958244741035300,8.00003515625,2.405791759490967,3.2037181854248047,25.183244705200195
1700958244758031600,8.017031494140625,-1.7025837898254395,-1.307023525238037,24.81700897216797
1700958244775021300,8.034021240234376,-3.6706221103668213,-6.971641540527344,19.474836349487305
1700958244792013800,8.051013916015625,0.180833101272583,-13.549257278442383,11.319072723388672
1700958244808992800,8.06799267578125,5.774255752563477,-19.066146850585938,3.2976224422454834
1700958244825996300,8.084996337890624,9.360418319702148,-22.178638458251953,-2.331617832183838
1700958244842991600,8.10199169921875,8.641693115234375,-24.184585571289062,-4.614638328552246
1700958244859986700,8.118986572265625,6.328149795532227,-25.303504943847656,-4.882479190826416
1700958244876977000,8.135976806640626,4.573378562927246,-25.397140502929688,-3.3243532180786133
1700958244893969200,8.15296923828125,4.0599365234375,-24.545909881591797,-2.015227794647217
1700958244910961400,8.16996142578125,3.891150712966919,-23.408798217773438,-0.5595517158508301
1700958244927954200,8.1869541015625,3.9076128005981445,-21.635238647460938,-0.28536391258239746
1700958244944946700,8.20394677734375,3.2586660385131836,-19.880342483520508,0.4306809902191162
1700958244961939000,8.22093896484375,2.043363332748413,-18.549510955810547,4.275610446929932
1700958244978931700,8.237931640625,-0.7772731781005859,-17.138927459716797,11.759597778320312
1700958244995924200,8.25492431640625,-1.8388032913208008,-14.565888404846191,16.486902236938477
1700958245012914400,8.27191455078125,-1.0995216369628906,-9.56552505493164,12.999490737915039
1700958245029896400,8.288896484375,-3.497833728790283,0.3030853271484375,8.061956405639648
1700958245046904300,8.305904296875,-8.608095169067383,4.572011947631836,20.98549461364746
1700958245063894300,8.322894287109374,-6.368855953216553,5.650825500488281,42.87779998779297
1700958245080886800,8.33988671875,4.323752403259277,9.704436302185059,46.15804672241211
1700958245097879600,8.356879638671876,14.399629592895508,14.501910209655762,29.224441528320312
1700958245114871600,8.37387158203125,16.212539672851562,15.717018127441406,11.299164772033691
1700958245131864300,8.3908642578125,9.382341384887695,12.5316162109375,2.556182861328125
1700958245148856800,8.40785693359375,3.5447335243225098,10.503171920776367,-3.3137660026550293
1700958245165838800,8.4248388671875,1.3888728618621826,9.959211349487305,-8.097057342529297
1700958245182829600,8.44182958984375,1.1792771816253662,9.563475608825684,-9.060002326965332
1700958245199836000,8.4588359375,2.0417227745056152,9.27557373046875,-7.491962432861328
1700958245216827000,8.475826904296875,3.7757961750030518,9.456550598144531,-7.241585731506348
1700958245233816800,8.49281689453125,4.229526042938232,9.487308502197266,-8.239107131958008
1700958245250803700,8.5098037109375,3.2536604404449463,8.933656692504883,-10.393193244934082
1700958245267804400,8.526804443359374,2.304776668548584,8.65130615234375,-12.583333969116211
1700958245284796700,8.543796630859376,2.058556318283081,9.16636848449707,-11.878096580505371
1700958245301789200,8.5607890625,1.9594007730484009,9.45866584777832,-6.509385108947754
1700958245318782000,8.577781982421875,2.6179161071777344,9.624107360839844,1.1923322677612305
1700958245335774500,8.5947744140625,5.474075794219971,10.061511993408203,6.839008331298828
1700958245352766700,8.6117666015625,6.382028579711914,11.314519882202148,8.739361763000488
1700958245369759500,8.628759521484374,8.642973899841309,13.167981147766113,12.617696762084961
1700958245386752000,8.645751953125,8.317983627319336,12.132850646972656,19.80328369140625
1700958245403744300,8.662744140625,8.239355087280273,10.266242027282715,23.652753829956055
1700958245420736800,8.67973681640625,3.5089340209960938,7.737446308135986,25.855735778808594
1700958245437729300,8.696729248046875,-1.9470462799072266,0.9721250534057617,28.037416458129883
1700958245454719500,8.713719482421874,-1.6397120952606201,-6.876134872436523,22.822397232055664
1700958245471717000,8.730717041015625,4.004934787750244,-13.227666854858398,12.64694595336914
1700958245488700400,8.747700439453125,8.370805740356445,-17.716211318969727,4.65026330947876
1700958245505696300,8.7646962890625,9.260184288024902,-20.9521541595459,0.5291996002197266
1700958245522694400,8.7816943359375,6.653184413909912,-22.993080139160156,-0.6935032606124878
1700958245539684400,8.798684326171875,2.3553199768066406,-24.079116821289062,-1.1895177364349365
1700958245556676900,8.8156767578125,0.17160415649414062,-24.8702392578125,-1.806506872177124
1700958245573659100,8.8326591796875,2.2025949954986572,-25.447954177856445,-2.4289112091064453
1700958245590662100,8.849662109375,5.060034275054932,-24.614559173583984,-3.94942569732666
1700958245607647200,8.866647216796874,6.303196430206299,-22.862916946411133,-4.789459705352783
1700958245624650000,8.88364990234375,5.464947700500488,-20.743633270263672,-3.9106266498565674
1700958245641637000,8.90063720703125,3.667092800140381,-19.45549774169922,0.3095722198486328
1700958245658632000,8.9176318359375,0.7631561756134033,-18.25987434387207,8.52974796295166
1700958245675614000,8.934614013671874,-3.719999313354492,-16.150211334228516,16.05942153930664
1700958245692617000,8.951616943359374,-5.449495792388916,-10.239166259765625,12.121136665344238
1700958245709609700,8.968609619140626,-5.143183708190918,1.1707043647766113,6.513740539550781
1700958245726594300,8.98559423828125,-5.250171661376953,4.868188858032227,21.12887954711914
1700958245743592200,9.00259228515625,0.8665108680725098,4.8944091796875,39.47630310058594
1700958245760589800,9.01958984375,8.22169303894043,8.290261268615723,47.38037109375
1700958245777570000,9.036570068359374,12.174962997436523,14.022065162658691,33.648963928222656
1700958245794572300,9.053572265625,10.606809616088867,15.329010009765625,11.56850528717041
1700958245811564500,9.070564453125,5.39583683013916,12.596839904785156,-0.6559696197509766
1700958245828557300,9.087557373046875,0.6516492366790771,9.817901611328125,-5.5624895095825195
1700958245845549800,9.1045498046875,-0.6742300987243652,8.933899879455566,-8.818767547607422
1700958245862542300,9.121542236328125,0.8533937931060791,8.737060546875,-9.948277473449707
1700958245879534600,9.13853466796875,3.20902156829834,9.068059921264648,-8.317949295043945
1700958245896527000,9.155527099609374,5.283300399780273,9.91151237487793,-7.534468650817871
1700958245913522700,9.172522705078125,5.376202583312988,10.469500541687012,-9.050384521484375
1700958245930509600,9.189509521484375,3.755101203918457,10.705761909484863,-11.174020767211914
1700958245947505000,9.2065048828125,2.632453680038452,11.47977352142334,-11.854055404663086
1700958245964497400,9.223497314453125,2.464937210083008,12.355255126953125,-8.831497192382812
1700958245981487400,9.2404873046875,2.616386890411377,12.300530433654785,-0.8832831382751465
1700958245998484700,9.257484619140625,3.7170445919036865,11.224308013916016,7.544317245483398
1700958246015475000,9.274474853515626,3.988029956817627,10.829148292541504,10.802738189697266
1700958246032467500,9.291467529296876,4.756689548492432,11.55256462097168,11.252826690673828
1700958246049459700,9.308459716796875,7.1406474113464355,10.983716011047363,12.86874008178711
1700958246066452500,9.325452392578125,8.517507553100586,7.559634685516357,15.604114532470703
1700958246083444700,9.34244482421875,6.578810691833496,5.781667232513428,17.46497344970703
1700958246100443600,9.359443603515626,2.100747585296631,0.8748869895935059,26.30097770690918
1700958246117430000,9.376429931640626,-0.8587546348571777,-7.134772300720215,28.421585083007812
1700958246134422500,9.393422607421876,2.1451101303100586,-12.94102668762207,17.710811614990234
1700958246151424000,9.410424072265625,7.62215518951416,-16.547767639160156,5.460513114929199
1700958246168405000,9.427405029296875,11.379520416259766,-18.47568130493164,-0.9339892864227295
1700958246185402600,9.444402587890625,9.250543594360352,-20.42525863647461,-1.5458041429519653
1700958246202392300,9.461392333984374,4.819833278656006,-21.960132598876953,-1.119922399520874
1700958246219385000,9.478385009765624,0.9069335460662842,-22.803625106811523,-2.040102958679199
1700958246236377600,9.495377685546876,-0.5849714279174805,-22.688072204589844,-4.007622718811035
1700958246253369900,9.512369873046875,-0.5092959403991699,-21.818387985229492,-5.954388618469238
1700958246270362600,9.529362548828125,0.6852607727050781,-21.19086456298828,-5.678086757659912
1700958246287355100,9.546355224609375,1.6716458797454834,-20.322376251220703,-3.3604485988616943
1700958246304349400,9.563349365234375,1.025109052658081,-19.00541114807129,1.2133293151855469
1700958246321340000,9.58033984375,-1.5806877613067627,-17.513965606689453,7.3649444580078125
1700958246338332400,9.59733251953125,-3.134634256362915,-14.556796073913574,8.598918914794922
1700958246355312000,9.61431201171875,-3.9267454147338867,-7.277193546295166,2.2691783905029297
1700958246372317200,9.631317138671875,-7.561250686645508,0.14487695693969727,8.649812698364258
1700958246389312800,9.648312744140625,-6.259562015533447,3.5373101234436035,34.30876159667969
1700958246406291700,9.665291748046876,2.565753698348999,6.754619598388672,50.06740188598633
1700958246423295700,9.682295654296874,12.114192962646484,12.967937469482422,35.29029083251953
1700958246440287000,9.699286865234376,14.048937797546387,14.394660949707031,16.49892807006836
1700958246457280300,9.7162802734375,8.354080200195312,11.939659118652344,5.436441421508789
1700958246474272800,9.733272705078125,2.608218193054199,10.085100173950195,-2.0362424850463867
1700958246491265000,9.75026513671875,1.1215232610702515,9.386701583862305,-6.724775314331055
1700958246508257800,9.7672578125,2.8338074684143066,9.382288932800293,-7.762042045593262
1700958246525250000,9.78425,5.6010236740112305,9.843908309936523,-8.394672393798828
1700958246542240000,9.801239990234375,7.100609302520752,10.93794059753418,-10.483062744140625
1700958246559221500,9.818221435546874,4.828679084777832,12.054372787475586,-12.315498352050781
1700958246576223000,9.835222900390624,1.2545373439788818,12.695255279541016,-12.288222312927246
1700958246593224700,9.852224609375,-0.06645810604095459,12.915135383605957,-10.068269729614258
1700958246610212900,9.869212890625,1.3769481182098389,12.602142333984375,-5.80953311920166
1700958246627194600,9.886194580078126,3.781019687652588,12.06389045715332,-0.6635046005249023
1700958246644198000,9.903197998046876,5.573084831237793,11.253637313842773,5.114996910095215
1700958246661187000,9.92018701171875,3.642935037612915,9.889524459838867,9.001087188720703
1700958246678186200,9.937186279296874,1.0649254322052002,10.245134353637695,12.033905029296875
1700958246695175400,9.954175537109375,3.327227830886841,11.81131362915039,15.414430618286133
1700958246712167700,9.971167724609375,6.179546356201172,10.317863464355469,20.2300968170166
1700958246729160200,9.98816015625,7.50279426574707,8.132140159606934,21.473834991455078
1700958246746152200,10.005152099609376,3.9022696018218994,3.6739959716796875,21.256946563720703
1700958246763146000,10.02214599609375,0.44837260246276855,-2.692254066467285,19.51428985595703
1700958246780137700,10.0391376953125,1.8637512922286987,-9.235845565795898,15.548802375793457
1700958246797130200,10.056130126953125,6.613509654998779,-15.923934936523438,9.026217460632324
1700958246814123000,10.073123046875,10.576988220214844,-20.171035766601562,1.8216016292572021
1700958246831115300,10.090115234375,11.204782485961914,-21.606184005737305,-4.151934623718262
1700958246848107800,10.107107666015626,8.139280319213867,-22.322982788085938,-5.879657745361328
1700958246865100300,10.124100341796876,4.639069080352783,-22.94441795349121,-4.006372451782227
1700958246882092800,10.1410927734375,3.0517501831054688,-23.777563095092773,-0.6393792629241943
1700958246899085300,10.158085205078125,3.1752734184265137,-23.412036895751953,-0.13932442665100098
1700958246916078000,10.175078125,4.139743328094482,-22.293949127197266,-1.5293257236480713
1700958246933070600,10.192070556640624,5.035552024841309,-20.625783920288086,-3.4175543785095215
1700958246950052400,10.20905224609375,3.9452242851257324,-19.191919326782227,-1.5126547813415527
1700958246967044900,10.226044921875,1.075455665588379,-17.779691696166992,5.531328201293945
1700958246984047900,10.2430478515625,-1.7819619178771973,-16.344314575195312,11.756752014160156
1700958247001040600,10.26004052734375,-4.934104919433594,-13.845876693725586,12.771514892578125
1700958247018033000,10.277032958984375,-7.176350116729736,-6.909014701843262,11.871143341064453
1700958247035022800,10.29402294921875,-5.107742786407471,-0.1594686508178711,17.29802703857422
1700958247052018200,10.31101806640625,-0.41160011291503906,4.43702507019043,31.766521453857422
1700958247069011000,10.328010986328126,2.903839349746704,7.600436687469482,40.83035659790039
1700958247086003200,10.345003173828125,4.472941875457764,12.654471397399902,34.73539733886719
1700958247102993000,10.361992919921875,5.223734378814697,15.454181671142578,18.160789489746094
1700958247119990500,10.378990478515625,4.436881065368652,16.389892578125,5.21442985534668
1700958247136980700,10.395980712890625,2.304703712463379,14.849839210510254,1.2698450088500977
1700958247153973200,10.41297314453125,2.1530299186706543,13.969703674316406,-1.33589506149292
1700958247170966300,10.42996630859375,3.889747381210327,13.675877571105957,-2.874657154083252
1700958247187957800,10.446957763671875,7.06917667388916,14.077857971191406,-5.555731773376465
1700958247204950500,10.463950439453125,7.81168270111084,14.647411346435547,-9.890382766723633
1700958247221943300,10.480943359375,4.424441814422607,14.212568283081055,-13.073993682861328
1700958247238935600,10.497935546875,1.262540578842163,13.531116485595703,-14.354195594787598
1700958247255928000,10.514927978515624,2.125183343887329,13.803226470947266,-12.55573844909668
1700958247272920800,10.5319208984375,5.309444427490234,14.210497856140137,-5.372860908508301
1700958247289900500,10.548900634765625,6.139191627502441,14.10594367980957,3.812432289123535
1700958247306896400,10.565896484375,5.273794174194336,13.540166854858398,10.914669036865234
1700958247323900700,10.582900634765625,3.0153119564056396,12.127647399902344,14.748796463012695
1700958247340891000,10.599890869140625,3.963118553161621,12.39841365814209,16.187206268310547
1700958247357883400,10.61688330078125,7.507956504821777,10.944181442260742,20.358505249023438
1700958247374873300,10.633873291015625,7.464657306671143,8.728034973144531,24.268117904663086
1700958247391870700,10.65087060546875,0.8984236717224121,3.956249237060547,26.194578170776367
1700958247408860700,10.667860595703125,-6.469883918762207,-2.76145601272583,25.857908248901367
1700958247425840600,10.684840576171876,-5.17376708984375,-9.989022254943848,20.62851905822754
1700958247442832600,10.70183251953125,2.7528140544891357,-18.225440979003906,11.977496147155762
1700958247459833300,10.718833251953125,10.367752075195312,-23.479408264160156,2.520439624786377
1700958247476832800,10.735832763671874,13.248818397521973,-25.253005981445312,-4.5674028396606445
1700958247493823200,10.7528232421875,10.092461585998535,-25.938690185546875,-5.851274490356445
1700958247510816000,10.76981591796875,6.100547790527344,-26.36099624633789,-2.91898250579834
1700958247527808300,10.786808349609375,4.865431308746338,-26.10952377319336,1.3107857704162598
1700958247544801000,10.803801025390625,5.124422073364258,-24.831571578979492,2.4570157527923584
1700958247561793500,10.82079345703125,6.419068813323975,-23.06515884399414,0.23704910278320312
1700958247578786000,10.8377861328125,6.2698893547058105,-21.161052703857422,-2.2258710861206055
1700958247595778300,10.8547783203125,2.7611827850341797,-20.37167739868164,2.6416778564453125
1700958247612770800,10.871770751953125,-0.46968889236450195,-18.434221267700195,12.513433456420898
1700958247629751300,10.888751220703124,-1.6863408088684082,-14.553728103637695,17.694255828857422
1700958247646745900,10.905745849609374,-3.7779078483581543,-9.71997356414795,13.892354011535645
1700958247663741000,10.922740966796875,-10.580011367797852,-2.2156424522399902,8.827300071716309
1700958247680735700,10.93973583984375,-9.909280776977539,1.652341365814209,17.318767547607422
1700958247697726200,10.956726318359374,-0.12779569625854492,0.9337098598480225,36.4957275390625
1700958247714717400,10.973717529296875,11.11659049987793,4.393217086791992,50.999656677246094
1700958247731712500,10.99071240234375,19.382125854492188,12.8405179977417,35.38859939575195
1700958247748700700,11.00770068359375,17.109416961669922,16.126201629638672,12.937176704406738
1700958247765693000,11.02469287109375,5.943243503570557,14.266131401062012,1.1679706573486328
1700958247782685700,11.041685791015626,-1.4129881858825684,12.935222625732422,-4.42153787612915
1700958247799685600,11.058685546875,-3.2669196128845215,12.787590026855469,-8.679610252380371
1700958247816673000,11.075673095703126,0.5465331077575684,12.86425495147705,-8.047890663146973
1700958247833668600,11.092668701171876,5.610169410705566,13.850563049316406,-7.136050224304199
1700958247850660600,11.10966064453125,6.3384809494018555,15.761510848999023,-9.56812858581543
1700958247867647500,11.1266474609375,3.098646402359009,16.389785766601562,-10.856411933898926
1700958247884644600,11.14364453125,-0.6363868713378906,16.004419326782227,-10.007807731628418
1700958247901634600,11.160634521484376,-1.988962173461914,15.135233879089355,-8.38654613494873
1700958247918630700,11.177630615234374,0.48453474044799805,14.276419639587402,-5.4232048988342285
1700958247935630800,11.194630859375,3.701889991760254,12.387722969055176,0.8018331527709961
1700958247952621300,11.211621337890625,5.541681289672852,11.237838745117188,6.281316757202148
1700958247969613300,11.22861328125,5.130033493041992,10.868106842041016,10.96527099609375
1700958247986606000,11.245606201171874,3.7083981037139893,10.533418655395508,16.35934829711914
1700958248003598600,11.2625986328125,8.195867538452148,11.363073348999023,19.346256256103516
1700958248020580600,11.27958056640625,10.865219116210938,8.963141441345215,24.800838470458984
1700958248037584000,11.296583984375,8.371219635009766,6.406393527984619,27.328733444213867
1700958248054576000,11.313576171875,1.5589970350265503,1.3689956665039062,27.933048248291016
1700958248071568600,11.330568603515625,-3.880687952041626,-5.712221145629883,26.637386322021484
1700958248088561400,11.3475615234375,-0.19844675064086914,-13.030028343200684,19.0556697845459
1700958248105550800,11.36455078125,7.491792678833008,-18.68708038330078,8.597738265991211
1700958248122548700,11.381548828125,12.389510154724121,-21.82278060913086,0.35196471214294434
1700958248139538400,11.398538330078125,11.09472942352295,-23.448408126831055,-3.0484366416931152
1700958248156531500,11.415531494140625,6.697076797485352,-24.388824462890625,-3.267580986022949
1700958248173523700,11.432523681640625,3.7105889320373535,-25.05337905883789,-2.5052549839019775
1700958248190516200,11.44951611328125,2.414026975631714,-25.117733001708984,-0.8279318809509277
1700958248207508700,11.4665087890625,2.694362163543701,-24.282943725585938,-1.5340744256973267
1700958248224501500,11.48350146484375,3.323610305786133,-22.522907257080078,-3.184628486633301
1700958248241491000,11.500490966796875,2.591414451599121,-20.470409393310547,-3.878730058670044
1700958248258486500,11.517486572265625,1.9451251029968262,-18.635990142822266,-1.900618314743042
1700958248275481300,11.5344814453125,0.376645565032959,-17.80940055847168,6.622676372528076
1700958248292484900,11.55148486328125,-0.9580631256103516,-15.682811737060547,14.139969825744629
1700958248309461500,11.56846142578125,-0.5685214996337891,-11.899189949035645,12.022568702697754
1700958248326459000,11.585458984375,-1.7758874893188477,-4.572257995605469,5.977063179016113
1700958248343448800,11.60244873046875,-5.492435932159424,2.3178911209106445,12.852758407592773
1700958248360441300,11.61944140625,-5.4574785232543945,5.8199920654296875,33.90828323364258
1700958248377434000,11.63643408203125,0.6272339820861816,7.669181823730469,49.140663146972656
1700958248394426400,11.65342626953125,9.180402755737305,12.852967262268066,40.28797149658203
1700958248411419100,11.670419189453124,12.372160911560059,16.103713989257812,18.048736572265625
1700958248428411400,11.687411376953126,8.990598678588867,14.8831787109375,2.498779296875
1700958248445405700,11.70440576171875,4.157331943511963,12.19110107421875,-4.27330207824707
1700958248462384000,11.721384033203124,1.3953077793121338,11.622468948364258,-8.771015167236328
1700958248479389000,11.738388916015625,1.644141674041748,11.358280181884766,-10.403362274169922
1700958248496376800,11.755376953125,4.335382461547852,11.55240249633789,-9.735686302185059
1700958248513373000,11.772373046875,6.17672061920166,11.674081802368164,-9.128365516662598
1700958248530364000,11.789364013671875,5.125162601470947,11.385376930236816,-9.371903419494629
1700958248547361500,11.806361572265626,2.8711483478546143,10.875112533569336,-9.804580688476562
1700958248564351500,11.8233515625,2.2464869022369385,10.312583923339844,-9.263872146606445
1700958248581344000,11.840343994140625,3.2522544860839844,9.269725799560547,-5.439663887023926
1700958248598336800,11.857336669921875,4.8803486824035645,8.039670944213867,0.15749740600585938
1700958248615329000,11.8743291015625,4.480058670043945,7.191484451293945,6.372049808502197
1700958248632321500,11.891321533203126,1.4361003637313843,6.614176273345947,8.839628219604492
1700958248649314000,11.90831396484375,-0.30350828170776367,8.504156112670898,9.237744331359863
1700958248666306600,11.925306640625,3.8660435676574707,12.258445739746094,11.876179695129395
1700958248683298800,11.942298828125,6.476179122924805,12.665305137634277,18.570587158203125
1700958248700291600,11.95929150390625,5.425036430358887,12.101794242858887,21.520490646362305
1700958248717284000,11.9762841796875,1.8214349746704102,8.282402038574219,21.353673934936523
1700958248734266000,11.99326611328125,-2.9252190589904785,1.0147886276245117,20.995758056640625
1700958248751258400,12.01025830078125,-2.2792091369628906,-7.207728862762451,17.420656204223633
1700958248768261600,12.02726171875,4.616393089294434,-15.849288940429688,10.475236892700195
1700958248785254100,12.044254150390625,13.417888641357422,-20.788463592529297,2.1473798751831055
1700958248802246400,12.061246337890625,17.123729705810547,-22.921669006347656,-2.581143379211426
1700958248819239000,12.078239013671874,12.94228744506836,-24.489032745361328,-2.891859769821167
1700958248836232000,12.09523193359375,7.8718180656433105,-25.076019287109375,-0.627517580986023
1700958248853224000,12.112223876953125,4.299362659454346,-24.077327728271484,1.2206902503967285
1700958248870217000,12.129217041015625,1.6425771713256836,-22.026777267456055,0.868192195892334
1700958248887198500,12.146198486328124,0.9063692092895508,-19.76435089111328,0.19201231002807617
1700958248904193500,12.163193603515625,1.7317087650299072,-17.740203857421875,-0.7787513732910156
1700958248921190100,12.180190185546875,1.6648056507110596,-16.33753776550293,1.7296943664550781
1700958248938190600,12.197190673828125,1.3605327606201172,-15.199125289916992,7.946008682250977
1700958248955168800,12.214168701171875,1.5656626224517822,-13.11014175415039,12.528213500976562
1700958248972171800,12.231171875,1.5004158020019531,-10.04515552520752,10.027555465698242
1700958248989164300,12.248164306640625,-1.1104612350463867,-4.970414161682129,4.878662109375
1700958249006156500,12.265156494140625,-6.032121658325195,2.5717506408691406,8.991713523864746
1700958249023149000,12.282149169921874,-6.5491623878479,7.718172550201416,25.203493118286133
1700958249040141800,12.299141845703126,-0.8735790252685547,10.512882232666016,39.799015045166016
1700958249057134000,12.316134033203125,8.101116180419922,13.395118713378906,37.98161697387695
1700958249074126600,12.333126708984375,13.134353637695312,14.863785743713379,25.97296142578125
1700958249091119400,12.350119384765625,12.717591285705566,13.585038185119629,10.560991287231445
1700958249108110000,12.367110107421874,7.304408550262451,10.359634399414062,-0.47739458084106445
1700958249125105700,12.384105712890625,2.1520183086395264,8.611562728881836,-8.041583061218262
1700958249142097000,12.401096923828124,-0.840083122253418,8.236899375915527,-12.239250183105469
1700958249159089200,12.418089111328126,-0.9464592933654785,8.060827255249023,-12.447467803955078
1700958249176082000,12.43508203125,0.9064528942108154,8.38528060913086,-10.337393760681152
1700958249193074200,12.45207421875,3.6983470916748047,9.296419143676758,-9.321393013000488
1700958249210067000,12.46906689453125,5.402536392211914,9.657691955566406,-10.843679428100586
1700958249227062000,12.48606201171875,4.708223342895508,9.700517654418945,-12.743788719177246
1700958249244052000,12.503052001953124,2.9810972213745117,9.658235549926758,-12.107599258422852
1700958249261044500,12.52004443359375,3.015291452407837,9.930347442626953,-7.374016284942627
1700958249278037000,12.537037109375,4.50609827041626,10.272956848144531,1.1483697891235352
1700958249295029200,12.554029296875,5.981886386871338,9.605718612670898,10.656593322753906
1700958249312013600,12.571013671875,7.170291423797607,10.041343688964844,13.614871978759766
1700958249329011000,12.588010986328126,9.03564167022705,11.691686630249023,13.102514266967773
1700958249346000600,12.605000732421875,9.407554626464844,10.818639755249023,14.529732704162598
1700958249362997200,12.621997314453125,8.442030906677246,9.402658462524414,15.84032154083252
1700958249379991600,12.638991455078125,1.3537404537200928,8.330724716186523,17.729787826538086
1700958249396976400,12.655976318359375,-7.777976989746094,4.203841209411621,22.327190399169922
1700958249413976800,12.672976806640625,-10.053352355957031,-3.1477999687194824,21.343149185180664
1700958249430969600,12.689969482421875,-0.8700451850891113,-10.831509590148926,12.866024017333984
1700958249447961900,12.7069619140625,11.10758113861084,-17.16446304321289,3.2702481746673584
1700958249464954600,12.72395458984375,17.41744613647461,-19.300945281982422,-4.240411758422852
1700958249481947000,12.74094677734375,13.40872573852539,-20.88900375366211,-5.68557071685791
1700958249498939600,12.757939697265625,6.675912380218506,-21.537567138671875,-1.3621532917022705
1700958249515932200,12.77493212890625,2.610720157623291,-21.601383209228516,7.144300937652588
1700958249532924200,12.791924072265624,2.2855231761932373,-19.921463012695312,7.481758117675781
1700958249549904100,12.808904052734375,2.793734312057495,-18.926916122436523,2.5724549293518066
1700958249566899500,12.8258994140625,3.5373497009277344,-18.403919219970703,-2.2890982627868652
1700958249583904000,12.842904052734376,3.279613733291626,-17.828163146972656,-3.533216714859009
1700958249600885800,12.8598857421875,2.067448377609253,-17.863014221191406,1.0337438583374023
1700958249617887200,12.87688720703125,0.46428918838500977,-17.98280143737793,9.214107513427734
1700958249634879700,12.893879638671875,-1.0035157203674316,-16.006507873535156,11.752599716186523
1700958249651872000,12.9108720703125,-2.2082300186157227,-8.91265869140625,3.0597739219665527
1700958249668864500,12.927864501953126,-4.24654483795166,-1.5877151489257812,2.716618061065674
1700958249685846800,12.9448466796875,-3.276566982269287,0.5183677673339844,27.8543758392334
1700958249702846000,12.961845947265624,3.4427502155303955,3.793191432952881,47.482418060302734
1700958249719845600,12.978845703125,10.84202766418457,11.591598510742188,34.10875701904297
1700958249736834600,12.99583447265625,15.28174114227295,18.747276306152344,12.784661293029785
1700958249753827000,13.0128271484375,11.820444107055664,18.127059936523438,9.79595947265625
1700958249770819300,13.0298193359375,5.165814399719238,14.000346183776855,7.39907169342041
1700958249787810000,13.04681005859375,0.44570255279541016,12.348462104797363,0.1310577392578125
1700958249804806700,13.063806640625,-1.1800744533538818,12.422449111938477,-4.3020124435424805
1700958249821798400,13.08079833984375,0.25682973861694336,12.336606979370117,-8.997095108032227
1700958249838788400,13.097788330078124,2.941751718521118,11.512186050415039,-11.930760383605957
1700958249855782100,13.1147822265625,4.686641693115234,11.042827606201172,-13.757774353027344
1700958249872774700,13.131774658203126,3.9172580242156982,11.060599327087402,-14.50651741027832
1700958249889767200,13.14876708984375,1.5479118824005127,10.537248611450195,-11.925901412963867
1700958249906759700,13.165759765625,0.8252886533737183,9.770818710327148,-6.841979026794434
1700958249923742000,13.182741943359375,2.0226454734802246,9.43507194519043,-1.2871084213256836
1700958249940744700,13.19974462890625,3.984581232070923,8.957754135131836,3.854787826538086
1700958249957737200,13.2167373046875,4.600772857666016,8.549179077148438,8.430854797363281
1700958249974729500,13.2337294921875,5.812768459320068,10.338260650634766,10.891263008117676
1700958249991722000,13.250721923828126,9.58105182647705,12.575302124023438,13.434043884277344
1700958250008714800,13.26771484375,11.322275161743164,10.95839786529541,16.54327392578125
1700958250025698800,13.28469873046875,9.097150802612305,10.614954948425293,17.182640075683594
1700958250042700300,13.3017001953125,2.5347394943237305,6.009112358093262,21.568458557128906
1700958250059691800,13.31869189453125,-1.5261003971099854,-2.84952449798584,24.684226989746094
1700958250076684800,13.335684814453124,2.117513656616211,-10.266220092773438,16.83331871032715
1700958250093677000,13.352677001953126,8.463848114013672,-16.447111129760742,5.626871585845947
1700958250110669800,13.369669921875,13.103780746459961,-20.192981719970703,-2.4052915573120117
1700958250127662300,13.386662353515625,11.964611053466797,-22.591354370117188,-5.454859733581543
1700958250144654600,13.403654541015625,6.998279094696045,-23.841537475585938,-5.344809532165527
1700958250161647400,13.4206474609375,2.6401708126068115,-24.619407653808594,-2.913351058959961
1700958250178640000,13.437639892578124,1.25007963180542,-24.328781127929688,-1.379028081893921
1700958250195632400,13.45463232421875,1.6562049388885498,-22.610963821411133,-3.076002597808838
1700958250212624600,13.471624755859375,2.7387614250183105,-20.473726272583008,-5.302186489105225
1700958250229617200,13.4886171875,3.1040563583374023,-18.445667266845703,-4.097822666168213
1700958250246605800,13.505605712890626,1.96630859375,-17.088699340820312,2.6606788635253906
1700958250263602400,13.5226025390625,0.6064696311950684,-15.629156112670898,10.903228759765625
1700958250280595000,13.539594970703124,-1.0172367095947266,-11.862966537475586,11.406454086303711
1700958250297587500,13.55658740234375,-4.853796482086182,-7.074799537658691,6.301911354064941
1700958250314577400,13.573577392578125,-9.518470764160156,-0.3489675521850586,5.88456392288208
1700958250331575000,13.590574951171876,-8.098532676696777,3.00492000579834,20.607046127319336
1700958250348565000,13.60756494140625,-0.7706155776977539,4.334053993225098,37.0400390625
1700958250365557200,13.62455712890625,2.773129463195801,6.360312461853027,48.739593505859375
1700958250382550000,13.641550048828124,6.860477924346924,11.03201961517334,35.432987213134766
1700958250399542300,13.658542236328126,10.301513671875,13.601136207580566,9.480780601501465
1700958250416545800,13.6755458984375,6.3516950607299805,12.23342514038086,-5.752222061157227
1700958250433527000,13.692527099609375,1.8646068572998047,11.562002182006836,-11.499048233032227
1700958250450519800,13.709519775390625,1.0118165016174316,11.798592567443848,-12.369585037231445
1700958250467506700,13.726506591796875,3.2438430786132812,11.906686782836914,-9.553013801574707
1700958250484506000,13.743506103515625,5.556310653686523,12.194238662719727,-5.5555572509765625
1700958250501493800,13.76049365234375,8.19478702545166,13.029373168945312,-6.342764854431152
1700958250518482700,13.777482666015626,8.21141242980957,13.24698543548584,-9.213068962097168
1700958250535482600,13.794482666015625,4.747816562652588,12.797989845275879,-10.369351387023926
1700958250552475100,13.81147509765625,1.3395297527313232,12.260587692260742,-8.289515495300293
1700958250569457000,13.828456787109374,0.21179533004760742,11.944503784179688,-0.8373374938964844
1700958250586460000,13.8454599609375,1.2767302989959717,11.214231491088867,7.836353302001953
1700958250603450000,13.8624501953125,3.793262243270874,10.793563842773438,13.216721534729004
1700958250620447500,13.879447509765624,5.255863189697266,9.407707214355469,16.44512367248535
1700958250637437200,13.896437255859375,9.063932418823242,9.593184471130371,15.613338470458984
1700958250654427400,13.913427490234374,9.708189010620117,7.95499324798584,18.263248443603516
1700958250671425000,13.930425048828125,6.468844413757324,5.155550003051758,20.028823852539062
1700958250688415000,13.9474150390625,-0.281451940536499,2.461446762084961,20.40410804748535
1700958250705406500,13.964406494140626,-6.229689598083496,-3.193179130554199,22.665782928466797
1700958250722400800,13.98140087890625,-4.609206199645996,-10.299070358276367,18.949819564819336
1700958250739392500,13.998392578125,4.463139057159424,-16.911800384521484,9.534160614013672
1700958250756384800,14.015384765625,13.97221565246582,-20.851470947265625,-0.7900011539459229
1700958250773377500,14.03237744140625,15.687905311584473,-22.503202438354492,-7.206445217132568
1700958250790357800,14.049357666015625,9.409950256347656,-23.741125106811523,-8.11181640625
1700958250807351300,14.066351318359375,3.5146427154541016,-23.617341995239258,-4.7503461837768555
1700958250824358000,14.08335791015625,0.8408665657043457,-22.63317108154297,-0.15393805503845215
1700958250841342000,14.100342041015624,1.0492525100708008,-21.227291107177734,1.5949063301086426
1700958250858340400,14.11734033203125,3.192699670791626,-19.471275329589844,-1.1501150131225586
1700958250875332400,14.134332275390625,6.045113563537598,-17.628538131713867,-4.590884685516357
1700958250892316400,14.15131640625,5.8162736892700195,-16.496871948242188,-3.7529659271240234
1700958250909315000,14.168315185546875,3.304387092590332,-15.879789352416992,3.6716818809509277
1700958250926312700,14.185312744140624,0.41909313201904297,-14.722532272338867,12.363838195800781
1700958250943289900,14.202289794921874,-2.8148722648620605,-13.567358016967773,12.614667892456055
1700958250960288500,14.21928857421875,-7.25892972946167,-12.632076263427734,8.992104530334473
1700958250977278700,14.23627880859375,-7.442483901977539,-8.004523277282715,7.2972612380981445
1700958250994282500,14.253282470703125,-1.1695427894592285,-1.2264771461486816,16.433231353759766
1700958251011272400,14.2702724609375,5.0010857582092285,0.053292036056518555,46.38866424560547
1700958251028265000,14.287264892578126,8.798392295837402,6.39508056640625,61.398170471191406
1700958251045257500,14.304257568359375,12.220349311828613,14.379844665527344,41.33596420288086
1700958251062244600,14.32124462890625,10.367837905883789,16.545320510864258,11.11767864227295
1700958251079242500,14.338242431640625,2.387721300125122,15.22845458984375,-4.9629926681518555
1700958251096235000,14.355235107421874,-2.3270206451416016,14.521934509277344,-7.239741325378418
1700958251113227500,14.3722275390625,-1.8315825462341309,13.971309661865234,-6.529399394989014
1700958251130207200,14.389207275390625,3.2990922927856445,13.084339141845703,-4.291572570800781
1700958251147203000,14.406203125,9.359912872314453,13.747236251831055,-4.207014083862305
1700958251164193800,14.42319384765625,11.913372993469238,14.453290939331055,-7.50214958190918
1700958251181195800,14.44019580078125,8.555044174194336,14.453598976135254,-12.189996719360352
1700958251198179600,14.4571796875,4.42011833190918,15.78174877166748,-14.684734344482422
1700958251215174100,14.474174072265624,2.288884162902832,17.276119232177734,-10.003562927246094
1700958251232167400,14.49116748046875,2.026240587234497,16.13546371459961,0.29209232330322266
1700958251249160700,14.50816064453125,5.450223922729492,14.132774353027344,9.375082015991211
1700958251266151400,14.5251513671875,7.126087665557861,11.219451904296875,15.114614486694336
1700958251283142000,14.542141845703124,9.002885818481445,9.909055709838867,14.723358154296875
1700958251300135700,14.5591357421875,10.78121566772461,9.141111373901367,16.08969497680664
1700958251317132300,14.57613232421875,9.27481460571289,5.002446174621582,22.263307571411133
1700958251334118700,14.59311865234375,6.446266174316406,2.7100486755371094,24.084074020385742
1700958251351114500,14.610114501953126,1.0542948246002197,-1.453465461730957,29.07280731201172
1700958251368108300,14.6271083984375,-2.2935643196105957,-7.975183010101318,29.150819778442383
1700958251385100800,14.644100830078125,1.3719942569732666,-14.30296802520752,20.2435302734375
1700958251402089700,14.66108984375,7.085657119750977,-19.399906158447266,8.826526641845703
1700958251419083000,14.6780830078125,9.325742721557617,-21.598386764526367,-0.6031954288482666
1700958251436079000,14.6950791015625,5.899130821228027,-22.75862693786621,-4.51108980178833
1700958251453079300,14.712079345703126,2.010047197341919,-22.58765983581543,-5.090239524841309
1700958251470070300,14.7290703125,1.1190340518951416,-22.527732849121094,-3.9421801567077637
1700958251487054300,14.746054443359375,2.494591474533081,-22.309179306030273,-3.403747081756592
1700958251504052200,14.76305224609375,4.753952503204346,-21.49557876586914,-5.068271160125732
1700958251521045000,14.780044921875,6.361665725708008,-20.573110580444336,-6.454865455627441
1700958251538043000,14.79704296875,5.7570905685424805,-19.199508666992188,-4.586985111236572
1700958251555022300,14.814022216796875,3.380039691925049,-17.31239128112793,1.3268632888793945
1700958251572022800,14.831022705078125,1.0943636894226074,-15.13443374633789,7.890166759490967
1700958251589020400,14.8480205078125,-0.6811380386352539,-12.654122352600098,10.189438819885254
1700958251606012200,14.86501220703125,-3.6815810203552246,-9.286162376403809,5.522137641906738
1700958251623000000,14.882,-5.130631923675537,-2.4332315921783447,1.8130922317504883
1700958251639997700,14.898997802734375,-3.1548895835876465,0.46135616302490234,18.674331665039062
1700958251656987600,14.915987548828125,0.2635502815246582,3.7514050006866455,41.39734649658203
1700958251673980400,14.93298046875,7.591521263122559,8.420164108276367,45.72000503540039
1700958251690972700,14.94997265625,14.225837707519531,12.559046745300293,30.177780151367188
1700958251707965200,14.966965087890625,13.21933364868164,13.372215270996094,12.872360229492188
1700958251724957200,14.983957275390624,6.248043060302734,12.186460494995117,3.635711669921875
1700958251741950700,15.00095068359375,0.9863100051879883,10.476394653320312,-0.6598606109619141
1700958251758943000,15.01794287109375,0.7884607315063477,8.931599617004395,-4.24208927154541
1700958251775925200,15.03492529296875,4.720134735107422,8.145601272583008,-6.190995216369629
1700958251792917800,15.051917724609375,8.502996444702148,8.691028594970703,-6.420124053955078
1700958251809920300,15.068920166015625,9.38583755493164,10.293336868286133,-7.464734077453613
1700958251826912800,15.085912841796874,7.09030818939209,10.69255256652832,-7.90988302230835
1700958251843905300,15.1029052734375,2.6577320098876953,10.530268669128418,-9.704427719116211
1700958251860897800,15.119897705078126,-2.4762237071990967,10.303969383239746,-11.710567474365234
1700958251877887700,15.1368876953125,-3.9440078735351562,10.201395034790039,-10.641363143920898
1700958251894885600,15.1538857421875,-0.28933000564575195,9.717780113220215,-5.800949573516846
1700958251911875300,15.170875244140625,5.93504524230957,9.807708740234375,1.4009552001953125
1700958251928868000,15.1878681640625,9.556293487548828,8.49951171875,11.660146713256836
1700958251945848600,15.2048486328125,7.880231857299805,7.583041191101074,16.159523010253906
1700958251962849800,15.221849853515625,5.540495872497559,7.45510721206665,15.486698150634766
1700958251979849700,15.238849609375,7.576206684112549,9.367050170898438,13.287487030029297
1700958251996838000,15.255837890625,12.298233985900879,7.141299247741699,17.09725570678711
1700958252013830400,15.272830322265625,13.890271186828613,5.567771911621094,19.886734008789062
1700958252030823200,15.2898232421875,9.57015609741211,-1.7758846282958984,24.668725967407227
1700958252047815400,15.3068154296875,5.776971340179443,-9.716909408569336,24.131404876708984
1700958252064808000,15.323807861328126,5.5078229904174805,-15.043697357177734,14.860323905944824
1700958252081800200,15.34080029296875,5.133877277374268,-18.35138702392578,4.355949401855469
1700958252098794200,15.357794189453125,3.3754305839538574,-19.83899688720703,-3.8682215213775635
1700958252115784200,15.3747841796875,1.0491268634796143,-20.72076416015625,-7.452428817749023
1700958252132778000,15.391778076171875,0.32504892349243164,-22.242847442626953,-6.507889747619629
1700958252149770500,15.4087705078125,1.5244266986846924,-24.1710205078125,-3.4619476795196533
1700958252166763000,15.425762939453126,3.168642044067383,-24.793254852294922,-2.0125303268432617
1700958252183752700,15.442752685546875,3.760157585144043,-23.337032318115234,-4.391921520233154
1700958252200750000,15.45975,2.927692413330078,-21.300052642822266,-6.669513702392578
1700958252217733400,15.4767333984375,1.8538894653320312,-20.200721740722656,-5.554960250854492
1700958252234730500,15.49373046875,2.089688301086426,-19.75484848022461,-0.02511310577392578
1700958252251728400,15.510728271484375,1.3778600692749023,-18.61988067626953,10.064624786376953
1700958252268717300,15.52771728515625,-0.39861631393432617,-15.127742767333984,17.729700088500977
1700958252285700000,15.5447001953125,-1.493757724761963,-9.876693725585938,14.781440734863281
1700958252302703000,15.561703125,-1.8208837509155273,-3.0133495330810547,8.135080337524414
1700958252319695400,15.5786953125,-0.7877907752990723,3.3693408966064453,12.525493621826172
1700958252336689700,15.595689697265625,3.8699686527252197,7.5055437088012695,24.94057846069336
1700958252353680600,15.6126806640625,9.211615562438965,9.947038650512695,38.14757537841797
1700958252370673200,15.629673095703126,12.520915985107422,12.45351791381836,38.81998825073242
1700958252387665400,15.64666552734375,13.065465927124023,13.979572296142578,26.286376953125
1700958252404647400,15.6636474609375,9.882526397705078,13.062760353088379,10.05977725982666
1700958252421650700,15.680650634765625,4.310552597045898,10.74616813659668,-1.1772265434265137
1700958252438643000,15.697642822265625,-0.3129603862762451,8.930730819702148,-7.776239395141602
1700958252455635500,15.714635498046874,-0.797616720199585,8.864295959472656,-11.853861808776855
1700958252472628200,15.731628173828126,2.292081594467163,9.936091423034668,-12.701835632324219
1700958252489620700,15.748620849609376,4.961474418640137,11.753351211547852,-10.866671562194824
1700958252506613000,15.765613037109375,4.055313587188721,14.005675315856934,-10.759943008422852
1700958252523605800,15.782605712890625,0.8696765899658203,15.063676834106445,-11.485445022583008
1700958252540595500,15.799595458984374,0.6641726493835449,14.678367614746094,-10.765077590942383
1700958252557593000,15.816593017578125,2.578861951828003,13.450040817260742,-6.356465816497803
1700958252574583000,15.8335830078125,5.431703090667725,13.136160850524902,-1.8213071823120117
1700958252591577000,15.8505771484375,6.174842834472656,12.29201889038086,5.1914286613464355
1700958252608566300,15.867566162109375,5.282344818115234,11.231239318847656,13.440650939941406
1700958252625560300,15.884560302734375,4.277921676635742,12.951818466186523,19.315256118774414
1700958252642553000,15.901552978515625,8.06021785736084,14.125894546508789,24.734437942504883
1700958252659545600,15.918545654296874,10.207157135009766,10.71325397491455,29.994802474975586
1700958252676538000,15.9355380859375,8.250805854797363,9.501718521118164,29.725452423095703
1700958252693530600,15.952530517578126,2.1333820819854736,1.8661537170410156,32.72998046875
1700958252710523100,15.969523193359375,1.6091465950012207,-6.567814826965332,26.844879150390625
1700958252727505000,15.9865048828125,7.481447219848633,-13.569879531860352,15.691606521606445
1700958252744506000,16.003506103515626,12.47540283203125,-18.772693634033203,5.841136932373047
1700958252761499400,16.02049951171875,11.223280906677246,-22.444948196411133,-0.8522307872772217
1700958252778495700,16.037495849609375,5.977722644805908,-24.120769500732422,-3.5961389541625977
1700958252795485700,16.054485595703124,0.8358004093170166,-25.206871032714844,-2.160078287124634
1700958252812475400,16.071475341796877,0.0717477798461914,-25.892723083496094,0.15776050090789795
1700958252829469200,16.08846923828125,3.9485158920288086,-26.07879638671875,-0.9011441469192505
1700958252846463000,16.105462890625,7.581688404083252,-25.340652465820312,-2.8847389221191406
1700958252863455500,16.12245556640625,7.383939743041992,-24.379112243652344,-2.7531898021698
1700958252880437200,16.139437255859374,4.350767612457275,-21.95669937133789,-2.1064929962158203
1700958252897440500,16.1564404296875,0.984102725982666,-19.5142879486084,0.30788469314575195
1700958252914433300,16.173433349609375,-0.9113998413085938,-17.616127014160156,5.920963287353516
1700958252931425300,16.19042529296875,-1.0760931968688965,-15.550600051879883,12.081245422363281
1700958252948418000,16.20741796875,-0.4772930145263672,-12.862773895263672,13.470016479492188
1700958252965410600,16.22441064453125,1.0946502685546875,-8.514021873474121,8.204146385192871
1700958252982403300,16.2414033203125,-2.745229721069336,-0.5243158340454102,4.847058296203613
1700958252999395600,16.2583955078125,-8.555421829223633,4.592033863067627,19.568031311035156
1700958253016388400,16.275388427734374,-4.760454177856445,6.504706859588623,45.27342224121094
1700958253033380600,16.292380615234375,6.818904876708984,10.340888023376465,52.27605056762695
1700958253050362600,16.309362548828126,17.89737319946289,16.418365478515625,31.557327270507812
1700958253067365600,16.32636572265625,18.471038818359375,16.712690353393555,12.304658889770508
1700958253084358100,16.343358154296876,9.657659530639648,13.538783073425293,3.406243324279785
1700958253101349600,16.360349609375,2.876035690307617,11.546099662780762,-2.946315288543701
1700958253118337000,16.3773369140625,0.14421367645263672,10.815572738647461,-7.572818279266357
1700958253135335400,16.39433544921875,-0.5042672157287598,10.310201644897461,-8.125018119812012
1700958253152328200,16.411328125,2.1687264442443848,10.518672943115234,-8.535957336425781
1700958253169320700,16.42832080078125,4.845416069030762,11.605486869812012,-9.896355628967285
1700958253186313200,16.445313232421874,4.477482318878174,11.8780517578125,-10.143600463867188
1700958253203305500,16.462305419921876,1.9594428539276123,11.245600700378418,-10.375496864318848
1700958253220298200,16.47929833984375,0.2714354991912842,10.336585998535156,-10.01364803314209
1700958253237290500,16.49629052734375,0.9141256809234619,9.646530151367188,-7.714845657348633
1700958253254283000,16.513282958984377,3.1749188899993896,9.48567008972168,-1.7031068801879883
1700958253271278800,16.53027880859375,5.522041320800781,9.219256401062012,4.892358779907227
1700958253288268300,16.547268310546876,5.502706050872803,9.172782897949219,10.442651748657227
1700958253305260800,16.5642607421875,5.3525495529174805,9.95210075378418,13.063480377197266
1700958253322243000,16.5812431640625,8.006961822509766,12.776628494262695,14.9352445602417
1700958253339245800,16.598245849609373,9.050142288208008,10.545631408691406,21.985095977783203
1700958253356238300,16.61523828125,8.306818962097168,9.270150184631348,23.22647476196289
1700958253373230600,16.632230712890625,2.7108354568481445,7.00809383392334,24.274883270263672
1700958253390223400,16.649223388671874,-1.8371050357818604,-0.48933982849121094,26.688976287841797
1700958253407205000,16.666205078125,1.0037994384765625,-9.082598686218262,21.41421127319336
1700958253424208400,16.68320849609375,8.10089111328125,-15.202499389648438,10.83041000366211
1700958253441203200,16.700203125,12.886293411254883,-18.693523406982422,2.069568157196045
1700958253458190800,16.71719091796875,10.553301811218262,-21.355587005615234,-2.8458592891693115
1700958253475183400,16.734183349609374,5.850966453552246,-22.50960922241211,-4.019989013671875
1700958253492180200,16.75118017578125,1.8556938171386719,-22.92181396484375,-2.544745445251465
1700958253509170700,16.768170654296874,0.635340690612793,-23.192020416259766,-0.08729982376098633
1700958253526154500,16.785154541015626,2.8831865787506104,-22.562225341796875,0.4167358875274658
1700958253543155500,16.802155517578125,4.576549053192139,-21.37703514099121,-0.6950631141662598
1700958253560148500,16.8191484375,4.397250175476074,-19.91985321044922,-1.96865713596344
1700958253577138400,16.836138427734376,2.8719303607940674,-18.241336822509766,-1.1966805458068848
1700958253594135800,16.8531357421875,0.7651534080505371,-17.00546646118164,1.4355473518371582
1700958253611125800,16.870125732421876,-0.6445126533508301,-15.708852767944336,5.6576619148254395
1700958253628118000,16.887117919921874,-1.263345718383789,-13.887516021728516,9.235987663269043
1700958253645111000,16.904111083984375,-2.4034838676452637,-10.258054733276367,8.405467987060547
1700958253662103300,16.921103271484377,-3.801302909851074,-2.5755536556243896,2.9853768348693848
1700958253679095600,16.938095458984375,-5.181032657623291,2.286929130554199,11.726613998413086
1700958253696088300,16.95508837890625,-3.4385056495666504,4.546322345733643,35.121986389160156
1700958253713080600,16.97208056640625,5.16196346282959,7.831432819366455,46.132442474365234
1700958253730073000,16.989072998046876,12.617683410644531,12.754837989807129,39.7581672668457
1700958253747075000,17.006074951171875,16.813642501831055,15.04348087310791,20.37002944946289
1700958253764060700,17.023060791015624,12.217325210571289,13.02109432220459,6.081374645233154
1700958253781051000,17.04005078125,2.984381675720215,10.524040222167969,-0.7213597297668457
1700958253798040800,17.057040771484374,-3.684631824493408,9.292160987854004,-5.805365562438965
1700958253815038200,17.0740380859375,-4.43829870223999,9.033514976501465,-8.596470832824707
1700958253832028200,17.091028076171874,-1.5617432594299316,8.254745483398438,-8.081390380859375
1700958253849020700,17.108020751953124,2.939077377319336,8.589425086975098,-7.399670600891113
1700958253866013400,17.125013427734373,5.935128688812256,9.572361946105957,-7.997724533081055
1700958253883003100,17.142003173828126,4.856823444366455,9.92493724822998,-8.873875617980957
1700958253900000800,17.159000732421877,1.691648006439209,9.774967193603516,-9.232799530029297
1700958253916990700,17.17599072265625,-0.6091852188110352,9.66715145111084,-8.489087104797363
1700958253933983200,17.192983154296876,0.5208148956298828,9.383113861083984,-5.410946846008301
1700958253950968800,17.20996875,3.3110435009002686,8.598718643188477,-0.3574185371398926
1700958253967954200,17.2269541015625,6.276019096374512,8.246393203735352,6.670803546905518
1700958253984964400,17.24396435546875,7.9715962409973145,11.045045852661133,8.655878067016602
1700958254001953500,17.26095361328125,7.91213321685791,14.490548133850098,12.927616119384766
1700958254018945800,17.27794580078125,6.389047622680664,14.563335418701172,19.15146255493164
1700958254035938300,17.294938232421874,6.096975326538086,13.851947784423828,21.775434494018555
1700958254052930800,17.311930908203124,6.274867057800293,10.103755950927734,24.237064361572266
1700958254069923300,17.32892333984375,6.43006706237793,3.2453317642211914,25.881023406982422
1700958254086913800,17.345913818359374,7.352992057800293,-5.206295013427734,22.845396041870117
1700958254103910400,17.362910400390625,9.593915939331055,-10.964659690856934,14.959012985229492
1700958254120900900,17.37990087890625,9.935676574707031,-15.737306594848633,8.294595718383789
1700958254137893000,17.39689306640625,7.938368797302246,-19.709491729736328,4.290660381317139
1700958254154878500,17.41387841796875,4.301729202270508,-22.15932846069336,1.1102319955825806
1700958254171878400,17.43087841796875,0.7336955070495605,-23.177024841308594,-2.3388023376464844
1700958254188867600,17.44786767578125,0.4486093521118164,-24.04366111755371,-4.155953884124756
1700958254205855500,17.46485546875,2.617732048034668,-24.36617660522461,-4.84350061416626
1700958254222854700,17.481854736328124,4.618110656738281,-24.20286750793457,-4.062071323394775
1700958254239849500,17.498849365234374,4.58237361907959,-23.249958038330078,-2.452453851699829
1700958254256840700,17.5158408203125,2.8946359157562256,-21.458824157714844,-0.887617826461792
1700958254273820700,17.532820556640626,0.3456563949584961,-20.04526710510254,1.7313344478607178
1700958254290818000,17.549818115234373,-1.4239044189453125,-18.894121170043945,5.8414306640625
1700958254307820800,17.56682080078125,-1.8067212104797363,-16.78175926208496,11.19464111328125
1700958254324810800,17.583810791015626,-2.546478748321533,-12.859207153320312,13.582578659057617
1700958254341801700,17.6008017578125,-2.9148502349853516,-5.924101829528809,8.941617012023926
1700958254358799400,17.61779931640625,-6.765026092529297,1.1985244750976562,9.78210735321045
1700958254375788500,17.63478857421875,-7.415720462799072,5.020400524139404,26.590839385986328
1700958254392780800,17.65178076171875,-0.29386377334594727,7.210891246795654,50.33949279785156
1700958254409773600,17.668773681640626,8.734879493713379,11.324441909790039,49.21168899536133
1700958254426765800,17.685765869140624,15.975849151611328,15.346473693847656,25.49703025817871
1700958254443755800,17.702755859375,15.021480560302734,14.146068572998047,7.4408698081970215
1700958254460742400,17.719742431640626,6.287075042724609,10.485870361328125,2.230599880218506
1700958254477733400,17.7367333984375,-0.29094934463500977,8.346565246582031,-1.1403045654296875
1700958254494738400,17.753738525390624,-1.6879520416259766,7.188604354858398,-5.38944149017334
1700958254511728000,17.77072802734375,-0.3481130599975586,6.506561756134033,-6.33967399597168
1700958254528721000,17.787720947265626,2.0124924182891846,5.856874465942383,-6.693356990814209
1700958254545726500,17.8047265625,4.821512699127197,6.14480447769165,-8.058582305908203
1700958254562706000,17.821705810546874,6.809182643890381,6.734945774078369,-8.92550277709961
1700958254579696600,17.838696533203127,6.069780349731445,7.452788352966309,-9.74734878540039
1700958254596692500,17.8556923828125,3.3344321250915527,8.14212417602539,-11.28115177154541
1700958254613691400,17.87269140625,2.0382399559020996,7.915165901184082,-10.762106895446777
1700958254630673400,17.88967333984375,5.154941558837891,7.379528999328613,-8.4515962600708
1700958254647659000,17.906658935546876,7.56974983215332,7.720387935638428,-5.517253875732422
1700958254664651500,17.923651611328125,5.654106140136719,7.9653825759887695,-2.84676456451416
1700958254681647600,17.940647705078124,-0.29593420028686523,8.461470603942871,-0.21035146713256836
1700958254698638600,17.957638671875,-4.038922309875488,10.745407104492188,2.3093104362487793
1700958254715629600,17.974629638671875,2.705601930618286,15.058526992797852,5.700104713439941
1700958254732622000,17.9916220703125,5.94190788269043,19.267074584960938,16.366477966308594
1700958254749618400,18.008618408203127,6.32905912399292,19.72365379333496,30.637943267822266
1700958254766605300,18.025605224609375,9.693939208984375,15.166149139404297,40.183677673339844
1700958254783601000,18.042600830078126,11.504263877868652,7.276745319366455,41.04135513305664
1700958254800590600,18.059590576171875,10.189704895019531,-1.0455188751220703,33.1004753112793
1700958254817586200,18.076586181640625,6.9148759841918945,-7.508986949920654,21.732885360717773
1700958254834578200,18.093578125,4.969172477722168,-9.658595085144043,12.560200691223145
1700958254851569200,18.110569091796876,4.633612632751465,-11.585309982299805,9.467325210571289
1700958254868562700,18.127562744140626,4.67282772064209,-13.378787994384766,8.168360710144043
1700958254885554000,18.144553955078123,5.5380659103393555,-15.192436218261719,7.631654739379883
1700958254902549000,18.161549072265625,6.6879119873046875,-17.086742401123047,6.650447845458984
1700958254919540000,18.1785400390625,7.730085849761963,-19.17095184326172,4.940884113311768
1700958254936532000,18.195531982421876,8.04719352722168,-21.097179412841797,2.506443500518799
1700958254953533700,18.21253369140625,7.42636775970459,-21.956031799316406,-0.7420060634613037
1700958254970526000,18.22952587890625,6.928415775299072,-21.712453842163086,-4.5149102210998535
1700958254987518500,18.2465185546875,6.414616107940674,-20.677989959716797,-6.806020259857178
1700958255004511200,18.26351123046875,5.283681869506836,-19.8999080657959,-4.989028453826904
1700958255021501000,18.2805009765625,4.448029518127441,-18.94873809814453,-0.37596532702445984
1700958255038495000,18.297494873046876,3.163727283477783,-16.981679916381836,2.9457807540893555
1700958255055488300,18.31448828125,0.5632152557373047,-14.058744430541992,1.9346482753753662
1700958255072478500,18.331478515625,-6.271968364715576,-11.588672637939453,1.2969810962677002
1700958255089476000,18.34847607421875,-9.61832046508789,-9.988323211669922,2.1698639392852783
1700958255106465800,18.3654658203125,-6.0146098136901855,-8.698206901550293,9.937442779541016
1700958255123456000,18.3824560546875,-2.183248996734619,-8.92879581451416,21.954124450683594
1700958255140453400,18.399453369140623,2.1121609210968018,-3.8515000343322754,27.85955047607422
1700958255157443600,18.416443603515624,13.01084041595459,-0.6309657096862793,34.06761932373047
1700958255174435800,18.433435791015626,22.738182067871094,2.280026912689209,33.08064651489258
1700958255191428600,18.4504287109375,20.05971336364746,4.659299373626709,23.670719146728516
1700958255208421000,18.467421142578125,12.088266372680664,5.128186225891113,13.239303588867188
1700958255225413600,18.48441357421875,4.830038070678711,5.3776092529296875,5.943586349487305
1700958255242402600,18.501402587890624,0.6890914440155029,4.994537830352783,3.214026927947998
1700958255259399700,18.518399658203126,0.7687201499938965,4.648502826690674,2.451078414916992
1700958255276386300,18.53538623046875,3.5378448963165283,3.9003443717956543,2.0281271934509277
1700958255293381000,18.552381103515625,6.676235198974609,4.086909294128418,0.1275339126586914
1700958255310378500,18.56937841796875,8.675288200378418,5.208565711975098,-1.9316163063049316
1700958255327368400,18.586368408203125,9.70101547241211,6.073755741119385,-3.2457332611083984
1700958255344358700,18.603358642578126,9.137174606323242,6.276651859283447,-4.248271465301514
1700958255361354200,18.620354248046876,7.8736982345581055,6.69700288772583,-5.599758625030518
1700958255378347800,18.63734765625,7.434491157531738,7.628355979919434,-6.982326030731201
1700958255395338500,18.65433837890625,7.624301910400391,8.313457489013672,-6.186337471008301
1700958255412331300,18.671331298828125,7.598165512084961,8.538951873779297,-5.284492492675781
1700958255429323500,18.688323486328127,7.088802337646484,9.733936309814453,-4.812899112701416
1700958255446316000,18.70531591796875,6.857640743255615,12.228520393371582,-1.842430591583252
1700958255463306200,18.72230615234375,5.554339408874512,13.916749954223633,4.879055500030518
1700958255480303600,18.7393037109375,5.66737174987793,16.15782928466797,10.027978897094727
1700958255497293600,18.75629345703125,5.519151210784912,16.004257202148438,16.224037170410156
1700958255514285800,18.773285888671875,5.506526947021484,14.91625690460205,21.258136749267578
1700958255531267800,18.790267822265626,4.360134601593018,11.697608947753906,25.039220809936523
1700958255548271000,18.80727099609375,3.550826072692871,7.817502021789551,26.131513595581055
1700958255565263400,18.824263427734376,3.067619800567627,3.239623546600342,23.99616813659668
1700958255582255900,18.841255859375,2.511624574661255,-1.0505638122558594,19.825143814086914
1700958255599248600,18.85824853515625,1.1587762832641602,-5.036016941070557,15.377803802490234
1700958255616241200,18.8752412109375,0.2533073425292969,-7.5136919021606445,11.063590049743652
1700958255633233700,18.892233642578127,-0.23727655410766602,-8.713114738464355,8.115116119384766
1700958255650226700,18.909226806640625,-0.21188879013061523,-9.680196762084961,6.238300323486328
1700958255667203000,18.926203125,0.5065569877624512,-10.502976417541504,4.341898441314697
1700958255684215600,18.943215576171873,1.1786301136016846,-10.701208114624023,2.0735509395599365
1700958255701197800,18.96019775390625,1.3689193725585938,-10.683385848999023,0.3493671417236328
1700958255718196500,18.977196533203124,1.4326963424682617,-10.717633247375488,-0.9448713064193726
1700958255735188500,18.9941884765625,1.8790557384490967,-10.38589096069336,-1.9208650588989258
1700958255752171000,19.0111708984375,1.439138412475586,-9.63824462890625,-2.6200084686279297
1700958255769173500,19.028173583984376,0.978339433670044,-9.14206314086914,-2.423326015472412
1700958255786166000,19.045166015625,0.535740852355957,-8.824870109558105,-1.9277143478393555
1700958255803158800,19.06215869140625,0.23108148574829102,-8.531907081604004,-2.147648334503174
1700958255820151000,19.079151123046874,0.05342459678649902,-8.087835311889648,-2.5807368755340576
1700958255837143800,19.096143798828123,0.3877298831939697,-7.708293914794922,-2.4172561168670654
1700958255854136300,19.11313623046875,1.2526087760925293,-7.195410251617432,-1.114288568496704
1700958255871128800,19.13012890625,2.0680949687957764,-6.618940353393555,0.670278787612915
1700958255888118300,19.1471181640625,2.456770420074463,-6.257889270782471,2.190469980239868
1700958255905116200,19.1641162109375,3.580484390258789,-4.7874956130981445,2.151571750640869
1700958255922093300,19.18109326171875,3.51725697517395,-2.973266124725342,0.7535789012908936
1700958255939096600,19.1980966796875,2.675670623779297,-2.343926429748535,1.562290906906128
1700958255956093000,19.215093017578123,3.8594560623168945,-0.8371477127075195,1.8468818664550781
1700958255973083600,19.232083740234376,5.830648422241211,-0.20104694366455078,1.5196237564086914
1700958255990076200,19.249076171875,8.333703994750977,-0.5463905334472656,0.9703953266143799
1700958256007078100,19.266078125,10.73324966430664,-0.9625482559204102,-0.38138461112976074
1700958256024061200,19.283061279296874,11.808328628540039,-1.079993724822998,-1.3222557306289673
1700958256041053400,19.300053466796875,10.549370765686035,-1.55171537399292,-0.41727209091186523
1700958256058046200,19.317046142578125,7.480604648590088,-2.063465118408203,0.5446535348892212
1700958256075038500,19.33403857421875,4.441790580749512,-2.7248644828796387,0.034464240074157715
1700958256092038000,19.351037841796874,2.9760680198669434,-2.959017276763916,-1.367167353630066
1700958256109018400,19.368018310546876,2.390622138977051,-3.1692867279052734,-1.7308201789855957
1700958256126013400,19.385013427734375,1.9842147827148438,-3.1854429244995117,-0.49248892068862915
1700958256143008500,19.402008544921873,1.2171063423156738,-3.178292751312256,-0.12810003757476807
1700958256160003800,19.41900390625,0.5408620834350586,-3.088850498199463,-0.29411405324935913
1700958256176993800,19.435993896484376,-0.3706979751586914,-2.9332547187805176,-0.2998484969139099
1700958256193986000,19.452986083984374,-1.4271488189697266,-3.0241751670837402,-0.8510177135467529
1700958256210978600,19.469978515625,-2.2955241203308105,-3.122821807861328,-1.8124260902404785
1700958256227971000,19.48697119140625,-2.8636577129364014,-3.0063352584838867,-1.5894392728805542
1700958256244961300,19.503961181640626,-2.896648645401001,-2.795560359954834,-0.38835394382476807
1700958256261958700,19.520958740234374,-1.5017728805541992,-1.8930439949035645,0.4620063304901123
1700958256278948900,19.537948974609375,0.1568317413330078,-1.158200740814209,0.00697636604309082
1700958256295939000,19.55493896484375,2.065911293029785,-0.8983311653137207,-0.7641547918319702
1700958256312935700,19.571935791015626,2.5449180603027344,-1.0844364166259766,-1.6398162841796875
1700958256329926000,19.58892578125,2.1475071907043457,-1.1111083030700684,-1.6623632907867432
1700958256346917000,19.605917236328125,1.3949356079101562,-0.9318690299987793,-0.8878642320632935
1700958256363913200,19.622913330078124,1.334704875946045,-0.8092536926269531,-0.49119213223457336
1700958256380903700,19.639903564453125,1.5953421592712402,-0.4367408752441406,-0.7054340839385986
1700958256397895400,19.6568955078125,2.422731399536133,-0.05311775207519531,-0.3693475127220154
1700958256414889700,19.6738896484375,3.5950894355773926,0.014069080352783203,-0.20815375447273254
1700958256431881200,19.690881103515625,4.547353744506836,-0.29330873489379883,-0.4752292037010193
1700958256448873700,19.707873779296875,4.3093719482421875,-0.6242566108703613,-1.1118232011795044
1700958256465879300,19.72487939453125,3.667604446411133,-0.8748130798339844,-1.211747646331787
1700958256482857200,19.741857177734374,3.1662416458129883,-1.0971660614013672,-0.8113417029380798
1700958256499849000,19.758848876953124,3.047219753265381,-1.5425066947937012,-0.6825319528579712
1700958256516843800,19.77584375,3.2028517723083496,-1.7863121032714844,-0.7235084772109985
1700958256533836000,19.7928359375,3.2875046730041504,-2.172060012817383,-1.2253684997558594
1700958256550818000,19.809818115234375,3.1072158813476562,-2.3325610160827637,-1.461762547492981
1700958256567820800,19.82682080078125,2.8217554092407227,-2.228116512298584,-1.4185636043548584
1700958256584814300,19.843814453125,1.421278953552246,-2.6204137802124023,-1.3083268404006958
1700958256601806000,19.86080615234375,0.6987919807434082,-2.403217315673828,-1.1828335523605347
1700958256618798600,19.877798583984376,0.41486406326293945,-2.7354087829589844,-1.1222282648086548
1700958256635791000,19.894791015625,1.2643752098083496,-2.6693811416625977,-0.9082174897193909
