time,seconds_elapsed,z,y,x
1702132565425143600,0.1031435546875,0.4014616012573242,-0.2169952392578125,0.46753990650177
1702132565442136000,0.120135986328125,0.32697105407714844,-0.39606547355651855,0.2795443534851074
1702132565459128600,0.137128662109375,0.5591449737548828,-0.7851030826568604,0.1669914722442627
1702132565476114200,0.1541142578125,1.004124641418457,-1.4273602962493896,0.2421402931213379
1702132565493107200,0.171107177734375,1.268481731414795,-1.7636597156524658,-0.08606958389282227
1702132565510099000,0.188098876953125,0.0218658447265625,-1.640772819519043,-0.6465587615966797
1702132565527085600,0.20508544921875,-2.022110939025879,-1.7993292808532715,-0.7907512187957764
1702132565544078600,0.22207861328125,-3.684842586517334,-1.6888771057128906,-0.5823936462402344
1702132565561068300,0.239068359375,-4.772195339202881,-1.6090459823608398,-0.9010977745056152
1702132565578060300,0.256060302734375,-5.337882041931152,-1.70393705368042,-1.231536865234375
1702132565595044600,0.273044677734375,-5.274738788604736,-1.5418062210083008,-1.065394401550293
1702132565612029700,0.29002978515625,-4.418746471405029,-1.6114535331726074,-1.0241765975952148
1702132565629033700,0.30703369140625,-3.7442660331726074,-1.675178050994873,-0.20328617095947266
1702132565646015000,0.324014892578125,-3.5705244541168213,-1.3164005279541016,0.6727137565612793
1702132565663010600,0.341010498046875,-3.3200912475585938,-0.2931809425354004,0.9891653060913086
1702132565680000800,0.358000732421875,-3.762845039367676,1.013014316558838,0.8024702072143555
1702132565696989700,0.37498974609375,-6.15940523147583,2.13063383102417,1.0156965255737305
1702132565713981700,0.391981689453125,-8.329373359680176,2.3602099418640137,1.804194450378418
1702132565730960400,0.40896044921875,-6.174041748046875,2.452922821044922,3.268159866333008
1702132565747965000,0.42596484375,-1.469740390777588,3.8427796363830566,5.123414516448975
1702132565764959000,0.442958984375,1.5789809226989746,5.193972587585449,7.985018730163574
1702132565781937200,0.459937255859375,2.657042980194092,5.529258728027344,8.736835479736328
1702132565798937900,0.476937744140625,1.6067547798156738,4.9847025871276855,7.550271034240723
1702132565815920000,0.493920166015625,-0.019388675689697266,4.0955047607421875,5.950305938720703
1702132565832914000,0.510913818359375,-1.301877737045288,3.008608341217041,4.3080902099609375
1702132565849895000,0.52789501953125,-1.0475261211395264,1.7921605110168457,1.624150276184082
1702132565866892500,0.544892578125,-0.8151440620422363,0.2930784225463867,-1.4054522514343262
1702132565883881700,0.5618818359375,-0.8734240531921387,-1.2343573570251465,-4.022573471069336
1702132565900867800,0.578867919921875,-1.519911289215088,-2.9637396335601807,-6.241646766662598
1702132565917864700,0.59586474609375,-2.5311074256896973,-4.566478252410889,-8.321757316589355
1702132565934857200,0.612857177734375,-3.820383071899414,-5.831060886383057,-9.686091423034668
1702132565951859000,0.62985888671875,-4.0650954246521,-6.707867622375488,-10.075169563293457
1702132565968837000,0.646837158203125,-3.5891597270965576,-6.475619316101074,-10.389163970947266
1702132565985823500,0.663823486328125,-2.0024800300598145,-5.418294429779053,-9.473395347595215
1702132566002830300,0.680830322265625,-0.19382190704345703,-2.363084316253662,-7.083107948303223
1702132566019805200,0.69780517578125,-0.08730673789978027,1.0779013633728027,0.3973054885864258
1702132566036797200,0.714797119140625,-0.10132169723510742,4.064438819885254,13.716361999511719
1702132566053788000,0.731787841796875,4.520280838012695,6.345106601715088,20.336626052856445
1702132566070777900,0.74877783203125,8.185503005981445,7.2689361572265625,13.805636405944824
1702132566087766000,0.76576611328125,5.3391265869140625,6.370779991149902,3.0478639602661133
1702132566104750000,0.78275,-1.5707592964172363,3.687749147415161,-3.9751052856445312
1702132566121748500,0.79974853515625,-6.670337200164795,0.37133049964904785,-8.078377723693848
1702132566138740500,0.816740478515625,-7.600218772888184,-1.3964704275131226,-10.294309616088867
1702132566155726300,0.833726318359375,-6.162570953369141,-1.3360615968704224,-11.156330108642578
1702132566172718300,0.85071826171875,-3.6884102821350098,-0.2446436882019043,-8.92489242553711
1702132566189712100,0.867712158203125,-0.7497696876525879,2.8255858421325684,-5.885599613189697
1702132566206690600,0.884690673828125,0.3803997039794922,5.408186912536621,1.939178466796875
1702132566223688400,0.9016884765625,-0.06907343864440918,8.011927604675293,9.83951473236084
1702132566240684300,0.918684326171875,-1.5974042415618896,10.286516189575195,14.967171669006348
1702132566257668400,0.93566845703125,0.3320457935333252,11.387334823608398,16.26899528503418
1702132566274661000,0.9526611328125,3.1210029125213623,11.60453987121582,15.144567489624023
1702132566291652600,0.969652587890625,1.2903811931610107,10.554635047912598,11.51716423034668
1702132566308640500,0.986640625,-3.2271077632904053,9.369351387023926,8.721968650817871
1702132566325631700,1.0036318359375,-4.471312522888184,8.869882583618164,9.033613204956055
1702132566342623500,1.02062353515625,-2.028913974761963,7.889203071594238,11.986871719360352
1702132566359614000,1.037614013671875,1.1204025745391846,5.950716495513916,13.645172119140625
1702132566376600600,1.0546005859375,2.5314621925354004,3.4804701805114746,12.853191375732422
1702132566393592800,1.0715927734375,1.7478917837142944,0.6006288528442383,11.107542037963867
1702132566410576000,1.088575927734375,0.4390239715576172,-1.4856500625610352,9.13209342956543
1702132566427569000,1.10556884765625,-0.42205682396888733,-3.512739896774292,8.13696002960205
1702132566444567600,1.122567626953125,0.6800869107246399,-5.309228420257568,7.3974761962890625
1702132566461555000,1.139554931640625,2.757683277130127,-6.683869361877441,6.679526329040527
1702132566478546200,1.156546142578125,3.5322725772857666,-8.010213851928711,6.608681678771973
1702132566495532500,1.173532470703125,3.165243148803711,-10.247729301452637,6.570420265197754
1702132566512525300,1.190525390625,2.9118452072143555,-12.21202278137207,5.431911468505859
1702132566529517600,1.207517578125,1.9440051317214966,-12.952393531799316,3.53304123878479
1702132566546503700,1.224503662109375,0.8531597256660461,-12.607240676879883,2.2383766174316406
1702132566563485700,1.241485595703125,0.4008769989013672,-12.153779029846191,1.985719919204712
1702132566580488200,1.25848828125,-0.18420064449310303,-12.31025505065918,2.5039567947387695
1702132566597474600,1.275474609375,-0.6238529086112976,-12.375519752502441,3.5167136192321777
1702132566614465500,1.292465576171875,-1.0260318517684937,-12.216226577758789,3.9739413261413574
1702132566631459600,1.30945947265625,-0.8548613786697388,-11.337675094604492,3.4693944454193115
1702132566648438500,1.3264384765625,-1.2601902484893799,-9.927825927734375,1.9615758657455444
1702132566665433300,1.343433349609375,-1.7595374584197998,-10.013090133666992,0.9553604125976562
1702132566682430500,1.360430419921875,-0.8598271012306213,-10.32855224609375,1.3865506649017334
1702132566699421200,1.377421142578125,-0.5411381721496582,-10.026500701904297,1.4437215328216553
1702132566716406800,1.39440673828125,-0.9248842000961304,-10.10930347442627,0.9253435134887695
1702132566733399300,1.4113994140625,0.04819846153259277,-9.616131782531738,0.8469820618629456
1702132566750391300,1.428391357421875,1.0782232284545898,-8.981117248535156,0.6363016366958618
1702132566767370000,1.445369873046875,0.5065767765045166,-8.794588088989258,-0.7111308574676514
1702132566784371000,1.462370849609375,-0.5442054271697998,-8.845294952392578,-2.0324387550354004
1702132566801361000,1.47936083984375,-0.8077912330627441,-10.182307243347168,-2.5665788650512695
1702132566818352600,1.4963525390625,0.7310562133789062,-11.048349380493164,-1.9471838474273682
1702132566835338500,1.51333837890625,2.53939151763916,-9.637641906738281,-0.5821096897125244
1702132566852331300,1.530331298828125,3.669562816619873,-9.061067581176758,1.025031566619873
1702132566869325800,1.547325927734375,3.6468801498413086,-9.319878578186035,1.257007122039795
1702132566886307300,1.564307373046875,2.32718563079834,-10.849678993225098,1.443039894104004
1702132566903302100,1.58130224609375,4.646288871765137,-10.879549026489258,2.703495979309082
1702132566920294100,1.598294189453125,8.115463256835938,-10.728593826293945,6.951992034912109
1702132566937273300,1.6152734375,12.578790664672852,-9.329524993896484,9.107991218566895
1702132566954274300,1.6322744140625,17.888933181762695,-7.5177001953125,10.668049812316895
1702132566971263200,1.64926318359375,20.294757843017578,-5.464557647705078,7.665597915649414
1702132566988255500,1.66625537109375,20.010801315307617,-4.994527816772461,4.959165573120117
1702132567005241600,1.68324169921875,19.50709342956543,-5.738222122192383,7.536167144775391
1702132567022234600,1.700234619140625,20.78175163269043,-5.906771659851074,9.560639381408691
1702132567039226400,1.717226318359375,24.002445220947266,-5.515600204467773,10.620207786560059
1702132567056212700,1.734212646484375,24.26190757751465,-4.9881744384765625,11.653939247131348
1702132567073207800,1.751207763671875,21.027631759643555,-7.376904487609863,12.75179672241211
1702132567090186200,1.768186279296875,19.08051109313965,-9.449127197265625,13.081802368164062
1702132567107188000,1.78518798828125,17.632991790771484,-10.054460525512695,16.811330795288086
1702132567124177000,1.802177001953125,16.39186668395996,-9.435891151428223,21.627668380737305
1702132567141167000,1.8191669921875,15.780207633972168,-10.462574005126953,24.802095413208008
1702132567158162000,1.836161865234375,12.7437162399292,-12.090034484863281,27.326129913330078
1702132567175145000,1.85314501953125,8.126384735107422,-12.723392486572266,28.907052993774414
1702132567192132400,1.87013232421875,2.9810128211975098,-11.286823272705078,27.736692428588867
1702132567209129500,1.88712939453125,-0.5674648284912109,-9.446313858032227,28.20706558227539
1702132567226115800,1.90411572265625,0.6322660446166992,-8.080531120300293,27.840219497680664
1702132567243108000,1.921108154296875,1.2966642379760742,-7.161752700805664,28.80786895751953
1702132567260100000,1.93810009765625,0.08380508422851562,-6.047656059265137,30.071168899536133
1702132567277086500,1.95508642578125,-2.8768701553344727,-5.781158447265625,31.58457374572754
1702132567294080300,1.972080322265625,-5.3091840744018555,-6.215314865112305,29.375009536743164
1702132567311069200,1.989069091796875,-8.942292213439941,-5.6991095542907715,23.585250854492188
1702132567328068600,2.006068603515625,-11.802680969238281,-4.455686092376709,18.326337814331055
1702132567345048000,2.023048095703125,-12.043672561645508,-3.737295627593994,14.227153778076172
1702132567362040600,2.04004052734375,-11.952880859375,-3.9719717502593994,15.233940124511719
1702132567379032300,2.0570322265625,-13.166791915893555,-3.630802631378174,16.204883575439453
1702132567396018400,2.074018310546875,-15.075895309448242,-2.8131258487701416,11.911497116088867
1702132567413011500,2.091011474609375,-17.42487144470215,-2.45414400100708,6.293963432312012
1702132567430003500,2.10800341796875,-16.97599983215332,-1.8512558937072754,4.572153568267822
1702132567446989300,2.1249892578125,-13.829105377197266,-0.8886258006095886,4.505450248718262
1702132567463982800,2.14198291015625,-10.803669929504395,-0.34979891777038574,3.4492745399475098
1702132567480972500,2.15897265625,-9.138591766357422,-0.3025110960006714,0.8405055999755859
1702132567497963800,2.1759638671875,-9.374186515808105,-0.16670525074005127,-1.5573005676269531
1702132567514958000,2.1929580078125,-7.642272472381592,-0.3269544839859009,-0.3054542541503906
1702132567531940600,2.209940673828125,-5.256832599639893,-0.14606904983520508,1.7079763412475586
1702132567548926200,2.22692626953125,-2.9341540336608887,0.8689262866973877,1.8255186080932617
1702132567565921800,2.243921875,-1.3259203433990479,1.7870380878448486,1.6697883605957031
1702132567582914600,2.26091455078125,-1.3694229125976562,2.007413625717163,2.013129234313965
1702132567599904300,2.277904296875,-1.086921215057373,1.260448694229126,3.1947708129882812
1702132567616893400,2.2948935546875,-0.8929853439331055,0.7266690731048584,4.1136603355407715
1702132567633883100,2.311883056640625,-0.20957279205322266,0.4557468891143799,3.60469126701355
1702132567650873000,2.328873046875,0.5907449722290039,0.21181583404541016,2.5770926475524902
1702132567667865900,2.345865966796875,0.34501218795776367,0.2916572093963623,2.8757166862487793
1702132567684857600,2.362857666015625,0.2854599952697754,0.029189109802246094,3.8644633293151855
1702132567701846800,2.3798466796875,-0.24236583709716797,-0.32767248153686523,4.9633965492248535
1702132567718838000,2.396838134765625,-0.9132542610168457,-0.9123716354370117,5.350103855133057
1702132567735824600,2.41382470703125,-0.260286808013916,-1.6885461807250977,4.768980979919434
1702132567752817200,2.430817138671875,0.0006842613220214844,-1.6327481269836426,3.9298791885375977
1702132567769809000,2.447808837890625,-1.1130051612854004,-2.6092262268066406,2.9604222774505615
1702132567786793000,2.46479296875,-2.6315181255340576,-3.1382060050964355,4.385080337524414
1702132567803792000,2.4817919921875,-4.626551628112793,-4.12017822265625,6.569128513336182
1702132567820778500,2.498778564453125,-4.746347427368164,-4.2715559005737305,6.754951477050781
1702132567837767400,2.515767333984375,-3.155163049697876,-4.2020263671875,7.458866596221924
1702132567854766300,2.532766357421875,-0.33283042907714844,-4.0745463371276855,7.753851890563965
1702132567871749400,2.549749267578125,1.0291690826416016,-3.285186290740967,7.9196929931640625
1702132567888741000,2.5667412109375,1.1883525848388672,-3.382025718688965,8.590532302856445
1702132567905728000,2.58372802734375,-0.5839228630065918,-3.1904728412628174,8.691883087158203
1702132567922720000,2.600719970703125,-3.109626054763794,-3.389106035232544,8.588607788085938
1702132567939712000,2.6177119140625,-4.397403717041016,-3.226301670074463,7.084885120391846
1702132567956691500,2.63469140625,-2.5789244174957275,-1.8970718383789062,4.715112686157227
1702132567973697300,2.651697265625,-0.10331296920776367,-0.7350549697875977,3.6847469806671143
1702132567990677200,2.66867724609375,1.7494654655456543,0.5039844512939453,5.1147050857543945
1702132568007669500,2.68566943359375,-0.3890666961669922,1.3972926139831543,5.8397674560546875
1702132568024660500,2.702660400390625,-3.9249401092529297,2.1274666786193848,5.812518119812012
1702132568041655600,2.719655517578125,-3.6278209686279297,3.029216766357422,4.792325973510742
1702132568058643200,2.736643310546875,-1.3837862014770508,3.7277421951293945,3.3229494094848633
1702132568075630800,2.753630859375,0.9488797187805176,6.074008464813232,3.4791812896728516
1702132568092624100,2.7706240234375,1.7353296279907227,8.366628646850586,7.4507317543029785
1702132568109615900,2.787615966796875,2.440406322479248,9.680054664611816,11.55411434173584
1702132568126596900,2.804596923828125,4.019591808319092,11.275262832641602,11.932782173156738
1702132568143598000,2.82159814453125,4.816197395324707,12.711311340332031,9.91744613647461
1702132568160586200,2.838586181640625,5.72411584854126,13.21090316772461,9.3980131149292
1702132568177572600,2.855572509765625,6.195389747619629,12.567479133605957,9.58698558807373
1702132568194565600,2.872565673828125,5.978478908538818,11.223917961120605,7.992714881896973
1702132568211555600,2.8895556640625,5.095466613769531,9.965189933776855,5.043225288391113
1702132568228547300,2.90654736328125,4.372011661529541,8.501788139343262,2.3738393783569336
1702132568245534000,2.923533935546875,3.3997726440429688,6.802330017089844,0.5714406967163086
1702132568262526200,2.940526123046875,2.3493661880493164,4.775975227355957,-0.4508194923400879
1702132568279516700,2.9575166015625,1.8694193363189697,3.047607183456421,-1.072038173675537
1702132568296504600,2.974504638671875,1.2785086631774902,1.226393699645996,-2.142124652862549
1702132568313497600,2.99149755859375,0.6900475025177002,-0.44876813888549805,-3.800797462463379
1702132568330488800,3.00848876953125,0.5167455673217773,-2.074531316757202,-5.607828617095947
1702132568347463400,3.02546337890625,-0.24272918701171875,-3.452489137649536,-7.311553478240967
1702132568364471800,3.042471923828125,-1.474095344543457,-4.679592609405518,-8.599092483520508
1702132568381456000,3.059455810546875,-1.989094853401184,-5.899899005889893,-9.609539985656738
1702132568398450000,3.076449951171875,-1.132232666015625,-5.78676700592041,-10.28228759765625
1702132568415436500,3.0934365234375,-0.49507856369018555,-4.256031513214111,-10.3891019821167
1702132568432429300,3.11042919921875,0.40965986251831055,-1.4260973930358887,-8.301186561584473
1702132568449412900,3.127412841796875,0.2539670467376709,1.217639446258545,-0.9806790351867676
1702132568466410200,3.14441015625,-0.7816240787506104,2.1773366928100586,9.644783973693848
1702132568483401200,3.161401123046875,1.1821918487548828,2.370882511138916,12.311076164245605
1702132568500391400,3.178391357421875,3.400824546813965,4.31058406829834,5.8357744216918945
1702132568517382000,3.1953818359375,2.7256112098693848,4.819478988647461,-0.2279062271118164
1702132568534372000,3.2123720703125,-0.2726783752441406,3.500239849090576,-3.490767002105713
1702132568551362600,3.229362548828125,-3.222181558609009,1.2733769416809082,-5.285292625427246
1702132568568341000,3.246341064453125,-3.9789671897888184,-0.6033203601837158,-6.80699348449707
1702132568585332500,3.26333251953125,-3.4784350395202637,-1.6726837158203125,-8.232719421386719
1702132568602335000,3.2803349609375,-2.8506340980529785,-2.3781747817993164,-8.757391929626465
1702132568619323600,3.29732373046875,-2.112090587615967,-2.069891929626465,-8.075769424438477
1702132568636313900,3.31431396484375,-1.5373644828796387,-1.3051815032958984,-7.087799072265625
1702132568653304600,3.3313046875,-2.153381586074829,-0.2962775230407715,-4.963470458984375
1702132568670294000,3.3482939453125,-2.0211124420166016,-0.316303014755249,0.12137603759765625
1702132568687284700,3.36528466796875,-0.3837451934814453,0.6337941884994507,4.022775650024414
1702132568704275000,3.38227490234375,1.6010732650756836,2.3559107780456543,5.005767822265625
1702132568721265700,3.399265625,1.2362728118896484,4.459752082824707,4.59151554107666
1702132568738255600,3.416255615234375,-1.6980724334716797,5.598535537719727,6.3706512451171875
1702132568755246000,3.43324609375,-2.983668327331543,6.2321391105651855,9.54818058013916
1702132568772235800,3.45023583984375,-1.565809965133667,7.024791240692139,11.178765296936035
1702132568789226800,3.467226806640625,1.4832758903503418,9.094059944152832,9.693771362304688
1702132568806216400,3.484216552734375,1.0949583053588867,10.715242385864258,8.92713451385498
1702132568823208700,3.501208740234375,-3.6384029388427734,11.263900756835938,11.982085227966309
1702132568840193500,3.518193603515625,-5.537418365478516,9.917609214782715,18.856929779052734
1702132568857190700,3.535190673828125,-3.0219011306762695,7.775874137878418,23.85295867919922
1702132568874178000,3.552177978515625,-0.2850525379180908,5.87877893447876,21.521095275878906
1702132568891168500,3.56916845703125,1.5274670124053955,3.958374261856079,16.52399253845215
1702132568908146400,3.586146484375,0.7212879657745361,1.528092861175537,12.230406761169434
1702132568925151700,3.60315185546875,0.12338364124298096,-0.7681097984313965,8.9634428024292
1702132568942139000,3.620138916015625,0.37076258659362793,-3.250941038131714,7.610599517822266
1702132568959122700,3.637122802734375,1.1873133182525635,-6.011628150939941,6.911407947540283
1702132568976128300,3.654128173828125,2.279371738433838,-7.799533843994141,4.990793228149414
1702132568993110300,3.6711103515625,2.4721829891204834,-9.230598449707031,3.1344094276428223
1702132569010100200,3.688100341796875,2.944343090057373,-10.6763916015625,2.1514077186584473
1702132569027088000,3.705087890625,3.733450174331665,-12.279869079589844,0.9862275123596191
1702132569044084000,3.722083984375,2.9442331790924072,-13.46394157409668,-0.47885823249816895
1702132569061069000,3.739069091796875,1.787680983543396,-13.481095314025879,-1.025519609451294
1702132569078064000,3.756064208984375,0.785120964050293,-13.497474670410156,-0.2234506607055664
1702132569095052300,3.77305224609375,0.3100264072418213,-13.144729614257812,1.4517598152160645
1702132569112042500,3.79004248046875,-0.24258637428283691,-12.846807479858398,2.2514448165893555
1702132569129022200,3.807022216796875,-0.7240028381347656,-12.324091911315918,1.9998037815093994
1702132569146022700,3.824022705078125,-0.7895398139953613,-11.416509628295898,1.6245955228805542
1702132569163013000,3.84101318359375,-1.6332213878631592,-10.591629028320312,1.6327729225158691
1702132569180003600,3.858003662109375,-2.1646475791931152,-9.922883987426758,2.002833366394043
1702132569196994000,3.874994140625,-1.6986137628555298,-9.721558570861816,4.091693878173828
1702132569213983700,3.891983642578125,-0.694243311882019,-10.140181541442871,5.89959192276001
1702132569230974200,3.90897412109375,0.17447824776172638,-10.083678245544434,5.0536627769470215
1702132569247964400,3.92596435546875,0.7416111826896667,-9.421263694763184,2.3477537631988525
1702132569264955400,3.942955322265625,1.3548893928527832,-8.222030639648438,-1.3571001291275024
1702132569281945000,3.959945068359375,2.7252912521362305,-6.581921577453613,-3.825655698776245
1702132569298926600,3.976926513671875,3.756025791168213,-4.981778144836426,-3.5690786838531494
1702132569315915000,3.9939150390625,3.6263844966888428,-5.035300254821777,-2.4242653846740723
1702132569332916700,4.010916748046875,2.708390712738037,-6.372312545776367,-1.7544529438018799
1702132569349895700,4.027895751953125,1.7859549522399902,-7.7550458908081055,-1.9689288139343262
1702132569366897000,4.04489697265625,1.4886884689331055,-8.422628402709961,-2.712985038757324
1702132569383887400,4.061887451171875,3.0845608711242676,-6.555905342102051,-2.062656879425049
1702132569400877800,4.0788779296875,5.033761501312256,-5.981402397155762,-0.4195880889892578
1702132569417867500,4.095867431640625,3.9933719635009766,-6.920506954193115,0.48714113235473633
1702132569434855700,4.112855712890625,3.0156102180480957,-8.148865699768066,0.5698833465576172
1702132569451840000,4.129840087890625,3.8844597339630127,-8.115339279174805,0.21956205368041992
1702132569468839000,4.1468388671875,6.765598773956299,-8.42959976196289,2.4886112213134766
1702132569485828600,4.16382861328125,9.652854919433594,-8.225030899047852,5.860100746154785
1702132569502819000,4.180819091796875,13.14739990234375,-5.765965461730957,4.80423641204834
1702132569519806700,4.197806640625,13.851860046386719,-4.76538610458374,1.4083948135375977
1702132569536799000,4.214799072265625,12.57736587524414,-6.028189659118652,-0.7358512878417969
1702132569553789000,4.231788818359375,14.113922119140625,-9.384333610534668,0.7269783020019531
1702132569570781400,4.248781494140625,17.743070602416992,-11.570194244384766,4.158478736877441
1702132569587770600,4.2657705078125,19.55064582824707,-10.800538063049316,5.890512466430664
1702132569604761000,4.282760986328125,20.85528564453125,-8.972159385681152,5.382801055908203
1702132569621750800,4.299750732421875,18.024436950683594,-7.595817565917969,3.9719533920288086
1702132569638741800,4.31674169921875,13.881396293640137,-8.244647979736328,5.417838096618652
1702132569655731700,4.333731689453125,12.715373992919922,-9.68082332611084,9.121957778930664
1702132569672722200,4.35072216796875,12.973798751831055,-10.850566864013672,12.394388198852539
1702132569689712400,4.36771240234375,14.99349308013916,-11.00600814819336,13.658197402954102
1702132569706702600,4.38470263671875,14.566913604736328,-11.09753131866455,14.514034271240234
1702132569723686700,4.401686767578125,11.401728630065918,-12.059959411621094,17.15642547607422
1702132569740679700,4.4186796875,10.014403343200684,-11.984514236450195,19.57113265991211
1702132569757673500,4.435673583984375,11.591537475585938,-11.957965850830078,23.559520721435547
1702132569774663700,4.45266357421875,10.815875053405762,-10.788406372070312,24.05032730102539
1702132569791652000,4.469652099609375,6.223275661468506,-8.707950592041016,22.960460662841797
1702132569808647200,4.486647216796875,3.2552032470703125,-6.976723670959473,25.835901260375977
1702132569825634600,4.503634521484375,4.3125200271606445,-5.735152721405029,28.45748519897461
1702132569842624800,4.520624755859375,5.264318466186523,-5.072598934173584,28.52280044555664
1702132569859625200,4.537625244140625,0.9660673141479492,-3.644075393676758,26.18805694580078
1702132569876595200,4.55459521484375,-5.479588031768799,-1.7337584495544434,22.936647415161133
1702132569893596000,4.571595947265625,-7.141536235809326,-1.108137607574463,21.035789489746094
1702132569910586000,4.588586181640625,-3.4373106956481934,-1.1153740882873535,19.806955337524414
1702132569927565600,4.605565673828125,-4.095312595367432,1.1450492143630981,18.03849983215332
1702132569944564700,4.622564697265625,-8.77733325958252,2.918867349624634,16.77750015258789
1702132569961559600,4.6395595703125,-11.638647079467773,2.937385320663452,15.655574798583984
1702132569978547700,4.656547607421875,-9.379138946533203,0.8389682769775391,13.624183654785156
1702132569995537700,4.67353759765625,-7.5965256690979,-0.11723637580871582,11.085771560668945
1702132570012525000,4.690525146484375,-9.813214302062988,0.7048235535621643,10.737414360046387
1702132570029514200,4.70751416015625,-11.168437004089355,1.536266803741455,10.061506271362305
1702132570046513200,4.72451318359375,-10.090681076049805,2.1655240058898926,8.039363861083984
1702132570063484700,4.741484619140625,-8.181983947753906,2.5463309288024902,5.867766380310059
1702132570080494000,4.758494140625,-7.239250183105469,3.7347328662872314,3.7811546325683594
1702132570097479000,4.77547900390625,-6.8670759201049805,3.9505860805511475,3.581963062286377
1702132570114470100,4.79247021484375,-5.172350883483887,3.255690574645996,3.090458869934082
1702132570131460600,4.809460693359375,-2.4897842407226562,2.7961859703063965,3.3169140815734863
1702132570148440600,4.826440673828125,-1.3450498580932617,3.084686040878296,3.240187644958496
1702132570165430000,4.843429931640625,-1.7421250343322754,4.189794540405273,1.4179368019104004
1702132570182430500,4.860430419921875,-2.3788490295410156,3.8500332832336426,0.7393693923950195
1702132570199422200,4.877422119140625,-0.8232991695404053,2.622967004776001,1.283613681793213
1702132570216412000,4.894411865234375,0.539311408996582,1.674662470817566,1.0051822662353516
1702132570233401600,4.911401611328125,1.0931658744812012,1.2900174856185913,0.256500244140625
1702132570250392300,4.928392333984375,0.290860652923584,1.8759959936141968,-0.11985301971435547
1702132570267382500,4.945382568359375,-1.1125810146331787,1.4610202312469482,0.8116106986999512
1702132570284373200,4.962373291015625,-0.09385156631469727,-0.04043276607990265,1.8657102584838867
1702132570301362700,4.97936279296875,2.3588380813598633,-0.6277292966842651,2.0990471839904785
1702132570318346800,4.9963466796875,1.9349427223205566,-0.0864088237285614,1.5701723098754883
1702132570335344000,5.01334423828125,-0.33077430725097656,0.2970758080482483,0.8776512145996094
1702132570352333800,5.030333740234375,-1.0604982376098633,0.23596450686454773,0.1321420669555664
1702132570369324000,5.047323974609375,-0.7168335914611816,-0.18432265520095825,0.9372658729553223
1702132570386311000,5.064310791015625,0.2501988410949707,-0.4559832811355591,2.695796489715576
1702132570403308500,5.08130859375,0.8232688903808594,-0.3722735047340393,3.9127635955810547
1702132570420295700,5.098295654296875,0.7917799949645996,-0.01777780055999756,3.8692994117736816
1702132570437285400,5.115285400390625,0.4050722122192383,0.4506199359893799,2.3410634994506836
1702132570454273500,5.1322734375,-0.3916044235229492,1.103159785270691,1.745370864868164
1702132570471258600,5.149258544921875,-1.1751761436462402,1.0478272438049316,3.315420627593994
1702132570488256800,5.1662568359375,-1.1992707252502441,0.5429730415344238,6.045107364654541
1702132570505246500,5.18324658203125,-1.5010271072387695,0.027026772499084473,7.557978630065918
1702132570522237000,5.20023681640625,-1.628880500793457,-0.3472323417663574,6.815025329589844
1702132570539227400,5.217227294921875,-1.5176782608032227,-0.588599681854248,5.077107906341553
1702132570556217900,5.2342177734375,-2.2590222358703613,-1.1451884508132935,4.929372310638428
1702132570573207600,5.25120751953125,-3.3433115482330322,-1.602720856666565,7.461949825286865
1702132570590198300,5.2681982421875,-3.6222543716430664,-2.4866108894348145,10.414498329162598
1702132570607188700,5.285188720703125,-2.561748504638672,-2.626951217651367,9.984832763671875
1702132570624179200,5.30217919921875,-1.806166648864746,-2.4674487113952637,6.551726341247559
1702132570641168400,5.31916845703125,-2.848285675048828,-2.205101251602173,3.967989683151245
1702132570658159600,5.33615966796875,-4.393896579742432,-1.6613759994506836,4.533458709716797
1702132570675149800,5.35314990234375,-3.80877947807312,-0.21370601654052734,6.45355224609375
1702132570692140300,5.370140380859375,-2.440816879272461,1.064558506011963,6.537777423858643
1702132570709130200,5.387130126953125,-2.157597541809082,1.509504795074463,5.389788627624512
1702132570726118100,5.4041181640625,-2.6111927032470703,0.5095396041870117,5.003794193267822
1702132570743113700,5.42111376953125,-1.568880558013916,0.42430591583251953,6.623741149902344
1702132570760100600,5.4381005859375,0.3502192497253418,1.5295119285583496,8.740633964538574
1702132570777092400,5.45509228515625,2.144158363342285,3.0232996940612793,7.3892107009887695
1702132570794071300,5.4720712890625,2.113553524017334,3.300227165222168,5.149342060089111
1702132570811069700,5.489069580078125,0.5491771697998047,2.8607826232910156,4.738677501678467
1702132570828065300,5.506065185546875,-0.6630644798278809,2.1921114921569824,4.496642112731934
1702132570845052400,5.523052490234375,0.40695619583129883,2.8813295364379883,3.131371021270752
1702132570862045200,5.540045166015625,1.8639121055603027,4.701809883117676,1.4264883995056152
1702132570879031600,5.557031494140625,3.2706284523010254,5.3277201652526855,2.792675495147705
1702132570896013300,5.574013427734375,4.456358909606934,5.017535209655762,4.163332462310791
1702132570913013500,5.591013427734375,1.04486083984375,6.577643394470215,4.203834056854248
1702132570930004200,5.608004150390625,-1.1788575649261475,6.507329940795898,5.576876640319824
1702132570946994700,5.62499462890625,2.9016873836517334,6.484297275543213,6.964058876037598
1702132570963991800,5.64199169921875,8.118534088134766,7.97820520401001,8.542041778564453
1702132570980974600,5.658974609375,8.229774475097656,10.213386535644531,9.912025451660156
1702132570997949200,5.67594921875,5.133238792419434,10.430039405822754,11.468684196472168
1702132571014955800,5.692955810546875,2.513035774230957,9.431546211242676,9.910883903503418
1702132571031944400,5.7099443359375,2.2001771926879883,8.717676162719727,6.145676612854004
1702132571048937500,5.7269375,2.0737409591674805,8.517133712768555,4.191359519958496
1702132571065926400,5.743926513671875,2.8811142444610596,7.700798511505127,4.247917175292969
1702132571082916600,5.76091650390625,4.570042133331299,6.865420818328857,5.445462226867676
1702132571099907600,5.777907470703125,4.399786949157715,5.7257466316223145,5.548907279968262
1702132571116894000,5.79489404296875,1.826723575592041,3.690291404724121,3.4781532287597656
1702132571133887700,5.8118876953125,0.6206490993499756,1.157402515411377,0.7951335906982422
1702132571150878000,5.8288779296875,0.4028739929199219,-1.329430103302002,-2.1360740661621094
1702132571167868400,5.845868408203125,0.2685050964355469,-3.0387122631073,-4.516615390777588
1702132571184858600,5.862858642578125,0.26613640785217285,-4.411494731903076,-5.081624984741211
1702132571201840400,5.87984033203125,0.6788411140441895,-5.406834602355957,-5.065638542175293
1702132571218839300,5.89683935546875,0.4406261444091797,-6.3927483558654785,-5.095599174499512
1702132571235819300,5.9138193359375,-0.14738917350769043,-7.487580299377441,-5.353732109069824
1702132571252819700,5.93081982421875,-0.5164241790771484,-8.377313613891602,-5.976727485656738
1702132571269800700,5.94780078125,-1.082855463027954,-8.844823837280273,-7.174829483032227
1702132571286800600,5.964800537109375,-1.9447119235992432,-8.712766647338867,-8.78297233581543
1702132571303780900,5.98178076171875,-2.4599556922912598,-8.634401321411133,-10.10551643371582
1702132571320781000,5.998781005859375,-1.7800215482711792,-8.515485763549805,-10.224456787109375
1702132571337771500,6.015771484375,-1.2469713687896729,-7.5597381591796875,-9.868936538696289
1702132571354761700,6.03276171875,-1.6521828174591064,-6.22490119934082,-8.200669288635254
1702132571371749600,6.04974951171875,-2.9236717224121094,-4.234729766845703,-5.049350261688232
1702132571388744700,6.06674462890625,-3.351893186569214,-2.7281644344329834,-0.5800824165344238
1702132571405732600,6.083732666015625,0.028898954391479492,-0.2995152473449707,6.577195644378662
1702132571422723000,6.10072314453125,5.020685195922852,3.7443437576293945,14.244170188903809
1702132571439713500,6.117713623046875,8.146574020385742,7.160578727722168,16.830108642578125
1702132571456694000,6.134694091796875,6.910041809082031,9.033575057983398,15.371587753295898
1702132571473693700,6.151693603515625,2.832484483718872,8.29688549041748,10.622380256652832
1702132571490683400,6.168683349609375,-0.3909473419189453,6.565727710723877,4.463771820068359
1702132571507675400,6.18567529296875,-0.7853071689605713,4.174063682556152,0.09131145477294922
1702132571524664600,6.20266455078125,-1.353487253189087,2.384293794631958,-1.752734661102295
1702132571541655000,6.219655029296875,-1.7601138353347778,0.8310327529907227,-2.7963204383850098
1702132571558645200,6.236645263671875,-1.5223731994628906,-0.3792414665222168,-4.060811996459961
1702132571575618300,6.253618408203125,-1.2464203834533691,-1.4696943759918213,-5.362462520599365
1702132571592623000,6.270623046875,-1.5240628719329834,-2.105372428894043,-6.785340785980225
1702132571609618700,6.28761865234375,-2.081732749938965,-2.3202016353607178,-8.077996253967285
1702132571626606600,6.304606689453125,-2.8315775394439697,-2.4178922176361084,-9.09221363067627
1702132571643597000,6.32159716796875,-3.323543071746826,-3.1643080711364746,-9.920889854431152
1702132571660584200,6.338584228515625,-1.509742021560669,-4.048654079437256,-9.055179595947266
1702132571677583400,6.355583251953125,-0.5160849094390869,-4.004870891571045,-5.396415710449219
1702132571694564600,6.372564697265625,-1.0697298049926758,-3.4854936599731445,-0.8944954872131348
1702132571711556900,6.389556884765625,-1.9175156354904175,-1.7071435451507568,0.762995719909668
1702132571728549400,6.40654931640625,-0.2896573543548584,-0.1596848964691162,1.5158109664916992
1702132571745538300,6.423538330078125,2.273756504058838,1.7744033336639404,2.944460868835449
1702132571762525700,6.440525634765625,0.46012330055236816,3.128366470336914,5.899674415588379
1702132571779522000,6.45752197265625,-2.8502814769744873,3.840506076812744,10.330730438232422
1702132571796509200,6.47450927734375,-0.18330740928649902,4.98496675491333,17.773681640625
1702132571813499600,6.491499755859375,2.637305498123169,7.759873390197754,19.517345428466797
1702132571830490000,6.508489990234375,2.7037692070007324,8.788268089294434,13.543017387390137
1702132571847479600,6.5254794921875,-1.945253610610962,8.478464126586914,8.452325820922852
1702132571864470000,6.542469970703125,-5.454267978668213,6.980473041534424,7.82942008972168
1702132571881446400,6.5594462890625,-3.9721479415893555,3.8357653617858887,8.953964233398438
1702132571898436400,6.576436279296875,-0.8350343704223633,0.9373805522918701,6.2764997482299805
1702132571915441700,6.593441650390625,0.7640776634216309,-1.9830102920532227,1.9281015396118164
1702132571932429800,6.610429931640625,1.0041415691375732,-5.356494903564453,-2.0404748916625977
1702132571949423900,6.627423828125,0.2894172668457031,-8.494853973388672,-5.098134994506836
1702132571966412000,6.644412109375,-1.2473634481430054,-10.927169799804688,-7.439484119415283
1702132571983403000,6.661403076171875,-2.892646074295044,-12.03172492980957,-9.389554977416992
1702132572000392700,6.678392822265625,-3.558609962463379,-11.264656066894531,-11.049551010131836
1702132572017383400,6.695383544921875,-3.2724318504333496,-9.311079025268555,-13.22465705871582
1702132572034373600,6.71237353515625,-1.079291820526123,-7.098300933837891,-14.366792678833008
1702132572051364000,6.729364013671875,1.132096290588379,-4.194394111633301,-8.740814208984375
1702132572068354000,6.74635400390625,1.169569492340088,-1.2022919654846191,1.9859561920166016
1702132572085331700,6.763331787109375,0.19704365730285645,4.617383003234863,15.052286148071289
1702132572102325000,6.780324951171875,2.865288734436035,10.18283462524414,26.612873077392578
1702132572119315200,6.797315185546875,7.321746826171875,15.490097045898438,31.298015594482422
1702132572136306000,6.814305908203125,5.843695640563965,17.310508728027344,23.836177825927734
1702132572153296400,6.83129638671875,-2.130857467651367,15.54246997833252,13.560750007629395
1702132572170289400,6.848289306640625,-7.932158946990967,12.665960311889648,9.107842445373535
1702132572187278300,6.8652783203125,-6.624361038208008,9.285877227783203,10.504962921142578
1702132572204269000,6.88226904296875,-3.8615360260009766,5.196966171264648,11.128535270690918
1702132572221259500,6.899259521484375,-1.7048909664154053,0.8812928199768066,9.035070419311523
1702132572238247200,6.9162470703125,-0.8642831444740295,-3.400184154510498,4.542481899261475
1702132572255241500,6.933241455078125,-1.4683301448822021,-6.648892879486084,1.1194071769714355
1702132572272231000,6.95023095703125,-1.1669676303863525,-8.261802673339844,0.22018146514892578
1702132572289221000,6.96722119140625,0.4045838713645935,-8.683178901672363,1.130706787109375
1702132572306210300,6.984210205078125,2.8689870834350586,-8.679523468017578,2.463254928588867
1702132572323200500,7.001200439453125,3.843662738800049,-9.34736442565918,4.431038856506348
1702132572340191500,7.01819140625,2.848646402359009,-10.514421463012695,5.742114067077637
1702132572357179100,7.03517919921875,2.3628411293029785,-10.561416625976562,4.631991863250732
1702132572374170600,7.052170654296875,3.4453248977661133,-8.525904655456543,1.342076301574707
1702132572391170000,7.069170166015625,3.2064623832702637,-6.397435665130615,-0.74521803855896
1702132572408159700,7.08615966796875,1.7244112491607666,-6.52459716796875,0.7652456760406494
1702132572425150500,7.103150390625,0.9976968765258789,-7.717336177825928,3.5220556259155273
1702132572442141000,7.120140869140625,0.47675228118896484,-9.730239868164062,5.285506248474121
1702132572459131100,7.137131103515625,1.0723216533660889,-9.686789512634277,4.625319480895996
1702132572476120800,7.154120849609375,2.521496295928955,-8.904939651489258,2.405515670776367
1702132572493108700,7.171108642578125,2.395333766937256,-8.744827270507812,1.248095989227295
1702132572510104300,7.188104248046875,0.6906986236572266,-9.651835441589355,1.4215989112854004
1702132572527089700,7.205089599609375,-1.1156617403030396,-10.604228019714355,3.0557940006256104
1702132572544082000,7.22208203125,-2.407703399658203,-11.27564525604248,5.1387553215026855
1702132572561075700,7.23907568359375,-2.7141523361206055,-12.007369995117188,6.12449836730957
1702132572578062800,7.256062744140625,-2.1005101203918457,-13.123475074768066,6.1526618003845215
1702132572595053600,7.273053466796875,-1.0479001998901367,-13.927308082580566,4.749473571777344
1702132572612043300,7.290043212890625,-1.4726836681365967,-14.391111373901367,4.026246070861816
1702132572629034000,7.307033935546875,-0.7721313238143921,-15.721393585205078,4.2130513191223145
1702132572646024200,7.324024169921875,0.88407301902771,-18.02737045288086,3.58250093460083
1702132572663014700,7.3410146484375,5.065328121185303,-19.985519409179688,2.24461030960083
1702132572680004600,7.358004638671875,8.479782104492188,-17.55415916442871,-0.05591773986816406
1702132572696984600,7.374984619140625,6.099114894866943,-16.465579986572266,3.443732261657715
1702132572713974500,7.391974609375,1.9334213733673096,-17.134336471557617,11.495139122009277
1702132572730971400,7.408971435546875,1.0515656471252441,-18.55984878540039,16.67080307006836
1702132572747977200,7.425977294921875,6.530930519104004,-17.68018913269043,16.959203720092773
1702132572764959000,7.442958984375,12.004026412963867,-14.700753211975098,16.29177474975586
1702132572781947600,7.45994775390625,14.103290557861328,-10.445025444030762,17.408466339111328
1702132572798936800,7.476936767578125,15.035114288330078,-6.408097267150879,16.79441261291504
1702132572815911200,7.4939111328125,14.291498184204102,-5.217737197875977,12.678081512451172
1702132572832917200,7.510917236328125,17.276805877685547,-7.000975608825684,9.143194198608398
1702132572849907500,7.527907470703125,19.43621253967285,-8.97950553894043,11.109328269958496
1702132572866898200,7.544898193359375,19.15936279296875,-9.163679122924805,15.700352668762207
1702132572883887900,7.561887939453125,18.1683406829834,-8.484332084655762,17.095420837402344
1702132572900878600,7.578878662109375,14.170085906982422,-9.128534317016602,15.196996688842773
1702132572917868800,7.595868896484375,12.732595443725586,-12.414154052734375,15.768688201904297
1702132572934859800,7.61285986328125,13.029053688049316,-15.76085090637207,19.90052032470703
1702132572951849200,7.62984912109375,11.204038619995117,-17.329082489013672,24.122905731201172
1702132572968839700,7.646839599609375,7.36391019821167,-16.140771865844727,24.779556274414062
1702132572985830000,7.663829833984375,2.821323871612549,-14.008825302124023,24.59061050415039
1702132573002820600,7.680820556640625,0.6721820831298828,-14.424633026123047,26.189010620117188
1702132573019801300,7.69780126953125,-0.7674145698547363,-14.19719123840332,26.690364837646484
1702132573036791800,7.714791748046875,-2.783010959625244,-12.553237915039062,28.29785919189453
1702132573053791200,7.731791259765625,-4.779829978942871,-10.03913402557373,28.86138343811035
1702132573070781700,7.74878173828125,-7.827476501464844,-6.812448024749756,26.01021957397461
1702132573087771400,7.765771484375,-10.995552062988281,-5.159955978393555,23.606496810913086
1702132573104762000,7.78276220703125,-9.542540550231934,-6.079133033752441,23.78742790222168
1702132573121752600,7.799752685546875,-8.003149032592773,-6.029757976531982,22.90723419189453
1702132573138742800,7.81674267578125,-8.102959632873535,-3.8541183471679688,19.54988670349121
1702132573155732500,7.833732421875,-10.752849578857422,-1.5985997915267944,17.710834503173828
1702132573172723200,7.85072314453125,-12.583782196044922,-1.7683756351470947,16.587268829345703
1702132573189713400,7.86771337890625,-14.531572341918945,-4.038603782653809,13.91397476196289
1702132573206704000,7.8847041015625,-13.20150375366211,-3.949464797973633,12.166046142578125
1702132573223693800,7.90169384765625,-12.331310272216797,-1.2675927877426147,9.37320327758789
1702132573240684300,7.918684326171875,-15.430667877197266,1.0858815908432007,8.420123100280762
1702132573257674800,7.9356748046875,-17.011537551879883,3.065730094909668,7.243379592895508
1702132573274665200,7.952665283203125,-13.477228164672852,3.1011016368865967,6.0611701011657715
1702132573291651600,7.969651611328125,-10.768325805664062,2.4269537925720215,4.29615592956543
1702132573308649200,7.986649169921875,-10.232795715332031,1.8074928522109985,3.55918025970459
1702132573325635800,8.0036357421875,-8.71112060546875,1.9542196989059448,2.125357151031494
1702132573342624000,8.0206240234375,-7.368048667907715,2.330699920654297,0.7697281837463379
1702132573359616300,8.0376162109375,-7.282253265380859,2.2261080741882324,-0.03738594055175781
1702132573376607700,8.054607666015626,-6.647874355316162,0.8537068367004395,-1.0985698699951172
1702132573393589800,8.07158984375,-5.122636795043945,0.2654320299625397,-1.3965606689453125
1702132573410583600,8.08858349609375,-1.7300069332122803,0.6808847188949585,-0.8986721038818359
1702132573427577300,8.105577392578125,0.033945560455322266,1.6597821712493896,-0.14472103118896484
1702132573444570400,8.1225703125,-0.4278078079223633,1.6392507553100586,0.26258087158203125
1702132573461558300,8.139558349609375,-0.1686248779296875,1.4738303422927856,0.22097396850585938
1702132573478548700,8.156548828125,0.40764331817626953,1.095940113067627,1.049363136291504
1702132573495538700,8.17353857421875,1.1192584037780762,0.9779306650161743,2.409973621368408
1702132573512529200,8.190529052734375,1.4015984535217285,0.9453092217445374,3.2917847633361816
1702132573529519600,8.20751953125,1.302823543548584,1.0404114723205566,3.279019832611084
1702132573546510000,8.224510009765625,0.27413320541381836,1.0823167562484741,2.7263402938842773
1702132573563489000,8.241489013671876,-0.7453861236572266,0.9558930993080139,2.1014456748962402
1702132573580496100,8.25849609375,-1.5287189483642578,0.8415074348449707,1.9741649627685547
1702132573597469200,8.27546923828125,-2.2544565200805664,0.39429765939712524,2.0049118995666504
1702132573614460400,8.29246044921875,-2.7974889278411865,-0.42103204131126404,1.9814772605895996
1702132573631451100,8.309451171875,-3.420595169067383,-1.0825175046920776,2.3893518447875977
1702132573648450800,8.326450927734374,-4.4162797927856445,-1.3029272556304932,3.6740264892578125
1702132573665441500,8.343441650390625,-5.699534893035889,-1.6787307262420654,4.400859832763672
1702132573682432300,8.360432373046875,-6.788862228393555,-2.4316234588623047,4.78350830078125
1702132573699422000,8.377421875,-7.558989524841309,-3.1318118572235107,5.609769344329834
1702132573716412400,8.394412353515625,-7.031156063079834,-3.1577248573303223,6.539219856262207
1702132573733403000,8.41140283203125,-6.5252203941345215,-2.7687199115753174,7.274142742156982
1702132573750393300,8.428393310546875,-6.012090682983398,-2.205733299255371,8.267827033996582
1702132573767383000,8.445383056640624,-5.611018180847168,-2.4187233448028564,8.649810791015625
1702132573784373800,8.462373779296875,-5.462335586547852,-3.0192933082580566,8.047658920288086
1702132573801364000,8.479364013671875,-5.493383407592773,-3.280644178390503,8.098094940185547
1702132573818354400,8.4963544921875,-5.391620635986328,-3.4162039756774902,9.490344047546387
1702132573835344400,8.513344482421875,-4.6445183753967285,-3.1191372871398926,10.773829460144043
1702132573852334800,8.5303349609375,-2.121835708618164,-2.4694409370422363,12.034390449523926
1702132573869325300,8.5473251953125,0.011739730834960938,-1.164259433746338,12.917057991027832
1702132573886319000,8.564319091796875,0.13388729095458984,-0.43848609924316406,12.704893112182617
1702132573903302000,8.581302001953125,-0.3824591636657715,0.3441805839538574,10.799337387084961
1702132573920296400,8.59829638671875,1.361734390258789,1.9319782257080078,8.510644912719727
1702132573937286100,8.6152861328125,2.5429582595825195,4.014560222625732,8.604433059692383
1702132573954276900,8.63227685546875,2.153329372406006,4.633617877960205,12.105317115783691
1702132573971266800,8.649266845703124,2.080465793609619,4.3160505294799805,14.925849914550781
1702132573988257300,8.66625732421875,3.382521629333496,4.202911376953125,12.845197677612305
1702132574005247500,8.68324755859375,5.5352044105529785,5.071499824523926,8.840753555297852
1702132574022238000,8.700238037109376,5.405296802520752,6.537077903747559,8.145112991333008
1702132574039228000,8.717227783203125,4.355804920196533,7.615434646606445,9.499627113342285
1702132574056218400,8.73421826171875,4.547087669372559,7.611696243286133,10.111001014709473
1702132574073208800,8.751208740234375,5.200451374053955,7.6649580001831055,7.791254043579102
1702132574090199300,8.76819921875,5.493616104125977,7.6755547523498535,5.336603164672852
1702132574107189000,8.78518896484375,5.7674665451049805,7.703722953796387,5.439340591430664
1702132574124179700,8.8021796875,5.99572229385376,7.305540084838867,5.85609245300293
1702132574141159200,8.8191591796875,5.225128173828125,6.286322116851807,5.392189979553223
1702132574158160400,8.836160400390625,3.8727385997772217,5.433358192443848,3.579151153564453
1702132574175150300,8.853150390625,2.9355194568634033,5.3808746337890625,2.1200389862060547
1702132574192140800,8.870140869140625,1.951756477355957,5.652417182922363,1.6895418167114258
1702132574209131000,8.887131103515625,0.8351317644119263,5.187565803527832,2.243353843688965
1702132574226120000,8.904119873046875,1.2491564750671387,4.578804016113281,3.5306320190429688
1702132574243113000,8.921113037109375,1.7566717863082886,3.586275577545166,3.7097434997558594
1702132574260104400,8.9381044921875,1.0651344060897827,2.212317943572998,2.519075393676758
1702132574277087200,8.955087158203124,0.1420809030532837,0.9154729843139648,1.4675464630126953
1702132574294085400,8.97208544921875,0.00802302360534668,-0.20156192779541016,0.5331683158874512
1702132574311072500,8.989072509765625,0.06923329830169678,-1.2314023971557617,-0.2678394317626953
1702132574328063200,9.006063232421875,0.45462679862976074,-2.420706272125244,-0.31473541259765625
1702132574345053400,9.023053466796876,1.50778329372406,-3.4799976348876953,-1.1447443962097168
1702132574362044000,9.0400439453125,1.6936964988708496,-4.426209449768066,-2.34541916847229
1702132574379033600,9.05703369140625,1.3159031867980957,-5.241174697875977,-3.629469394683838
1702132574396024000,9.074024169921875,0.7262998819351196,-5.937381267547607,-4.877551078796387
1702132574413014500,9.0910146484375,0.1729276180267334,-6.412569046020508,-6.020617961883545
1702132574430005000,9.1080048828125,-0.08765888214111328,-6.637495040893555,-6.667293548583984
1702132574446984000,9.12498388671875,-0.03396594524383545,-7.144268989562988,-6.864693641662598
1702132574463985200,9.141985107421876,-0.0818624496459961,-7.5758514404296875,-7.426135540008545
1702132574480969000,9.158968994140626,-0.022489190101623535,-7.901867866516113,-8.094929695129395
1702132574497956000,9.1759560546875,-0.07605290412902832,-7.968736171722412,-8.91649055480957
1702132574514955800,9.192955810546875,-0.544745922088623,-7.306612014770508,-10.171079635620117
1702132574531953000,9.209952880859374,-1.7057788372039795,-6.619863510131836,-11.009847640991211
1702132574548937000,9.22693701171875,-1.853150725364685,-5.552850723266602,-10.047233581542969
1702132574565927400,9.243927490234375,-1.2672443389892578,-3.831814765930176,-4.185462474822998
1702132574582917400,9.26091748046875,-0.8266904354095459,-0.09743785858154297,6.895078659057617
1702132574599907800,9.277907958984375,1.5669195652008057,4.10194206237793,15.389835357666016
1702132574616883200,9.29488330078125,5.657541275024414,8.088242530822754,17.773361206054688
1702132574633882400,9.31188232421875,5.606301307678223,10.333627700805664,14.928387641906738
1702132574650878200,9.328878173828125,2.3442111015319824,9.989310264587402,9.166447639465332
1702132574667868700,9.34586865234375,-0.711673378944397,7.366392612457275,3.7359466552734375
1702132574684859100,9.362859130859375,-1.722558617591858,3.9952011108398438,-0.13373517990112305
1702132574701849600,9.379849609375,-1.7953569889068604,1.3820347785949707,-2.654801845550537
1702132574718839300,9.39683935546875,-1.9544973373413086,-0.6741371154785156,-4.140958786010742
1702132574735819300,9.4138193359375,-1.9123255014419556,-2.655458927154541,-5.141618251800537
1702132574752807200,9.43080712890625,-1.3780056238174438,-3.818885326385498,-6.772104740142822
1702132574769810200,9.44781005859375,-1.5187039375305176,-4.60385799407959,-8.76864242553711
1702132574786804200,9.46480419921875,-2.2334234714508057,-5.111254692077637,-10.94621467590332
1702132574803791400,9.481791259765625,-2.3722729682922363,-5.817492961883545,-12.318634033203125
1702132574820781300,9.49878125,-2.531881809234619,-6.490265846252441,-12.71955680847168
1702132574837771800,9.515771728515626,-1.4209051132202148,-7.063680648803711,-12.066551208496094
1702132574854761700,9.53276171875,-0.979933500289917,-6.663312911987305,-9.338833808898926
1702132574871750000,9.54975,-1.2726972103118896,-5.654195308685303,-3.2844347953796387
1702132574888745200,9.5667451171875,-0.09604334831237793,-3.5717005729675293,5.023412704467773
1702132574905730600,9.58373046875,3.5991051197052,-1.039888620376587,7.402805328369141
1702132574922725600,9.6007255859375,5.716404914855957,0.13687047362327576,5.174623489379883
1702132574939702000,9.617701904296876,2.125521421432495,-0.6824138760566711,5.1432905197143555
1702132574956694000,9.634694091796876,0.4032151699066162,-0.7806463241577148,7.924432754516602
1702132574973694200,9.651694091796875,-1.163975477218628,1.08266282081604,8.55887508392334
1702132574990684200,9.66868408203125,-1.3006536960601807,3.1980271339416504,8.020735740661621
1702132575007674600,9.685674560546875,-1.6145753860473633,4.927861213684082,5.812739372253418
1702132575024655000,9.702655029296874,-1.9264416694641113,5.677252769470215,4.958334922790527
1702132575041655600,9.719655517578126,-0.9041774272918701,5.262721061706543,5.984742164611816
1702132575058645200,9.736645263671875,0.4219076633453369,5.506349563598633,8.588637351989746
1702132575075617500,9.753617431640626,-0.751117467880249,6.339445114135742,10.550457000732422
1702132575092623400,9.770623291015625,-2.1456069946289062,6.9125518798828125,11.348508834838867
1702132575109619200,9.787619140625,-3.706711769104004,6.56987190246582,11.890074729919434
1702132575126608000,9.80460791015625,-3.7434334754943848,5.766860008239746,14.327544212341309
1702132575143595500,9.821595458984374,-2.2220377922058105,4.208902359008789,17.661216735839844
1702132575160587300,9.838587158203126,-1.8593295812606812,3.078639030456543,18.769432067871094
1702132575177577700,9.85557763671875,-2.0933408737182617,2.012381076812744,19.9683837890625
1702132575194567700,9.872567626953124,-2.233219861984253,0.17361366748809814,20.510433197021484
1702132575211556900,9.889556884765625,-1.8191168308258057,-2.2680392265319824,18.6929874420166
1702132575228549600,9.906549560546875,-1.0176112651824951,-3.985457420349121,15.99074649810791
1702132575245538800,9.923538818359376,0.07955187559127808,-4.709144592285156,12.587447166442871
1702132575262528800,9.94052880859375,2.1775734424591064,-4.716670989990234,9.749520301818848
1702132575279519200,9.957519287109376,3.550178050994873,-5.4500627517700195,7.0146684646606445
1702132575296509400,9.974509521484375,4.335977554321289,-7.190093517303467,5.374821186065674
1702132575313500200,9.991500244140624,3.8664886951446533,-8.72929573059082,3.501993179321289
1702132575330489600,10.008489501953125,3.497783660888672,-9.26081371307373,1.9262056350708008
1702132575347490600,10.025490478515625,3.697603225708008,-10.519034385681152,0.9180018901824951
1702132575364470000,10.042469970703126,4.048837184906006,-11.593567848205566,0.37435245513916016
1702132575381461200,10.059461181640625,3.2382702827453613,-12.570643424987793,-0.10660684108734131
1702132575398450000,10.076449951171876,2.3414597511291504,-12.394655227661133,-0.10316075384616852
1702132575415441700,10.093441650390625,2.069657802581787,-11.979613304138184,0.4154255986213684
1702132575432432400,10.110432373046875,0.6725962162017822,-11.946104049682617,1.7073156833648682
1702132575449424000,10.127423828125,-0.4451000690460205,-12.493082046508789,3.321650981903076
1702132575466412300,10.144412353515625,-0.0809946060180664,-12.416839599609375,4.59928035736084
1702132575483402500,10.161402587890626,-0.05181550979614258,-12.442028045654297,5.020057678222656
1702132575500393000,10.17839306640625,-0.4429666996002197,-12.531782150268555,5.090996265411377
1702132575517383400,10.195383544921874,0.011440038681030273,-13.241047859191895,5.148832321166992
1702132575534373400,10.212373291015625,0.86623215675354,-12.762418746948242,5.129727840423584
1702132575551363800,10.22936376953125,1.6375824213027954,-11.806171417236328,5.13921594619751
1702132575568342000,10.246342041015625,1.896305799484253,-10.747909545898438,5.02725887298584
1702132575585332200,10.263332275390624,3.4133553504943848,-10.814224243164062,4.672652244567871
1702132575602337000,10.2803369140625,5.137426376342773,-10.914148330688477,3.752919912338257
1702132575619313400,10.2973134765625,7.056356906890869,-11.308186531066895,1.5857489109039307
1702132575636303600,10.3143037109375,5.9712653160095215,-9.66999340057373,-0.3474675416946411
1702132575653301200,10.33130126953125,3.656315803527832,-7.732126235961914,-2.0594332218170166
1702132575670291200,10.348291259765626,1.293536901473999,-7.961956024169922,-1.8600773811340332
1702132575687284500,10.365284423828125,-0.04752933979034424,-10.584464073181152,-0.30338072776794434
1702132575704269800,10.382269775390625,0.6691843271255493,-12.451058387756348,2.0153684616088867
1702132575721257200,10.39925732421875,3.259716749191284,-12.62307357788086,4.626694202423096
1702132575738253800,10.41625390625,7.683378219604492,-8.274999618530273,4.389370441436768
1702132575755242000,10.433241943359375,9.14997386932373,-6.167786598205566,6.059703826904297
1702132575772241000,10.450240966796875,7.304611682891846,-5.943744659423828,6.938358306884766
1702132575789226200,10.467226318359375,6.181494235992432,-7.577735900878906,5.0884246826171875
1702132575806214100,10.484214111328125,6.851677894592285,-9.618141174316406,4.465648651123047
1702132575823205400,10.501205322265625,8.243492126464844,-12.20683479309082,9.279995918273926
1702132575840193800,10.51819384765625,19.710006713867188,-12.37905502319336,17.260875701904297
1702132575857180200,10.53518017578125,27.273216247558594,-6.664163112640381,18.205135345458984
1702132575874167600,10.55216748046875,25.20054817199707,-3.1334214210510254,12.492923736572266
1702132575891166200,10.569166259765625,18.56211280822754,-3.039039373397827,10.277192115783691
1702132575908157200,10.5861572265625,17.253204345703125,-5.766430377960205,11.020702362060547
1702132575925145900,10.603145751953125,17.912975311279297,-9.202109336853027,12.59051513671875
1702132575942133500,10.620133544921876,15.949222564697266,-10.691408157348633,13.11078929901123
1702132575959126300,10.637126220703125,14.907747268676758,-12.258541107177734,12.786016464233398
1702132575976110800,10.65411083984375,13.627236366271973,-14.442811965942383,15.909748077392578
1702132575993102600,10.6711025390625,11.015288352966309,-15.817004203796387,23.229738235473633
1702132576010103600,10.688103515625,8.691070556640625,-15.076089859008789,28.87635040283203
1702132576027092000,10.705092041015625,6.425116539001465,-12.835416793823242,30.620342254638672
1702132576044082200,10.722082275390624,3.631134510040283,-10.083503723144531,29.917333602905273
1702132576061075000,10.739074951171874,-1.5740094184875488,-8.685493469238281,28.21664810180664
1702132576078060000,10.75606005859375,-4.702680587768555,-8.590677261352539,28.1031551361084
1702132576095052800,10.773052734375,-3.3590879440307617,-7.78798770904541,28.99659538269043
1702132576112043300,10.790043212890625,-2.507652759552002,-5.154953956604004,30.66331672668457
1702132576129033500,10.807033447265624,-4.824610233306885,-2.390289306640625,28.827402114868164
1702132576146023700,10.824023681640625,-7.661502361297607,-1.8150746822357178,23.629671096801758
1702132576163014700,10.8410146484375,-10.059832572937012,-2.9558589458465576,21.234949111938477
1702132576180003800,10.85800390625,-11.437651634216309,-3.3065056800842285,20.977895736694336
1702132576196994800,10.874994873046875,-11.260025024414062,-2.2252330780029297,21.8068904876709
1702132576213984500,10.891984619140626,-10.22364330291748,-0.31031835079193115,21.617673873901367
1702132576230975000,10.90897509765625,-15.290382385253906,1.0574009418487549,17.632112503051758
1702132576247965200,10.925965087890624,-18.236251831054688,3.155330181121826,12.104290008544922
1702132576264953600,10.94295361328125,-17.593257904052734,4.485462188720703,9.185222625732422
1702132576281948200,10.9599482421875,-14.978931427001953,4.108555793762207,10.155832290649414
1702132576298926600,10.976926513671875,-12.465208053588867,2.587308406829834,9.321488380432129
1702132576315915800,10.993915771484374,-10.447569847106934,1.1455858945846558,7.026963233947754
1702132576332917200,11.010917236328124,-12.434961318969727,-0.06182980537414551,3.4371938705444336
1702132576349905400,11.027905517578125,-11.421218872070312,-0.2940320074558258,0.31159496307373047
1702132576366899200,11.044899169921875,-9.882651329040527,-0.3665812611579895,-1.9825420379638672
1702132576383887600,11.0618876953125,-7.923215866088867,0.07340666651725769,-2.4813966751098633
1702132576400878000,11.078878173828125,-6.859444618225098,0.6707624197006226,-2.691152572631836
1702132576417868000,11.095867919921876,-3.9051642417907715,0.006169527769088745,-2.2712488174438477
1702132576434858800,11.112858642578125,-2.4514753818511963,0.41696178913116455,-2.2807979583740234
1702132576451848700,11.1298486328125,-0.8814783096313477,1.4380581378936768,-0.9247236251831055
1702132576468839700,11.146839599609375,0.2568697929382324,2.0227136611938477,0.4953160285949707
1702132576485829000,11.1638291015625,1.3423547744750977,2.043388605117798,1.973160743713379
1702132576502809300,11.180809326171875,1.0942153930664062,1.4837555885314941,2.122391700744629
1702132576519810000,11.19781005859375,1.2327513694763184,0.9819700717926025,1.5357394218444824
1702132576536796000,11.2147958984375,1.8609700202941895,0.9505162835121155,1.6053171157836914
1702132576553790500,11.23179052734375,2.43306303024292,1.2270827293395996,1.7841596603393555
1702132576570781200,11.24878125,1.9024262428283691,1.4352824687957764,2.718317985534668
1702132576587771400,11.265771484375,0.8996443748474121,1.2360702753067017,2.453381061553955
1702132576604761600,11.28276171875,1.5494799613952637,0.5798765420913696,2.3716959953308105
1702132576621751600,11.29975146484375,0.9991450309753418,0.5103722214698792,2.524374485015869
1702132576638742000,11.316741943359375,0.020378589630126953,0.6104324460029602,2.135481357574463
1702132576655740000,11.333739990234376,-1.064387321472168,0.6198650598526001,1.6938061714172363
1702132576672723200,11.35072314453125,-2.2988643646240234,0.33535611629486084,1.9951281547546387
1702132576689712600,11.367712646484375,-1.757436752319336,-0.6045856475830078,2.6249260902404785
1702132576706703000,11.384703125,-0.5235967636108398,-0.923403799533844,3.9224491119384766
1702132576723693300,11.401693359375,-0.36246442794799805,-0.8717334270477295,3.970073699951172
1702132576740684000,11.41868408203125,-1.0531282424926758,-0.9238443374633789,3.6933789253234863
1702132576757673700,11.435673828125,-2.8435144424438477,-1.4552268981933594,2.7832977771759033
1702132576774664400,11.45266455078125,-2.4434680938720703,-2.6512296199798584,3.8827812671661377
1702132576791664000,11.4696640625,-0.6993608474731445,-2.6522340774536133,5.2033843994140625
1702132576808648700,11.486648681640625,-1.310412883758545,-1.9107704162597656,5.641888618469238
1702132576825634800,11.503634765625,-2.067655086517334,-1.1112529039382935,6.194600582122803
1702132576842625300,11.520625244140625,-1.6251368522644043,-1.0985405445098877,4.824026107788086
1702132576859615700,11.53761572265625,-0.7921414375305176,-1.3743277788162231,3.338837146759033
1702132576876614000,11.55461376953125,-1.1414990425109863,-0.7775876522064209,3.7157399654388428
1702132576893596000,11.571595947265624,-2.465449810028076,-0.37138843536376953,4.430538654327393
1702132576910586000,11.588586181640625,-1.7557621002197266,-0.3970792293548584,5.8451642990112305
1702132576927577300,11.605577392578125,-0.3293304443359375,0.11362028121948242,5.3563947677612305
1702132576944567600,11.622567626953124,-0.27639198303222656,1.6913714408874512,3.4619975090026855
1702132576961557200,11.63955712890625,-1.373863697052002,3.629610538482666,1.8902029991149902
1702132576978547700,11.656547607421874,-2.502507209777832,3.675659656524658,3.2363102436065674
1702132576995535600,11.67353564453125,-0.6229953765869141,2.565591335296631,3.244892120361328
1702132577012529200,11.690529052734375,1.174588680267334,2.9819774627685547,1.5057342052459717
1702132577029520400,11.707520263671874,1.3103313446044922,5.688174247741699,0.5451027154922485
1702132577046504200,11.724504150390626,0.13107872009277344,6.700491428375244,1.3930974006652832
1702132577063499300,11.741499267578124,-0.4239635467529297,5.042522430419922,2.79171085357666
1702132577080489000,11.758489013671875,1.7529287338256836,3.530017375946045,4.7626543045043945
1702132577097476600,11.7754765625,4.381477355957031,3.4610161781311035,3.8860113620758057
1702132577114463200,11.792463134765624,4.88640022277832,5.104735851287842,1.12009859085083
1702132577131461000,11.809461181640625,3.764944076538086,5.64072322845459,-0.9309258460998535
1702132577148447500,11.826447509765625,2.542781352996826,4.8809356689453125,-1.9599220752716064
1702132577165443000,11.843443115234376,1.091440200805664,3.8135733604431152,-1.625443458557129
1702132577182429200,11.86042919921875,0.24842453002929688,3.454667568206787,0.36101293563842773
1702132577199423500,11.877423583984376,2.766049861907959,3.803497791290283,1.6599321365356445
1702132577216412000,11.894411865234375,4.535584449768066,4.638805389404297,1.712602138519287
1702132577233401900,11.91140185546875,4.243967056274414,4.4987287521362305,0.26273488998413086
1702132577250392300,11.928392333984375,2.6046252250671387,3.3747410774230957,-1.3868827819824219
1702132577267382500,11.945382568359374,1.603710651397705,2.4070425033569336,-2.3242721557617188
1702132577284373000,11.962373046875,1.5782561302185059,1.7355046272277832,-2.1880178451538086
1702132577301371100,11.97937109375,2.2051351070404053,1.3180065155029297,-1.2435789108276367
1702132577318350800,11.996350830078125,2.772505521774292,0.9637346267700195,0.33615970611572266
1702132577335346200,12.01334619140625,3.130577325820923,0.6233916282653809,1.2182607650756836
1702132577352323600,12.030323486328125,3.4173777103424072,0.40915727615356445,0.9698266983032227
1702132577369326000,12.047326171875,2.4629132747650146,0.23131608963012695,0.2652735710144043
1702132577386312400,12.0643125,1.400399923324585,-0.10128641128540039,-0.28848695755004883
1702132577403304700,12.0813046875,0.8228023052215576,-0.19834423065185547,-0.6681537628173828
1702132577420295400,12.09829541015625,0.845067024230957,-0.11181926727294922,-0.5210456848144531
1702132577437285400,12.115285400390626,0.8029880523681641,-0.3053097724914551,0.06719684600830078
1702132577454275600,12.132275634765625,0.47813963890075684,-0.7432713508605957,0.19182586669921875
1702132577471266000,12.14926611328125,-0.32204771041870117,-1.0065741539001465,-0.4359564781188965
1702132577488256300,12.16625634765625,-0.9203178882598877,-1.0460271835327148,-2.1132516860961914
1702132577505246200,12.18324609375,-1.6080138683319092,-0.9433736801147461,-3.6744136810302734
1702132577522246100,12.20024609375,-2.3971023559570312,-0.5969529151916504,-4.1488847732543945
1702132577539227100,12.21722705078125,-3.559962511062622,-0.2230982780456543,-3.4546213150024414
1702132577556217600,12.234217529296876,-2.3923611640930176,0.3911590576171875,-1.07523775100708
1702132577573205500,12.25120556640625,-0.16637802124023438,1.646496295928955,1.8474111557006836
1702132577590199800,12.26819970703125,1.339568853378296,3.480562210083008,4.314515113830566
1702132577607169500,12.28516943359375,1.2657959461212158,4.675622940063477,6.737640380859375
1702132577624178700,12.3021787109375,0.3528599739074707,5.21607780456543,8.805580139160156
1702132577641168600,12.319168701171876,-0.5511043071746826,4.826851844787598,9.137727737426758
1702132577658159000,12.3361591796875,-0.9484994411468506,3.6934003829956055,6.981596946716309
1702132577675149300,12.3531494140625,-0.6286742687225342,2.4793386459350586,3.974503517150879
1702132577692139800,12.370139892578125,-0.7561511993408203,1.2351250648498535,1.9087624549865723
1702132577709129700,12.387129638671874,-1.1520380973815918,-0.025496482849121094,0.3324565887451172
1702132577726120200,12.4041201171875,-1.54762864112854,-1.465688705444336,-0.9990139007568359
1702132577743110100,12.421110107421875,-1.696792721748352,-2.6732614040374756,-2.109246253967285
1702132577760090600,12.438090576171875,-1.9797067642211914,-3.4836137294769287,-3.3666675090789795
1702132577777090800,12.4550908203125,-2.2885820865631104,-4.01884651184082,-4.698529243469238
1702132577794078700,12.47207861328125,-2.2766072750091553,-4.25485897064209,-5.681615829467773
1702132577811074000,12.489073974609376,-2.3215880393981934,-4.567944526672363,-6.213216304779053
1702132577828053200,12.50605322265625,-2.2225465774536133,-5.032979488372803,-6.6188859939575195
1702132577845052200,12.52305224609375,-2.1774890422821045,-5.463195323944092,-7.217792510986328
1702132577862042600,12.540042724609375,-2.104304313659668,-5.9022932052612305,-7.623844146728516
1702132577879032800,12.55703271484375,-2.0128183364868164,-6.114193439483643,-7.5128607749938965
1702132577896012800,12.5740126953125,-1.78573477268219,-4.612802505493164,-6.826274394989014
1702132577913013000,12.591012939453124,-1.9306371212005615,-2.342834711074829,-3.250796318054199
1702132577930003700,12.608003662109375,-2.9493274688720703,0.2900371551513672,4.659646511077881
1702132577946976500,12.6249765625,-1.6748839616775513,2.0230212211608887,11.827470779418945
1702132577963984400,12.641984375,2.0710647106170654,4.106897354125977,13.900641441345215
1702132577980974000,12.65897412109375,4.541559219360352,6.299386501312256,11.461127281188965
1702132577997964800,12.67596484375,3.479719400405884,6.013199806213379,6.473737716674805
1702132578014955300,12.692955322265625,-0.25681209564208984,3.366180419921875,1.9846992492675781
1702132578031936000,12.70993603515625,-2.9241323471069336,1.0211668014526367,-1.1899046897888184
1702132578048935400,12.726935302734375,-3.5745227336883545,-0.33603668212890625,-3.314607620239258
1702132578065926100,12.743926025390625,-2.7972047328948975,-0.9887890815734863,-4.55098819732666
1702132578082916400,12.760916259765626,-1.3779324293136597,-1.3032922744750977,-5.5008544921875
1702132578099904000,12.777904052734375,-0.20823049545288086,-1.5664029121398926,-6.7957234382629395
1702132578116888300,12.794888427734374,0.19899845123291016,-1.863563060760498,-7.710724830627441
1702132578133874200,12.811874267578125,0.030755996704101562,-1.9267992973327637,-8.080047607421875
1702132578150877400,12.82887744140625,-0.6703732013702393,-2.604166030883789,-6.8279619216918945
1702132578167870500,12.845870361328124,-1.5857293605804443,-3.1744117736816406,-4.933629512786865
1702132578184857300,12.862857421875,-2.234349012374878,-3.402015447616577,-3.1141204833984375
1702132578201837600,12.879837646484376,0.250654935836792,-1.9510289430618286,-1.1886506080627441
1702132578218835700,12.896835693359375,2.159255027770996,0.39185309410095215,0.6864442825317383
1702132578235821000,12.913821044921875,1.9643471240997314,2.3039121627807617,3.241788864135742
1702132578252819000,12.93081884765625,-0.3097696304321289,3.848471164703369,5.475194931030273
1702132578269809200,12.94780908203125,-1.7429438829421997,4.936397552490234,6.302105903625488
1702132578286788900,12.964788818359375,-1.1158698797225952,5.95230770111084,7.819208145141602
1702132578303790000,12.9817900390625,-0.8798913955688477,8.070596694946289,9.68915843963623
1702132578320769500,12.99876953125,-1.9821979999542236,9.57982349395752,10.886688232421875
1702132578337770200,13.015770263671875,-2.9496493339538574,10.574708938598633,11.160148620605469
1702132578354745000,13.0327451171875,-4.3572187423706055,10.738302230834961,11.992816925048828
1702132578371748600,13.04974853515625,-5.766091346740723,9.5485200881958,12.927286148071289
1702132578388742100,13.0667421875,-6.25388240814209,8.005388259887695,14.03278923034668
1702132578405732900,13.08373291015625,-4.887063026428223,7.0824079513549805,16.41843605041504
1702132578422721800,13.1007216796875,-2.210240364074707,5.763796806335449,18.13479232788086
1702132578439712300,13.117712158203124,-1.3120934963226318,3.118288040161133,16.584745407104492
1702132578456691500,13.13469140625,-1.910949945449829,0.3352541923522949,13.572061538696289
1702132578473692200,13.151692138671875,-1.183763027191162,-1.0201687812805176,11.00391960144043
1702132578490683400,13.168683349609376,0.9243178367614746,-2.4721016883850098,9.791708946228027
1702132578507673600,13.185673583984375,2.3144032955169678,-3.424654960632324,8.376075744628906
1702132578524663300,13.202663330078124,4.064775466918945,-4.829115390777588,7.310862064361572
1702132578541653800,13.21965380859375,4.6120195388793945,-7.113114833831787,5.578239440917969
1702132578558644000,13.23664404296875,4.085532188415527,-9.49734115600586,3.793153762817383
1702132578575616000,13.253615966796875,3.45188045501709,-10.675914764404297,2.121917724609375
1702132578592623000,13.270623046875,2.8953747749328613,-11.150760650634766,1.4789371490478516
1702132578609608200,13.287608154296874,2.6580629348754883,-11.202299118041992,1.1923120021820068
1702132578626605300,13.304605224609375,2.7844061851501465,-10.835579872131348,1.7883872985839844
1702132578643595500,13.321595458984374,3.0918705463409424,-10.833365440368652,3.0984995365142822
1702132578660585700,13.338585693359375,2.530381202697754,-10.5198392868042,4.611673355102539
1702132578677576200,13.355576171875,1.347325325012207,-10.9000244140625,6.116601943969727
1702132578694566400,13.37256640625,0.2745394706726074,-11.312814712524414,6.0184831619262695
1702132578711555800,13.389555908203125,-0.6242458820343018,-11.736274719238281,4.622459411621094
1702132578728537600,13.40653759765625,-0.31939220428466797,-11.569738388061523,3.637951135635376
1702132578745537000,13.423537109375,0.4355614185333252,-11.545124053955078,4.244176387786865
1702132578762527200,13.44052734375,1.6822876930236816,-11.430938720703125,5.239264488220215
1702132578779518000,13.45751806640625,2.658658504486084,-11.709484100341797,5.741641044616699
1702132578796508000,13.4745078125,3.803792715072632,-11.947089195251465,5.177207946777344
1702132578813493800,13.49149365234375,5.206854343414307,-12.605522155761719,4.20139217376709
1702132578830488300,13.50848828125,6.371547698974609,-12.021018028259277,2.3488409519195557
1702132578847480600,13.52548046875,5.678528785705566,-10.50114917755127,-0.015720009803771973
1702132578864467200,13.54246728515625,2.8898768424987793,-8.822585105895996,-1.352218747138977
1702132578881459500,13.55945947265625,0.8407959342002869,-9.504464149475098,-1.9332695007324219
1702132578898449700,13.57644970703125,1.0307250022888184,-10.852593421936035,-1.0933668613433838
1702132578915440000,13.593440185546875,3.578864097595215,-11.092588424682617,1.0518097877502441
1702132578932428800,13.6104287109375,6.006689071655273,-10.584525108337402,2.3054938316345215
1702132578949422000,13.627422119140626,9.440526008605957,-8.511139869689941,0.7010531425476074
1702132578966411000,13.644410888671874,13.836933135986328,-6.126145362854004,0.09157514572143555
1702132578983401500,13.6614013671875,12.30143928527832,-4.029218673706055,3.7625246047973633
1702132579000388600,13.678388671875,9.74419116973877,-4.554172039031982,9.239583015441895
1702132579017384200,13.69538427734375,10.209423065185547,-5.238675594329834,17.84107208251953
1702132579034371800,13.712371826171875,10.08460807800293,-1.7280476093292236,18.89104461669922
1702132579051362300,13.7293623046875,12.576915740966797,1.1239817142486572,10.599809646606445
1702132579068339700,13.746339599609374,14.02192211151123,1.7819828987121582,5.2695159912109375
1702132579085335000,13.7633349609375,13.587259292602539,1.7808266878128052,6.83857536315918
1702132579102335500,13.78033544921875,12.646026611328125,0.752821683883667,8.535058975219727
1702132579119310600,13.797310546875,13.663661003112793,-0.4191462993621826,9.983978271484375
1702132579136303400,13.814303466796876,17.375633239746094,-1.373289704322815,11.861093521118164
1702132579153303600,13.831303466796875,21.819856643676758,-0.6196104884147644,12.328532218933105
1702132579170287000,13.848287109375,22.484764099121094,-2.564488410949707,12.723406791687012
1702132579187274000,13.86527392578125,19.630144119262695,-5.533105850219727,16.892908096313477
1702132579204267300,13.882267333984375,14.86591911315918,-5.879310607910156,20.514881134033203
1702132579221256700,13.899256591796876,12.715097427368164,-6.222177982330322,25.44589614868164
1702132579238245000,13.9162451171875,12.428363800048828,-7.5072922706604,29.31991958618164
1702132579255235000,13.933235107421876,9.382896423339844,-7.232928276062012,27.480335235595703
1702132579272224800,13.950224853515625,3.5925469398498535,-6.490206718444824,26.09713363647461
1702132579289218600,13.967218505859375,0.017765522003173828,-5.7462849617004395,27.269731521606445
1702132579306212000,13.984212158203125,-2.7409534454345703,-6.023350238800049,29.77871322631836
1702132579323201000,14.001200927734375,-5.003963470458984,-5.80755090713501,29.281404495239258
1702132579340185900,14.018185791015625,-7.85635232925415,-4.295872688293457,25.651691436767578
1702132579357177000,14.035177001953125,-9.554323196411133,-2.309715986251831,22.77652931213379
1702132579374168600,14.05216845703125,-10.262828826904297,-2.3594045639038086,20.9945068359375
1702132579391163100,14.0691630859375,-11.020081520080566,-2.893406391143799,19.40854263305664
1702132579408148000,14.08614794921875,-12.33983325958252,-2.370964288711548,17.513805389404297
1702132579425140200,14.10314013671875,-12.961158752441406,-0.7186824083328247,16.106550216674805
1702132579442127400,14.12012744140625,-11.594834327697754,-1.3755638599395752,16.84255027770996
1702132579459120400,14.137120361328124,-13.503800392150879,-2.3952956199645996,14.656159400939941
1702132579476106200,14.154106201171874,-16.03272247314453,-2.56508469581604,9.165830612182617
1702132579493113900,14.17111376953125,-16.951065063476562,-1.600539207458496,4.768985748291016
1702132579510101200,14.188101318359376,-15.713906288146973,-0.6129390001296997,5.150986671447754
1702132579527088600,14.205088623046874,-12.603999137878418,0.640887975692749,5.580626010894775
1702132579544080000,14.222079833984376,-11.787973403930664,0.9902989864349365,4.260534286499023
1702132579561070600,14.239070556640625,-11.112656593322754,0.6273196935653687,2.419384479522705
1702132579578060800,14.256060791015624,-7.7964396476745605,0.5409350395202637,1.3856735229492188
1702132579595051500,14.273051513671875,-5.457736015319824,0.9022132158279419,1.997757911682129
1702132579612041000,14.290041015625,-4.73223876953125,0.9989007711410522,2.497396945953369
1702132579629031700,14.30703173828125,-5.554745674133301,0.3935234546661377,0.2946796417236328
1702132579646003000,14.3240029296875,-5.872949123382568,-0.7908937931060791,-2.1372203826904297
1702132579663010300,14.34101025390625,-3.656886577606201,-0.9319965839385986,-2.2649426460266113
1702132579679994400,14.357994384765625,-2.0920472145080566,-0.7678724527359009,-0.7698874473571777
1702132579696992800,14.37499267578125,-1.9010591506958008,-0.9445972442626953,0.3292236328125
1702132579713983000,14.39198291015625,-2.1555066108703613,-0.9772841930389404,0.03765726089477539
1702132579730973700,14.4089736328125,-2.1116738319396973,-0.6720283031463623,0.04473543167114258
1702132579747963100,14.425963134765626,-1.994194507598877,-0.600616455078125,1.5184721946716309
1702132579764951300,14.442951416015624,-1.1626110076904297,-0.6892428398132324,4.097311496734619
1702132579781946600,14.459946533203125,-0.6065874099731445,-0.6077978610992432,5.9641618728637695
1702132579798934500,14.4769345703125,-0.04912090301513672,-0.3010742664337158,6.754214286804199
1702132579815913700,14.493913818359376,-0.5910534858703613,0.4264242649078369,5.368276596069336
1702132579832915200,14.510915283203126,-2.2291274070739746,0.7572689056396484,4.13006591796875
1702132579849905400,14.527905517578125,-4.910025596618652,1.0788991451263428,4.234887599945068
1702132579866896000,14.544895751953124,-2.805133819580078,0.5168671607971191,3.2459206581115723
1702132579883885300,14.56188525390625,-0.12062931060791016,-0.5076315402984619,3.4697234630584717
1702132579900872000,14.578871826171875,2.1272144317626953,-1.2026045322418213,4.995771408081055
1702132579917863000,14.59586279296875,3.5901784896850586,-1.642857551574707,6.492437362670898
1702132579934857000,14.61285693359375,3.5631556510925293,-0.6995439529418945,5.511468887329102
1702132579951843800,14.62984375,2.6236934661865234,-0.31876516342163086,2.348836660385132
1702132579968834300,14.646834228515624,0.6704225540161133,0.16655492782592773,0.49817895889282227
1702132579985830700,14.66383056640625,-0.5745358467102051,0.0830082893371582,0.8986783027648926
1702132580002807300,14.680807373046875,0.9906125068664551,0.19912385940551758,2.408135175704956
1702132580019808000,14.69780810546875,5.784668922424316,1.4463720321655273,3.0523834228515625
1702132580036797000,14.714796875,10.70357894897461,2.410489559173584,3.6861162185668945
1702132580053788400,14.731788330078125,10.289773941040039,2.2418785095214844,1.6232187747955322
1702132580070779100,14.748779052734376,6.9672675132751465,2.3964786529541016,1.666184663772583
1702132580087769000,14.76576904296875,2.48635196685791,3.3190226554870605,0.7639132738113403
1702132580104757000,14.782757080078126,0.5975885391235352,3.4836630821228027,-1.2332088947296143
1702132580121752000,14.799751953125,1.4207830429077148,2.226609706878662,-1.4840514659881592
1702132580138722600,14.81672265625,4.44364070892334,0.7024703025817871,-0.29956722259521484
1702132580155730000,14.83372998046875,6.750535011291504,0.3639402389526367,0.28854823112487793
1702132580172720600,14.850720703125,5.625394821166992,1.4357914924621582,-0.48043084144592285
1702132580189708800,14.867708740234375,2.7302818298339844,1.8324155807495117,-1.7564818859100342
1702132580206703600,14.88470361328125,0.6244831085205078,2.045647144317627,-2.193321704864502
1702132580223691000,14.90169091796875,0.19872188568115234,1.274991512298584,-2.1775968074798584
1702132580240682000,14.918681884765626,1.111501693725586,0.5427651405334473,-1.5238456726074219
1702132580257672000,14.935671875,1.5724420547485352,0.0958867073059082,-0.9408532381057739
1702132580274662400,14.952662353515626,1.489964485168457,0.3305644989013672,-0.36065709590911865
1702132580291649000,14.96964892578125,1.2285947799682617,0.6896514892578125,0.012257933616638184
1702132580308645600,14.986645751953125,1.0985221862792969,0.6328821182250977,0.5979867577552795
1702132580325633300,15.00363330078125,0.7963619232177734,0.7101225852966309,0.06239354610443115
1702132580342623500,15.02062353515625,0.20378780364990234,0.7472033500671387,-0.7223409414291382
1702132580359606800,15.037606689453124,-0.3814249038696289,0.8704605102539062,-0.8777986764907837
1702132580376604200,15.054604248046875,-1.100275993347168,1.2105684280395508,-0.319083034992218
1702132580393594400,15.071594482421874,-1.1205487251281738,1.2850079536437988,0.048118531703948975
1702132580410584800,15.088584716796875,-0.828981876373291,1.0594696998596191,0.23439162969589233
1702132580427575000,15.105574951171874,-0.7349643707275391,0.8610038757324219,-0.12364637851715088
1702132580444565200,15.122565185546875,-0.6665482521057129,0.7410221099853516,-0.33344411849975586
1702132580461555500,15.139555419921875,-0.7440834045410156,0.7582507133483887,-0.15107762813568115
1702132580478546000,15.1565458984375,-0.9402346611022949,0.8960275650024414,-0.2790859341621399
1702132580495535900,15.173535888671875,-0.9870238304138184,0.7824153900146484,-0.4413043260574341
1702132580512525800,15.19052587890625,-0.8290715217590332,0.49304676055908203,-0.2442874312400818
1702132580529516800,15.207516845703125,-0.5345602035522461,0.2323136329650879,-0.006665945053100586
1702132580546506800,15.2245068359375,-0.39609813690185547,0.06505870819091797,0.007787764072418213
1702132580563497000,15.2414970703125,-0.2775392532348633,0.027679920196533203,0.044994890689849854
1702132580580487200,15.258487060546875,-0.5368247032165527,0.1587696075439453,0.05223122239112854
1702132580597477600,15.2754775390625,-0.748260498046875,0.2028813362121582,0.06417161226272583
1702132580614456000,15.2924560546875,-0.9214587211608887,0.27151060104370117,0.3571622967720032
1702132580631458600,15.30945849609375,-0.6046266555786133,0.23046350479125977,0.48754826188087463
1702132580648447000,15.326447021484375,-0.21656036376953125,0.04976320266723633,0.16675060987472534
1702132580665439000,15.34343896484375,0.10151481628417969,-0.2193751335144043,-0.05944579839706421
1702132580682429200,15.36042919921875,-0.07336616516113281,-0.2731456756591797,-0.006232917308807373
1702132580699419100,15.377419189453125,-0.7024803161621094,-0.15409326553344727,0.06917250156402588
1702132580716409600,15.39440966796875,-1.2246365547180176,-0.06157112121582031,0.0776447057723999
1702132580733399800,15.41139990234375,-1.028472900390625,0.027689456939697266,0.04294782876968384
1702132580750390500,15.428390625,-0.13381576538085938,-0.04688549041748047,0.08588576316833496
1702132580767377700,15.445377685546875,0.49205684661865234,-0.21665287017822266,0.16824820637702942
1702132580784373000,15.462373046875,0.5317354202270508,-0.41935062408447266,-0.017026901245117188
1702132580801360400,15.4793603515625,-0.055655479431152344,-0.42000484466552734,-0.17245328426361084
1702132580818351900,15.496351806640625,-0.8351225852966309,-0.3189849853515625,-0.2309313416481018
1702132580835341300,15.51334130859375,-1.223388671875,-0.3314671516418457,-0.1114208996295929
1702132580852331800,15.530331787109375,-1.0028114318847656,-0.396148681640625,-0.05344611406326294
1702132580869322000,15.547322021484375,-0.40004444122314453,-0.6062736511230469,-0.016701817512512207
1702132580886312700,15.564312744140626,0.31967735290527344,-0.7302870750427246,-0.22337082028388977
1702132580903302400,15.581302490234375,-0.21718835830688477,-0.9510855674743652,0.05075705051422119
1702132580920293000,15.598293212890624,-0.9888210296630859,-0.47662830352783203,-0.006158769130706787
1702132580937283000,15.615282958984375,-0.8938069343566895,-0.49625301361083984,-0.2062675952911377
