time,seconds_elapsed,z,y,x
1701982292028265700,0.056265625,-0.056352317333221436,-0.04505131021142006,0.2145664244890213
1701982292045349000,0.07334912109375,-0.01710422709584236,0.038026362657547,0.15225815773010254
1701982292062339800,0.09033984375,-0.01466076634824276,0.12858712673187256,0.08429940044879913
1701982292079341300,0.10734130859375,0.011453723534941673,0.15271630883216858,0.012828170321881771
1701982292096337400,0.12433740234375,0.052228979766368866,0.2015855312347412,-0.06230825558304787
1701982292113327600,0.14132763671875,0.10842858254909515,0.26710084080696106,-0.07131851464509964
1701982292130332000,0.158331787109375,0.144622340798378,0.27748554944992065,0.15057829022407532
1701982292147335200,0.175335205078125,0.1661553531885147,0.206777885556221,0.43508878350257874
1701982292164301800,0.1923017578125,0.19898934662342072,0.11133018881082535,0.5433646440505981
1701982292181302300,0.20930224609375,0.2269364446401596,0.0403171069920063,0.5009095072746277
1701982292198300700,0.22630078125,0.1609629988670349,0.19058994948863983,0.3738495409488678
1701982292215290000,0.2432900390625,0.10522153973579407,0.451123982667923,0.11484266817569733
1701982292232292600,0.260292724609375,0.0731511116027832,0.6948592066764832,-0.26481008529663086
1701982292249279700,0.27727978515625,0.08292495459318161,0.6340781450271606,-0.7826710939407349
1701982292266275000,0.294275146484375,0.18448130786418915,0.3956879675388336,-1.1157454252243042
1701982292283257000,0.311257080078125,0.21700987219810486,0.41523563861846924,-1.1394164562225342
1701982292300261000,0.32826123046875,0.08994990587234497,0.22311852872371674,-0.9918924570083618
1701982292317256000,0.345255859375,0.013286318629980087,-0.12431107461452484,-0.7380779385566711
1701982292334246700,0.36224658203125,0.06948592513799667,-0.3318525552749634,-0.4612032473087311
1701982292351241500,0.379241455078125,0.03237585723400116,-0.5027421116828918,-0.10903944820165634
1701982292368228000,0.39622802734375,0.040622539818286896,-0.46899178624153137,0.2793181240558624
1701982292385226800,0.413226806640625,0.11652254313230515,-0.35155296325683594,0.5958990454673767
1701982292402225000,0.430224853515625,0.18936823308467865,-0.18845193088054657,0.7506006956100464
1701982292419217000,0.447216796875,0.20662516355514526,-0.14538592100143433,0.6918048858642578
1701982292436210700,0.464210693359375,0.14844025671482086,-0.0887281745672226,0.5230533480644226
1701982292453198000,0.481197998046875,0.04703662544488907,0.11530081182718277,0.44135013222694397
1701982292470199000,0.498198974609375,-0.031154127791523933,0.23686300218105316,0.3878994286060333
1701982292487193600,0.515193603515625,-0.056810468435287476,0.19456058740615845,0.2900082767009735
1701982292504184800,0.532184814453125,-0.05497787147760391,0.242513507604599,0.1514945775270462
1701982292521177900,0.549177734375,-0.05742133408784866,0.2854267954826355,-0.026114489883184433
1701982292538177800,0.566177734375,-0.06383541971445084,0.25076019763946533,-0.1560760736465454
1701982292555164700,0.58316455078125,-0.04688390716910362,0.21013765037059784,-0.17027868330478668
1701982292572163000,0.6001630859375,-0.0630718395113945,0.25274550914764404,-0.1586722433567047
1701982292589154800,0.61715478515625,-0.07147123664617538,0.3173444867134094,-0.14004085958003998
1701982292606151200,0.634151123046875,-0.06383541971445084,0.37461310625076294,-0.11728613078594208
1701982292623139800,0.651139892578125,-0.04001167416572571,0.31551191210746765,-0.10293079167604446
1701982292640131300,0.66813134765625,-0.016035212203860283,0.1661553531885147,0.012522737495601177
1701982292657131500,0.685131591796875,0.022907447069883347,-0.003512475173920393,0.16111570596694946
1701982292674122200,0.702122314453125,0.040622539818286896,-0.12690725922584534,0.22968533635139465
1701982292691106300,0.719106201171875,0.0659734457731247,-0.04734205827116966,0.2451096773147583
1701982292708112000,0.73611181640625,0.10674870014190674,0.15577064454555511,0.1609629988670349
1701982292725104600,0.753104736328125,0.10430523753166199,0.3176499307155609,0.00733038317412138
1701982292742113000,0.770113037109375,0.12263119965791702,0.41630467772483826,-0.040622539818286896
1701982292759090700,0.787090576171875,0.1823432743549347,0.5170974135398865,-0.01542434748262167
1701982292776091000,0.8040908203125,0.244804248213768,0.6162103414535522,0.025503624230623245
1701982292793085000,0.8210849609375,0.30833423137664795,0.6415612101554871,0.17211128771305084
1701982292810075100,0.8380751953125,0.355981707572937,0.6472117304801941,0.3926336467266083
1701982292827072300,0.855072265625,0.3452915847301483,0.7124215960502625,0.5549710988998413
1701982292844054800,0.8720546875,0.2816088795661926,0.5051855444908142,0.6171266436576843
1701982292861057500,0.8890576171875,0.13225232064723969,-0.2243402600288391,0.812298059463501
1701982292878052000,0.906052001953125,-0.0806342139840126,-0.4657847583293915,0.25366178154945374
1701982292895041500,0.92304150390625,-0.0887281745672226,-0.24465152621269226,-0.13759739696979523
1701982292912034800,0.940034912109375,-0.12018773704767227,-0.22892175614833832,-0.22479841113090515
1701982292929035000,0.957034912109375,-0.20876319706439972,-0.5416847467422485,-0.2255619913339615
1701982292946025700,0.974025634765625,-0.2203696370124817,-0.7559457421302795,-0.18341228365898132
1701982292963009000,0.991009033203125,-0.17531833052635193,-0.769079327583313,-0.0936150997877121
1701982292980011000,1.008010986328125,-0.11148291081190109,-0.6499606370925903,-0.030695978552103043
1701982292997004300,1.02500439453125,-0.05054909735918045,-0.5948300361633301,-0.043676864355802536
1701982293013998300,1.041998291015625,-0.0507018156349659,-0.5148066878318787,-0.018936822190880775
1701982293030991400,1.058991455078125,-0.11362093687057495,-0.4642575979232788,0.08460483700037003
1701982293047992300,1.075992431640625,-0.144622340798378,-0.46899178624153137,0.1872301995754242
1701982293064979000,1.09297900390625,-0.12751811742782593,-0.4766276180744171,0.17211128771305084
1701982293081975800,1.109975830078125,-0.10064005106687546,-0.351400226354599,0.009773843921720982
1701982293098965500,1.126965576171875,-0.12064588814973831,-0.15241087973117828,-0.1921171247959137
1701982293115964400,1.14396435546875,-0.13545936346054077,-0.03741549700498581,-0.2736676335334778
1701982293132956700,1.160956787109375,-0.12599095702171326,-0.00931569468230009,-0.19562959671020508
1701982293149951000,1.177950927734375,-0.10705413669347763,-0.08261952549219131,-0.06627888232469559
1701982293166945000,1.194945068359375,-0.07422012835741043,-0.1921171247959137,0.055741455405950546
1701982293183936000,1.21193603515625,-0.032681290060281754,-0.22678372263908386,0.1511891484260559
1701982293200931000,1.22893115234375,-0.016493361443281174,-0.266184538602829,0.1667662113904953
1701982293217928000,1.245927978515625,-0.018936822190880775,-0.20784689486026764,0.1293507218360901
1701982293234916400,1.262916259765625,-0.01924225501716137,-0.07788532227277756,0.06780604273080826
1701982293251914200,1.279914306640625,-0.025503624230623245,0.032681290060281754,0.00809396430850029
1701982293268906200,1.29690625,-0.007941247895359993,0.08659014850854874,0.014202617108821869
1701982293285899000,1.31389892578125,0.00427605677396059,0.03787364438176155,0.10201449692249298
1701982293302885400,1.330885498046875,0.0003054326225537807,0.005345070734620094,0.19288070499897003
1701982293319888600,1.347888671875,0.003817907767370343,0.06872233748435974,0.21380282938480377
1701982293336886500,1.364886474609375,0.031001411378383636,0.1869247704744339,0.1866193264722824
1701982293353870300,1.381870361328125,0.01817324012517929,0.24174992740154266,0.12186761945486069
1701982293370869200,1.398869140625,0.0065668015740811825,0.304669052362442,0.04566217586398125
1701982293387851300,1.415851318359375,0.023060163483023643,0.3885102868080139,-0.04352414980530739
1701982293404855300,1.432855224609375,0.03955352306365967,0.41141775250434875,-0.11331550031900406
1701982293421851100,1.44985107421875,0.06948592513799667,0.3914119005203247,-0.09315694868564606
1701982293438844200,1.46684423828125,0.11728613078594208,0.33475416898727417,0.003512475173920393
1701982293455825200,1.4838251953125,0.1791362315416336,0.2773328125476837,0.1137736514210701
1701982293472832500,1.50083251953125,0.2223549485206604,0.30573806166648865,0.20952677726745605
1701982293489826600,1.51782666015625,0.19349156320095062,0.33719760179519653,0.23151792585849762
1701982293506821000,1.534821044921875,0.1485929638147354,0.20066922903060913,0.19853121042251587
1701982293523811600,1.5518115234375,0.1547016203403473,0.08170322328805923,0.15271630883216858
1701982293540807200,1.56880712890625,0.1463022232055664,0.0734565481543541,0.2715296149253845
1701982293557803300,1.58580322265625,0.09254608303308487,-0.07651086896657944,0.22937989234924316
1701982293574785000,1.602784912109375,0.046731192618608475,-0.11759155988693237,0.050854530185461044
1701982293591789300,1.619789306640625,-0.007177666760981083,-0.06948592513799667,-0.154396191239357
1701982293608783000,1.636783203125,-0.04001167416572571,0.14324790239334106,-0.13759739696979523
1701982293625774000,1.653774169921875,-0.04260785132646561,0.05513058975338936,-0.07956519722938538
1701982293642770700,1.670770751953125,0.01542434748262167,-0.02474004216492176,-0.09651670604944229
1701982293659765000,1.687764892578125,0.07742717117071152,0.06841690838336945,-0.055283304303884506
1701982293676757800,1.7047578125,0.14233160018920898,0.16264286637306213,0.09147707372903824
1701982293693749500,1.72174951171875,0.19364428520202637,0.17608191072940826,0.3013092875480652
1701982293710735000,1.738735107421875,0.2246456891298294,0.2054034322500229,0.5537493228912354
1701982293727741700,1.75574169921875,0.1736384481191635,0.20402899384498596,0.8730791807174683
1701982293744729600,1.7727294921875,0.047800205647945404,-0.13805554807186127,0.6806566119194031
1701982293761709000,1.789708984375,0.016951510682702065,-0.5079344511032104,0.24113905429840088
1701982293778718500,1.806718505859375,-0.01191187184303999,-0.3654501438140869,-0.13454307615756989
1701982293795714600,1.823714599609375,-0.10949759185314178,0.03588833287358284,-0.2474004179239273
1701982293812708000,1.8407080078125,-0.26481008529663086,0.03695734590291977,-0.19944749772548676
1701982293829699000,1.857698974609375,-0.34406983852386475,-0.3904955983161926,-0.11957687139511108
1701982293846699500,1.874699462890625,-0.38377609848976135,-1.109636664390564,0.22052235901355743
1701982293863687700,1.891687744140625,-0.42042800784111023,-1.3674218654632568,0.578489363193512
1701982293880682500,1.9086826171875,-0.2932153046131134,-1.1766791343688965,0.513126790523529
1701982293897678800,1.925678955078125,-0.19043724238872528,-0.6672175526618958,0.20036379992961884
1701982293914667500,1.94266748046875,-0.18906278908252716,-0.08429940044879913,-0.024587325751781464
1701982293931665000,1.959664794921875,-0.14309518039226532,0.22403483092784882,-0.16035212576389313
1701982293948656600,1.97665673828125,-0.021532999351620674,0.49128836393356323,-0.26908615231513977
1701982293965652500,1.993652587890625,0.04489859566092491,0.6669121384620667,-0.32940909266471863
1701982293982640600,2.010640625,0.05543602257966995,0.5722280144691467,-0.3245221674442291
1701982293999638000,2.027637939453125,0.06490442901849747,0.2977968156337738,-0.26893341541290283
1701982294016636400,2.044636474609375,0.09392052888870239,0.008399397134780884,-0.1518000066280365
1701982294033625300,2.061625244140625,0.09239336848258972,-0.1823432743549347,0.0012217304902151227
1701982294050619100,2.078619140625,0.029474247246980667,-0.44852781295776367,0.11026117950677872
1701982294067616000,2.095615966796875,-0.036041051149368286,-0.6849326491355896,0.14385876059532166
1701982294084607200,2.112607177734375,-0.052381694316864014,-0.7163922190666199,0.08567385375499725
1701982294101602600,2.1296025390625,-0.06276640295982361,-0.6630942225456238,-0.021991148591041565
1701982294118597000,2.14659716796875,-0.07131851464509964,-0.6209444999694824,-0.060475658625364304
1701982294135587800,2.163587890625,-0.10659598559141159,-0.6056728959083557,0.04138612002134323
1701982294152575700,2.18057568359375,-0.1495092660188675,-0.6911939978599548,0.21578814089298248
1701982294169578000,2.197577880859375,-0.1498146951198578,-0.7640396952629089,0.3459024429321289
1701982294186572300,2.214572265625,-0.1459967941045761,-0.7637342810630798,0.3949243724346161
1701982294203555800,2.231555908203125,-0.11728613078594208,-0.7547240257263184,0.3602577745914459
1701982294220558000,2.24855810546875,-0.07971791177988052,-0.6172793507575989,0.2945897579193115
1701982294237554700,2.2655546875,-0.08796459436416626,-0.4095851480960846,0.21105393767356873
1701982294254543000,2.282543212890625,-0.11942415684461594,-0.19807305932044983,0.11835514008998871
1701982294271540500,2.29954052734375,-0.12980885803699493,-0.04932736977934837,0.03649919852614403
1701982294288535000,2.31653515625,-0.0910189226269722,0.027488935738801956,0.004123340360820293
1701982294305525800,2.33352587890625,-0.049785517156124115,-0.1748601794242859,-0.03649919852614403
1701982294322521600,2.350521484375,-0.016798794269561768,0.02015855349600315,-0.016340645030140877
1701982294339515600,2.367515625,0.005345070734620094,0.08827003091573715,-0.020922135561704636
1701982294356507600,2.384507568359375,0.03894266113638878,0.12431107461452484,-0.001527163083665073
1701982294373503200,2.401503173828125,0.04856378585100174,0.1745547503232956,0.009773843921720982
1701982294390485500,2.418485595703125,0.07040221989154816,0.05146539583802223,-0.021838432177901268
1701982294407492600,2.43549267578125,0.07757988572120667,0.003817907767370343,-0.04581489413976669
1701982294424481000,2.45248095703125,0.07101308554410934,0.0013744467869400978,-0.06872233748435974
1701982294441468200,2.46946826171875,0.05161811411380768,0.005650503560900688,-0.07330382615327835
1701982294458472700,2.48647265625,0.025045474991202354,-0.00045814894838258624,-0.03573561832308769
1701982294475463700,2.503463623046875,0.0039706239476799965,0.028099801391363144,0.02122756652534008
1701982294492459500,2.52045947265625,0.01160643994808197,0.05604688450694084,0.04199698567390442
1701982294509453600,2.53745361328125,0.01038470957428217,0.044135015457868576,0.013897184282541275
1701982294526447600,2.554447509765625,0.009926560334861279,0.058795779943466187,-0.012828170321881771
1701982294543432000,2.571431884765625,0.007788531947880983,0.04993823543190956,-0.045204028487205505
1701982294560434000,2.588433837890625,-0.009162978269159794,0.03833179548382759,-0.059406645596027374
1701982294577430300,2.60543017578125,-0.013897184282541275,0.06108652427792549,-0.038179077208042145
1701982294594411800,2.622411865234375,-0.007941247895359993,0.07070764899253845,-0.007941247895359993
1701982294611416000,2.639416015625,0.0007635815418325365,0.12095131725072861,0.013286318629980087
1701982294628411000,2.656410888671875,0.0010690141934901476,0.16310101747512817,0.009162978269159794
1701982294645401300,2.6734013671875,0.007177666760981083,0.14905111491680145,0.0013744467869400978
1701982294662397400,2.6903974609375,-0.006719517521560192,0.06551529467105865,-0.0003054326225537807
1701982294679391500,2.7073916015625,-0.01038470957428217,-0.0019853119738399982,0.012828170321881771
1701982294696385800,2.7243857421875,-0.005192354787141085,-0.013133603148162365,0.021532999351620674
1701982294713376500,2.74137646484375,0.0013744467869400978,0.007941247895359993,0.011759156361222267
1701982294730371600,2.75837158203125,-0.008246680721640587,0.06765332818031311,-0.01817324012517929
1701982294747368000,2.775367919921875,0.0032070425804704428,0.0705549344420433,-0.048258353024721146
1701982294764356900,2.79235693359375,0.011453723534941673,0.06017022579908371,-0.04184427112340927
1701982294781354200,2.809354248046875,0.004734205547720194,0.031612277030944824,-0.026572637259960175
1701982294798348500,2.8263486328125,0.0065668015740811825,0.0029016099870204926,-0.029626963660120964
1701982294815336700,2.843336669921875,0.019394971430301666,0.027947084978222847,-0.028557950630784035
1701982294832342000,2.860342041015625,0.02733621932566166,0.05665775015950203,-0.024129176512360573
1701982294849320200,2.8773203125,0.013591751456260681,0.056352317333221436,-0.02367102913558483
1701982294866315000,2.89431494140625,-0.007635815534740686,0.05971207842230797,-0.033597588539123535
1701982294883309300,2.911309326171875,-0.006872233934700489,0.0708603709936142,-0.04489859566092491
1701982294900302300,2.92830224609375,-0.005039638374000788,0.1293507218360901,-0.023518312722444534
1701982294917304000,2.945303955078125,-0.003817907767370343,0.22296582162380219,0.052839845418930054
1701982294934291700,2.962291748046875,0.017409659922122955,0.046731192618608475,0.1270599663257599
1701982294951296500,2.979296630859375,0.009468411095440388,-0.21700987219810486,0.1742493063211441
1701982294968289800,2.996289794921875,-0.02932153269648552,-0.33505958318710327,0.16203200817108154
1701982294985277400,3.01327734375,-0.01114829070866108,-0.2422080636024475,0.06887505948543549
1701982295002273300,3.030273193359375,0.021532999351620674,-0.09392052888870239,-0.06520986557006836
1701982295019267000,3.04726708984375,0.019089538604021072,0.049785517156124115,-0.15073099732398987
1701982295036258800,3.0642587890625,0.006872233934700489,0.09468411654233932,-0.16325373947620392
1701982295053255000,3.0812548828125,-0.007024950347840786,0.029168816283345222,-0.10445795953273773
1701982295070247400,3.098247314453125,-0.02229658141732216,-0.07177666574716568,-0.012675453908741474
1701982295087243800,3.115243896484375,-0.016951510682702065,-0.11667526513338089,0.05955936014652252
1701982295104232400,3.132232421875,-0.00427605677396059,-0.10949759185314178,0.07666359096765518
1701982295121229800,3.149229736328125,0.006261368747800589,-0.08643743395805359,0.04948008432984352
1701982295138224000,3.16622412109375,0.0027488935738801956,-0.02474004216492176,0.01970040425658226
1701982295155215000,3.183215087890625,-0.009162978269159794,-0.004428773187100887,-0.0064140851609408855
1701982295172211000,3.2002109375,-0.010995574295520782,-0.027947084978222847,-0.018936822190880775
1701982295189205000,3.217205078125,0.00015271631127689034,-0.054367005825042725,-0.01572977937757969
1701982295206199300,3.23419921875,0.01237002108246088,-0.08261952549219131,-0.004123340360820293
1701982295223191800,3.25119189453125,0.017867809161543846,-0.07819075137376785,0.014508049935102463
1701982295240185300,3.268185302734375,0.01878410577774048,-0.051770828664302826,0.026572637259960175
1701982295257174800,3.2851748046875,0.016340645030140877,-0.014049900695681572,0.03573561832308769
1701982295274169900,3.302169921875,0.004734205547720194,-0.047800205647945404,0.04260785132646561
1701982295291165700,3.319165771484375,0.0012217304902151227,-0.11636982858181,0.04902193695306778
1701982295308162000,3.336162109375,0.003054326167330146,-0.13041973114013672,0.07009678333997726
1701982295325143600,3.3531435546875,0.006261368747800589,-0.12339477986097336,0.08536841720342636
1701982295342149000,3.370149169921875,0.019853120669722557,-0.10751228034496307,0.08216137439012527
1701982295359143000,3.387142822265625,0.040164388716220856,-0.0858265683054924,0.06536258012056351
1701982295376137200,3.40413720703125,0.04077525436878204,-0.060933809727430344,0.05925392732024193
1701982295393128000,3.4211279296875,0.01618792861700058,-0.0682641938328743,0.06750060617923737
1701982295410123300,3.438123291015625,0.0022907445672899485,-0.1085812970995903,0.06551529467105865
1701982295427119600,3.45511962890625,-0.007177666760981083,-0.14523321390151978,0.060475658625364304
1701982295444108800,3.47210888671875,-0.01466076634824276,-0.1690569519996643,0.05360342562198639
1701982295461097200,3.48909716796875,-0.01466076634824276,-0.1875356286764145,0.04917465150356293
1701982295478099700,3.506099609375,-0.01572977937757969,-0.19593502581119537,0.06490442901849747
1701982295495090700,3.523090576171875,-0.01725694350898266,-0.2565633952617645,0.10308351367712021
1701982295512085000,3.5400849609375,-0.030085112899541855,-0.3378084897994995,0.15775595605373383
1701982295529078800,3.557078857421875,-0.0682641938328743,-0.3882048726081848,0.20326541364192963
1701982295546083000,3.5740830078125,-0.10583240538835526,-0.4570799171924591,0.22372940182685852
1701982295563075600,3.59107568359375,-0.11468994617462158,-0.5283984541893005,0.24648413062095642
1701982295580055600,3.6080556640625,-0.08506298810243607,-0.6243042945861816,0.289702832698822
1701982295597058600,3.62505859375,-0.03787364438176155,-0.7826710939407349,0.3237585723400116
1701982295614047000,3.642046875,-0.013591751456260681,-0.8817839622497559,0.3321579694747925
1701982295631043800,3.6590439453125,-0.012522737495601177,-0.8663596510887146,0.3199406862258911
1701982295648034300,3.676034423828125,-0.04153883829712868,-0.7408268451690674,0.29596421122550964
1701982295665031200,3.69303125,-0.08399397134780884,-0.53328537940979,0.19074267148971558
1701982295682014200,3.71001416015625,-0.12370020896196365,-0.07819075137376785,-0.037110064178705215
1701982295699014400,3.727014404296875,-0.07635815441608429,0.39874228835105896,-0.10965031385421753
1701982295716011300,3.74401123046875,-0.04948008432984352,0.5978843569755554,-0.20662516355514526
1701982295733018400,3.761018310546875,-0.026572637259960175,0.6910412907600403,-0.323147714138031
1701982295749994500,3.777994384765625,0.0007635815418325365,0.7237225770950317,-0.45875978469848633
1701982295766995200,3.7949951171875,0.009621127508580685,0.7791585922241211,-0.5691736936569214
1701982295783978000,3.81197802734375,-0.02519819140434265,0.8422304391860962,-0.6160575747489929
1701982295800982800,3.828982666015625,-0.052839845418930054,0.8639161586761475,-0.5954409241676331
1701982295817976600,3.8459765625,-0.039706241339445114,0.8147414922714233,-0.5719226002693176
1701982295834966300,3.86296630859375,0.030237829312682152,0.8790351152420044,-0.53328537940979
1701982295851962600,3.879962646484375,0.08796459436416626,0.9509644508361816,-0.4499022662639618
1701982295868956700,3.896956787109375,0.054367005825042725,1.0228939056396484,-0.31261029839515686
1701982295885947400,3.913947509765625,-0.07208210229873657,0.8452847599983215,-0.15943582355976105
1701982295902944800,3.93094482421875,-0.07880161702632904,0.2958115041255951,-0.10491610318422318
1701982295919936800,3.947936767578125,-0.03680463135242462,0.05910121276974678,-0.06887505948543549
1701982295936933400,3.964933349609375,-0.07070764899253845,0.14706580340862274,-0.04505131021142006
1701982295953918700,3.981918701171875,-0.10201449692249298,0.21899518370628357,-0.10674870014190674
1701982295970919200,3.998919189453125,-0.060322944074869156,0.2704605758190155,-0.2606867551803589
1701982295987913500,4.01591357421875,-0.014966198243200779,0.3865249752998352,-0.39553526043891907
1701982296004896000,4.03289599609375,0.012675453908741474,0.5303837656974792,-0.4138612151145935
1701982296021900300,4.049900390625,0.038179077208042145,0.5624541640281677,-0.3217732608318329
1701982296038892500,4.066892578125,0.08399397134780884,0.4885394871234894,-0.20387627184391022
1701982296055887000,4.08388720703125,0.11621711403131485,0.47219884395599365,-0.1033889427781105
1701982296072882700,4.100882568359375,0.09147707372903824,0.5642867684364319,-0.030237829312682152
1701982296089874700,4.117874755859375,0.08720101416110992,0.650418758392334,-0.023060163483023643
1701982296106870800,4.134870849609375,0.1589776873588562,0.7292203903198242,-0.03039054572582245
1701982296123863600,4.151863525390625,0.23365595936775208,0.7840455174446106,0.021838432177901268
1701982296140857300,4.168857421875,0.2557998299598694,0.779464066028595,0.1014036312699318
1701982296157851400,4.185851318359375,0.24587325751781464,0.7267768979072571,0.06490442901849747
1701982296174835000,4.2028349609375,0.28909197449684143,0.6934847831726074,-0.00855211354792118
1701982296191835600,4.219835693359375,0.3006984293460846,0.6299547553062439,-0.06322455406188965
1701982296208834800,4.236834716796875,0.27122417092323303,0.46502116322517395,-0.09269879758358002
1701982296225833200,4.253833251953125,0.2402227520942688,0.3039054572582245,-0.012675453908741474
1701982296242820600,4.270820556640625,0.16279558837413788,0.244804248213768,0.09789115190505981
1701982296259812400,4.287812255859375,0.07024950534105301,0.12507465481758118,0.18509216606616974
1701982296276809000,4.30480908203125,-0.01725694350898266,-0.12232576310634613,0.14126259088516235
1701982296293797600,4.321797607421875,-0.026114489883184433,-0.30482175946235657,0.05711590126156807
1701982296310794800,4.338794677734375,-0.05100724846124649,-0.3706424832344055,-0.027030786499381065
1701982296327789300,4.355789306640625,-0.10674870014190674,-0.3075706362724304,-0.03375030308961868
1701982296344773600,4.372773681640625,-0.166460782289505,-0.34055736660957336,0.003512475173920393
1701982296361774800,4.38977490234375,-0.18341228365898132,-0.337503045797348,-0.029474247246980667
1701982296378771000,4.40677099609375,-0.17027868330478668,-0.3257438838481903,-0.06429356336593628
1701982296395753500,4.42375341796875,-0.16264286637306213,-0.35552358627319336,-0.014049900695681572
1701982296412758300,4.44075830078125,-0.1440114825963974,-0.4144720733165741,0.09636399149894714
1701982296429749200,4.457749267578125,-0.17119498550891876,-0.5523748993873596,0.16752979159355164
1701982296446746000,4.47474609375,-0.22189679741859436,-0.7244861721992493,0.20631973445415497
1701982296463738600,4.491738525390625,-0.26862800121307373,-0.7683157324790955,0.2672535479068756
1701982296480732200,4.508732177734375,-0.3364340364933014,-0.7808384895324707,0.35613444447517395
1701982296497727500,4.5257275390625,-0.39217549562454224,-0.9799805879592896,0.4433354437351227
1701982296514717700,4.5427177734375,-0.3423899710178375,-1.0364855527877808,0.48808133602142334
1701982296531713000,4.559713134765625,-0.24434609711170197,-0.9135489463806152,0.43020185828208923
1701982296548707600,4.57670751953125,-0.12767083942890167,-0.6571382880210876,0.24037547409534454
1701982296565700400,4.593700439453125,-0.010842857882380486,-0.2577851414680481,-0.04153883829712868
1701982296582696400,4.610696533203125,0.06643159687519073,0.2542726695537567,-0.26190847158432007
1701982296599688200,4.627688232421875,0.1036943718791008,0.6624833345413208,-0.28680121898651123
1701982296616684800,4.644684814453125,0.1270599663257599,0.8246681094169617,-0.18127426505088806
1701982296633674500,4.661674560546875,0.06520986557006836,0.8943067193031311,0.059406645596027374
1701982296650669800,4.678669921875,0.05207626149058342,0.2819143235683441,0.09804387390613556
1701982296667666000,4.695666015625,0.1310305893421173,-0.26221391558647156,0.0936150997877121
1701982296684655600,4.712655517578125,0.15134187042713165,-0.2952006161212921,0.06200282275676727
1701982296701651000,4.72965087890625,0.12202033400535583,-0.03878994286060333,0.02871066704392433
1701982296718647300,4.746647216796875,0.08674286305904388,0.015118914656341076,-0.10384709388017654
1701982296735636000,4.763635986328125,0.09544769674539566,-0.015882495790719986,-0.2612976133823395
1701982296752634400,4.78063427734375,0.09682214260101318,0.023976460099220276,-0.30375275015830994
1701982296769615600,4.79761572265625,0.04657847434282303,0.11652254313230515,-0.1437060534954071
1701982296786622200,4.814622314453125,0.00045814894838258624,0.192422553896904,0.18219055235385895
1701982296803611600,4.831611572265625,0.02076941914856434,0.2590068578720093,0.28328874707221985
1701982296820607700,4.848607666015625,0.01725694350898266,0.46303585171699524,0.18112154304981232
1701982296837603800,4.865603759765625,0.0731511116027832,0.7773260474205017,0.09162978827953339
1701982296854593500,4.882593505859375,0.17776179313659668,0.9286679029464722,0.06780604273080826
1701982296871588900,4.8995888671875,0.2958115041255951,0.8982773423194885,-0.01771509274840355
1701982296888585500,4.91658544921875,0.33948835730552673,0.8808676600456238,-0.07009678333997726
1701982296905574000,4.933573974609375,0.2646573781967163,0.5691736936569214,0.05375614017248154
1701982296922572000,4.950572021484375,0.17501288652420044,-0.12797626852989197,-0.030085112899541855
1701982296939564000,4.96756396484375,0.14935655891895294,-0.26939156651496887,-0.098502017557621
1701982296956560400,4.984560302734375,0.056352317333221436,-0.06322455406188965,-0.0910189226269722
1701982296973549300,5.00154931640625,-0.06994406878948212,0.09376781433820724,-0.10644327104091644
1701982296990546200,5.018546142578125,-0.09040805697441101,0.21868975460529327,-0.168751522898674
1701982297007540700,5.035540771484375,-0.016493361443281174,0.4291328489780426,-0.2102903574705124
1701982297024522800,5.052522705078125,0.08674286305904388,0.6210972666740417,-0.22800545394420624
1701982297041535200,5.06953515625,0.17043140530586243,0.6623306274414062,-0.18570303916931152
1701982297058525000,5.08652490234375,0.20402899384498596,0.6160575747489929,0.004886921960860491
1701982297075514600,5.1035146484375,0.17531833052635193,0.45891252160072327,0.2739730477333069
1701982297092510000,5.120510009765625,0.08277224004268646,0.30024027824401855,0.4628831446170807
1701982297109502000,5.137501953125,-0.005650503560900688,-0.384845107793808,0.33292156457901
1701982297126498300,5.154498291015625,-0.030695978552103043,-0.6522513628005981,0.07941248267889023
1701982297143487200,5.1714873046875,-0.06261368840932846,-0.2791654169559479,-0.11224649101495743
1701982297160484000,5.188484130859375,-0.17470745742321014,-0.11331550031900406,-0.21319197118282318
1701982297177478700,5.205478759765625,-0.26145032048225403,-0.35262197256088257,-0.23487769067287445
1701982297194469600,5.2224697265625,-0.33628132939338684,-0.8539896011352539,0.14385876059532166
1701982297211464400,5.23946435546875,-0.28069257736206055,-0.6192646622657776,0.2588541507720947
1701982297228461300,5.25646142578125,-0.1927279829978943,-0.2921462953090668,0.11010845750570297
1701982297245434400,5.273434326171875,-0.10216721147298813,0.060933809727430344,-0.061391957104206085
1701982297262447900,5.29044775390625,0.021074850112199783,0.30482175946235657,-0.1411098688840866
1701982297279440400,5.3074404296875,0.1609629988670349,0.31642818450927734,-0.14446963369846344
1701982297296436000,5.32443603515625,0.19517144560813904,0.252287358045578,0.09483683109283447
1701982297313425000,5.3414248046875,0.10766500234603882,-0.10873401165008545,-0.031154127791523933
1701982297330422000,5.358422119140625,0.09972374886274338,-0.04046982154250145,-0.14492778480052948
1701982297347416600,5.37541650390625,0.07116580009460449,0.3721696436405182,-0.06062837690114975
1701982297364407300,5.3924072265625,0.025503624230623245,0.6168211698532104,-0.008857546374201775
1701982297381402600,5.409402587890625,0.039248090237379074,0.543059229850769,-0.1134682223200798
1701982297398399000,5.42639892578125,0.10735956579446793,0.4547891616821289,-0.21762074530124664
1701982297415380700,5.443380615234375,0.15363261103630066,0.43967026472091675,-0.20586158335208893
1701982297432381400,5.46038134765625,0.1872301995754242,0.3433062732219696,-0.04184427112340927
1701982297449382000,5.4773818359375,0.16340644657611847,0.11514809727668762,0.19288070499897003
1701982297466374100,5.4943740234375,0.07498370856046677,-0.06352998316287994,0.37598755955696106
1701982297483355600,5.511355712890625,-0.020616702735424042,-0.385303258895874,0.28206703066825867
1701982297500360000,5.52835986328125,-0.04337143152952194,-0.4847215712070465,0.03955352306365967
1701982297517354800,5.545354736328125,-0.07147123664617538,-0.35552358627319336,-0.16844609379768372
1701982297534345200,5.56234521484375,-0.1736384481191635,-0.11407908797264099,-0.29856038093566895
1701982297551340300,5.57934033203125,-0.28985556960105896,-0.4688390791416168,-0.2353358417749405
1701982297568337000,5.5963369140625,-0.3430008292198181,-0.7385360598564148,0.020311269909143448
1701982297585324500,5.613324462890625,-0.2796235680580139,-0.3562871515750885,0.07009678333997726
1701982297602323200,5.6303232421875,-0.22403483092784882,-0.18600846827030182,0.05054909735918045
1701982297619334700,5.647334716796875,-0.11224649101495743,-0.09056077152490616,0.09865473955869675
1701982297636307200,5.66430712890625,-0.008704829961061478,-0.03878994286060333,0.11499538272619247
1701982297653302000,5.681302001953125,0.10018189996480942,-0.07757988572120667,0.06352998316287994
1701982297670301400,5.698301513671875,0.15073099732398987,-0.12889257073402405,0.06200282275676727
1701982297687296800,5.715296875,0.08735372871160507,-0.15302173793315887,0.1849394589662552
1701982297704286500,5.732286376953125,0.043218716979026794,-0.21960605680942535,0.024434609338641167
1701982297721279200,5.749279296875,0.02733621932566166,-0.07696902006864548,-0.11239920556545258
1701982297738274800,5.76627490234375,-0.030543262138962746,0.0555887371301651,-0.12965615093708038
1701982297755263500,5.783263427734375,-0.13454307615756989,0.03344487398862839,-0.06948592513799667
1701982297772261400,5.800261474609375,-0.1713477075099945,-0.04688390716910362,-0.09346238523721695
1701982297789253600,5.817253662109375,-0.12400564551353455,-0.0455094613134861,-0.17791450023651123
1701982297806250000,5.83425,-0.051770828664302826,0.023365596309304237,-0.20723603665828705
1701982297823239200,5.8512392578125,0.025045474991202354,0.09498954564332962,-0.13454307615756989
1701982297840234500,5.868234375,0.053297992795705795,0.06688974797725677,-0.010079276748001575
1701982297857227800,5.885227783203125,0.04046982154250145,-0.009773843921720982,0.10399980843067169
1701982297874223600,5.9022236328125,0.03481931984424591,-0.06918048858642578,0.13118331134319305
1701982297891221800,5.9192216796875,0.06200282275676727,-0.04214970022439957,0.0884227454662323
1701982297908215600,5.936215576171875,0.08949175477027893,0.02275473065674305,0.019394971430301666
1701982297925198600,5.953198486328125,0.13637566566467285,0.23594669997692108,0.14126259088516235
1701982297942199800,5.97019970703125,0.06688974797725677,0.10705413669347763,0.17898350954055786
1701982297959190000,5.98718994140625,0.03039054572582245,-0.045204028487205505,0.08368854224681854
1701982297976189700,6.004189697265625,0.012064588256180286,-0.001679879380390048,0.04245513305068016
1701982297993178000,6.02117822265625,-0.01572977937757969,0.14767667651176453,0.12980885803699493
1701982298010174000,6.038174072265625,-0.023365596309304237,0.1365283876657486,0.11774427443742752
1701982298027168300,6.055168212890625,0.05375614017248154,0.1111774742603302,-0.001527163083665073
1701982298044159200,6.0721591796875,0.11484266817569733,0.1270599663257599,-0.12064588814973831
1701982298061161000,6.089160888671875,0.18448130786418915,0.2269364446401596,-0.1212567538022995
1701982298078150700,6.106150634765625,0.2015855312347412,0.2635883390903473,0.009010262787342072
1701982298095140400,6.123140380859375,0.16203200817108154,0.13958270847797394,0.18585574626922607
1701982298112137700,6.1401376953125,0.09575312584638596,-0.024434609338641167,0.27030786871910095
1701982298129129200,6.157129150390625,0.0019853119738399982,-0.21639901399612427,0.28588494658470154
1701982298146125800,6.174125732421875,-0.04306599870324135,-0.7301366925239563,0.2064724564552307
1701982298163114800,6.19111474609375,-0.01160643994808197,-0.927446186542511,0.044287730008363724
1701982298180112000,6.20811181640625,-0.06017022579908371,-0.6362161636352539,-0.1540907621383667
1701982298197106200,6.225106201171875,-0.16752979159355164,-0.3969096839427948,-0.3390302062034607
1701982298214097000,6.242096923828125,-0.2373211532831192,-0.265573650598526,-0.48166725039482117
1701982298231092200,6.25909228515625,-0.2509129047393799,-0.2148718535900116,-0.4242459237575531
1701982298248086000,6.2760859375,-0.2376265823841095,-0.256868839263916,-0.144622340798378
1701982298265080800,6.293080810546875,-0.22052235901355743,-0.2767219543457031,0.15485434234142303
1701982298282075400,6.310075439453125,-0.19624045491218567,-0.16752979159355164,0.19608774781227112
1701982298299067400,6.3270673828125,-0.1264491081237793,0.07467827945947647,0.09498954564332962
1701982298316041700,6.344041748046875,0.005345070734620094,0.3810271918773651,-0.1082758679986
1701982298333055500,6.361055419921875,0.1609629988670349,0.5013676285743713,-0.24846944212913513
1701982298350053000,6.37805322265625,0.3039054572582245,0.5485569834709167,-0.13775011897087097
1701982298367044400,6.39504443359375,0.28038713335990906,0.37751471996307373,0.12568552792072296
1701982298384035000,6.41203515625,0.21105393767356873,-0.004123340360820293,0.06429356336593628
1701982298401032400,6.429032470703125,0.1719585657119751,0.02535090781748295,-0.05390885844826698
1701982298418024400,6.4460244140625,0.0988074541091919,0.3194825351238251,-0.14538592100143433
1701982298435016400,6.463016357421875,-0.00733038317412138,0.5815436840057373,-0.1189660057425499
1701982298452003300,6.48000341796875,-0.07971791177988052,0.5207626223564148,-0.15974126756191254
1701982298469002200,6.497002197265625,-0.08307767659425735,0.361174076795578,-0.21212296187877655
1701982298486003000,6.5140029296875,-0.10399980843067169,-0.154396191239357,-0.03344487398862839
1701982298502989800,6.53098974609375,-0.17180584371089935,-0.6473644375801086,0.48197266459465027
1701982298519992800,6.547992919921875,-0.13973543047904968,-0.20586158335208893,0.45891252160072327
1701982298536961000,6.5649609375,-0.0659734457731247,0.1059851199388504,0.1875356286764145
1701982298553973500,6.581973388671875,0.00045814894838258624,0.3825543522834778,0.01924225501716137
1701982298570971000,6.598970947265625,0.058795779943466187,0.24908030033111572,-0.04535674303770065
1701982298587965000,6.61596484375,0.11850785464048386,-0.052228979766368866,-0.039706241339445114
1701982298604953000,6.632953125,0.14355333149433136,-0.13225232064723969,0.1595885455608368
1701982298621951000,6.649950927734375,0.06490442901849747,-0.36010506749153137,0.3724750876426697
1701982298638943700,6.66694384765625,0.043218716979026794,-0.47280970215797424,0.23426681756973267
1701982298655936000,6.68393603515625,0.008704829961061478,-0.24083362519741058,-0.0012217304902151227
1701982298672931300,6.700931396484375,-0.059406645596027374,0.05009094998240471,-0.10903944820165634
1701982298689925400,6.71792529296875,-0.14355333149433136,0.1846340149641037,-0.0936150997877121
1701982298706917400,6.73491748046875,-0.18707747757434845,0.08399397134780884,-0.0861319974064827
1701982298723910700,6.75191064453125,-0.1437060534954071,0.01817324012517929,-0.04917465150356293
1701982298740906000,6.768906005859375,-0.047800205647945404,0.0328340083360672,-0.02321287989616394
1701982298757901800,6.78590185546875,0.09315694868564606,0.12751811742782593,-0.027488935738801956
1701982298774887700,6.8028876953125,0.2154827117919922,0.3436116874217987,-0.03527746722102165
1701982298791889200,6.81988916015625,0.2719877362251282,0.6172793507575989,0.014355333521962166
1701982298808875500,6.83687548828125,0.26374107599258423,0.7351763248443604,0.13301590085029602
1701982298825874200,6.853874267578125,0.18936823308467865,0.564592182636261,0.2275473028421402
1701982298842859000,6.87085888671875,0.11102475970983505,0.16814066469669342,0.2594650089740753
1701982298859863600,6.887863525390625,0.0074830991216003895,0.0682641938328743,0.3364340364933014
1701982298876855000,6.90485498046875,-0.07483099400997162,-0.1062905490398407,0.25213462114334106
1701982298893854500,6.9218544921875,-0.028405234217643738,-0.18860463798046112,0.08964447677135468
1701982298910842400,6.93884228515625,-0.06872233748435974,-0.16523905098438263,-0.05146539583802223
1701982298927842000,6.955842041015625,-0.12522737681865692,0.004734205547720194,-0.10644327104091644
1701982298944832300,6.972832275390625,-0.19807305932044983,-0.07498370856046677,-0.13927727937698364
1701982298961827000,6.9898271484375,-0.2154827117919922,-0.5816964507102966,-0.032528575509786606
1701982298978801400,7.006801513671875,-0.24144448339939117,-0.712574303150177,0.27718010544776917
1701982298995816400,7.02381640625,-0.2025018334388733,-0.33689218759536743,0.3602577745914459
1701982299012806000,7.040805908203125,-0.13729196786880493,-0.14966198801994324,0.24785856902599335
1701982299029802200,7.05780224609375,-0.09468411654233932,-0.17928895354270935,0.16493362188339233
1701982299046795300,7.074795166015625,-0.07788532227277756,-0.2623666226863861,0.11667526513338089
1701982299063789800,7.091789794921875,-0.05253441259264946,-0.36300668120384216,0.06963863968849182
1701982299080782600,7.108782470703125,-0.06169738993048668,-0.5716171264648438,0.035124752670526505
1701982299097777400,7.12577734375,-0.06414084881544113,-0.6284276247024536,0.02367102913558483
1701982299114770400,7.1427705078125,-0.07040221989154816,-0.5546656250953674,0.004123340360820293
1701982299131765000,7.159764892578125,-0.08491026610136032,-0.4888449013233185,-0.04092797264456749
1701982299148768300,7.176768310546875,-0.08307767659425735,-0.3124575614929199,-0.096211276948452
1701982299165752600,7.193752685546875,-0.07819075137376785,-0.09040805697441101,-0.1466076523065567
1701982299182745300,7.210745361328125,-0.10002918541431427,-0.09346238523721695,0.10690141469240189
1701982299199740200,7.227740234375,-0.0835358202457428,0.19043724238872528,0.16019940376281738
1701982299216729300,7.244729248046875,-0.02886338345706463,0.3039054572582245,0.023365596309304237
1701982299233720800,7.261720947265625,0.0064140851609408855,0.27320948243141174,-0.17791450023651123
1701982299250728700,7.278728759765625,0.04688390716910362,0.260992169380188,-0.2747366428375244
1701982299267715300,7.29571533203125,0.08139779418706894,0.15592335164546967,-0.28817567229270935
1701982299284708000,7.3127080078125,0.1108720451593399,-0.05971207842230797,-0.2580905556678772
1701982299301703000,7.329702880859375,0.09300423413515091,-0.2513710558414459,-0.1843285858631134
1701982299318696000,7.346696044921875,0.036651913076639175,-0.26801711320877075,-0.09269879758358002
1701982299335690500,7.3636904296875,-0.018936822190880775,-0.13744467496871948,-0.044135015457868576
1701982299352683300,7.380683349609375,-0.04764748737215996,-0.12736541032791138,-0.06505715101957321
1701982299369661000,7.397660888671875,-0.0656680166721344,-0.17012597620487213,0.12095131725072861
1701982299386674000,7.414673828125,-0.05955936014652252,0.03390302136540413,0.11850785464048386
1701982299403662800,7.431662841796875,-0.03344487398862839,0.16814066469669342,-0.03222314268350601
1701982299420658700,7.44865869140625,-0.012828170321881771,0.27947086095809937,-0.1310305893421173
1701982299437653500,7.465653564453125,0.06261368840932846,0.2509129047393799,-0.12140946835279465
1701982299454635800,7.4826357421875,0.194713294506073,0.07757988572120667,-0.07757988572120667
1701982299471643000,7.499642822265625,0.2629774808883667,-0.0656680166721344,-0.02168571576476097
1701982299488633600,7.516633544921875,0.2125810980796814,-0.024129176512360573,0.20005837082862854
1701982299505628700,7.533628662109375,0.11774427443742752,-0.1235474944114685,0.1293507218360901
1701982299522621400,7.550621337890625,0.13820825517177582,-0.10980302840471268,-0.048105638474226
1701982299539616300,7.5676162109375,0.09193521738052368,0.00855211354792118,-0.24159720540046692
1701982299556609500,7.584609619140625,0.05115996301174164,0.2021963894367218,-0.28985556960105896
1701982299573603000,7.60160302734375,-0.004581489134579897,0.36193767189979553,-0.20662516355514526
1701982299590596400,7.618596435546875,-0.06001751124858856,0.26190847158432007,-0.17088955640792847
1701982299607593500,7.635593505859375,-0.03573561832308769,0.07895433157682419,-0.17287486791610718
1701982299624575000,7.652574951171875,0.009621127508580685,-0.02687807008624077,-0.14095716178417206
1701982299641570000,7.669570068359375,0.031001411378383636,-0.0754418596625328,-0.06520986557006836
1701982299658571800,7.68657177734375,0.028557950630784035,-0.09712757170200348,0.0032070425804704428
1701982299675566600,7.703566650390625,0.017867809161543846,-0.060475658625364304,0.07254024595022202
1701982299692559000,7.72055908203125,-0.012980886735022068,-0.06368270516395569,0.10903944820165634
1701982299709554200,7.73755419921875,-0.04352414980530739,-0.15683965384960175,0.10170906037092209
1701982299726547000,7.754546875,-0.05100724846124649,-0.18127426505088806,0.08399397134780884
1701982299743542000,7.7715419921875,-0.046273041516542435,-0.11194105446338654,0.05803219974040985
1701982299760534800,7.78853466796875,-0.030237829312682152,-0.11407908797264099,0.023365596309304237
1701982299777529300,7.805529296875,-0.003817907767370343,-0.22220222651958466,0.0007635815418325365
1701982299794519600,7.82251953125,-0.02015855349600315,-0.29657506942749023,0.014202617108821869
1701982299811519500,7.83951953125,-0.06230825558304787,-0.1817324161529541,0.02367102913558483
1701982299828509700,7.856509765625,-0.05757404863834381,-0.15317445993423462,0.001832595793530345
1701982299845504800,7.8735048828125,-0.024129176512360573,-0.18127426505088806,0.01191187184303999
1701982299862497300,7.890497314453125,-0.022602014243602753,-0.23900102078914642,0.060933809727430344
1701982299879492000,7.9074921875,-0.05467243865132332,-0.17791450023651123,0.1290452778339386
1701982299896484900,7.92448486328125,-0.06948592513799667,0.03634648025035858,0.13973543047904968
1701982299913479700,7.941479736328125,-0.024587325751781464,0.05253441259264946,0.0507018156349659
1701982299930472400,7.958472412109375,0.001679879380390048,-0.09789115190505981,0.1889100819826126
1701982299947467300,7.97546728515625,0.048258353024721146,-0.024587325751781464,0.17806722223758698
1701982299964460000,7.9924599609375,0.04948008432984352,0.35613444447517395,0.05390885844826698
1701982299981454800,8.009454833984375,0.0429132841527462,0.7612907886505127,-0.04153883829712868
1701982299998447600,8.026447509765624,0.08643743395805359,0.9340129494667053,-0.030085112899541855
1701982300015447300,8.043447265625,0.19944749772548676,0.8506298661231995,-0.04917465150356293
1701982300032435200,8.060435302734374,0.3147483170032501,0.65958172082901,-0.09056077152490616
1701982300049411300,8.077411376953124,0.3332269787788391,0.45433104038238525,-0.06612616032361984
1701982300066423000,8.094423095703124,0.2015855312347412,0.1033889427781105,-0.0032070425804704428
1701982300083417600,8.11141748046875,0.10934487730264664,-0.4355469346046448,-0.08155050873756409
1701982300100410400,8.128410400390624,0.09254608303308487,-0.45723262429237366,-0.18387043476104736
1701982300117405200,8.1454052734375,-0.032681290060281754,-0.17027868330478668,-0.1797471046447754
1701982300134398200,8.162398193359374,-0.24327708780765533,0.0027488935738801956,-0.11667526513338089
1701982300151392800,8.179392822265624,-0.2942843437194824,0.04489859566092491,-0.09407325088977814
1701982300168385500,8.196385498046874,-0.22281309962272644,-0.013897184282541275,-0.06368270516395569
1701982300185380400,8.21338037109375,-0.14034628868103027,-0.13087788224220276,0.026419922709465027
1701982300202371800,8.230371826171876,-0.04856378585100174,-0.12538009881973267,0.12797626852989197
1701982300219371000,8.24737109375,0.012980886735022068,-0.03237585723400116,0.20128010213375092
1701982300236360700,8.264360595703126,0.050243668258190155,0.10537425428628922,0.24495697021484375
1701982300253355800,8.281355712890624,-0.003359758760780096,0.10064005106687546,0.3016147017478943
1701982300270349800,8.298349853515624,0.03237585723400116,-0.2782491147518158,0.08521570265293121
1701982300287340500,8.315340576171875,0.07895433157682419,-0.2974913716316223,-0.19578230381011963
1701982300304338400,8.33233837890625,0.043218716979026794,0.08994990587234497,-0.3315471112728119
1701982300321330700,8.34933056640625,-0.06780604273080826,0.30405816435813904,-0.32650747895240784
1701982300338323700,8.36632373046875,-0.12140946835279465,-0.01191187184303999,-0.08964447677135468
1701982300355318500,8.383318603515624,-0.09941831976175308,0.09834930300712585,-0.02275473065674305
1701982300372311000,8.40031103515625,-0.05161811411380768,0.12049316614866257,-0.0633772686123848
1701982300389305900,8.417305908203126,0.001679879380390048,0.04703662544488907,0.005039638374000788
1701982300406289200,8.4342890625,0.05009094998240471,-0.08460483700037003,0.08903361111879349
1701982300423293400,8.45129345703125,0.11438451707363129,-0.1293507218360901,0.1059851199388504
1701982300440270300,8.468270263671876,0.12996158003807068,-0.06902777403593063,0.11682797968387604
1701982300457281000,8.485281005859376,0.030237829312682152,-0.05268712714314461,0.20204368233680725
1701982300474273800,8.502273681640625,-0.0007635815418325365,-0.12034045159816742,0.048105638474226
1701982300491258400,8.51925830078125,0.012217304669320583,-0.01160643994808197,-0.09468411654233932
1701982300508258800,8.5362587890625,-0.01725694350898266,0.16401731967926025,-0.15073099732398987
1701982300525259000,8.553259033203124,-0.06276640295982361,0.29168814420700073,-0.12721268832683563
1701982300542259200,8.57025927734375,-0.10461067408323288,0.21533000469207764,-0.17898350954055786
1701982300559243800,8.587243896484376,-0.01878410577774048,0.05543602257966995,-0.23640485107898712
1701982300576236500,8.604236572265625,0.030237829312682152,-0.0024434609804302454,-0.19914206862449646
1701982300593231400,8.6212314453125,0.02015855349600315,0.058337632566690445,-0.09636399149894714
1701982300610224400,8.638224365234375,0.016035212203860283,0.08277224004268646,-0.03176499158143997
1701982300627219500,8.655219482421876,0.041233405470848083,0.09056077152490616,-0.0013744467869400978
1701982300644212000,8.6722119140625,0.025503624230623245,0.10430523753166199,0.04642575979232788
1701982300661198600,8.689198486328126,-0.011759156361222267,0.03481931984424591,0.09926560521125793
1701982300678200600,8.70620068359375,-0.033597588539123535,0.006108652334660292,0.11911872029304504
1701982300695193300,8.723193359375,-0.01878410577774048,0.1281289905309677,0.08017606288194656
1701982300712187100,8.740187255859375,0.06414084881544113,0.2298380434513092,-0.00045814894838258624
1701982300729182200,8.75718212890625,0.11514809727668762,0.33169981837272644,-0.04856378585100174
1701982300746174700,8.7741748046875,0.11636982858181,0.3501785099506378,-0.04963280260562897
1701982300763169500,8.79116943359375,0.12110403180122375,0.3344487249851227,0.008704829961061478
1701982300780162300,8.808162353515625,0.13561208546161652,0.34147366881370544,0.06979135423898697
1701982300797157000,8.8251572265625,0.17150041460990906,0.2499966025352478,0.09269879758358002
1701982300814150000,8.84214990234375,0.1963931769132614,0.24984388053417206,0.19364428520202637
1701982300831145000,8.85914501953125,0.10247264802455902,-0.005192354787141085,0.21044307947158813
1701982300848137500,8.876137451171875,0.044745877385139465,-0.1719585657119751,0.04214970022439957
1701982300865129700,8.893129638671875,0.01237002108246088,-0.11026117950677872,-0.16814066469669342
1701982300882127600,8.910127685546875,-0.04581489413976669,0.07299839705228806,-0.235030397772789
1701982300899119900,8.927119873046875,-0.10934487730264664,0.2405281960964203,-0.14294247329235077
1701982300916112600,8.944112548828125,-0.11484266817569733,0.182648703455925,-0.09743300825357437
1701982300933107500,8.961107421875,-0.02825251780450344,0.13607023656368256,-0.11957687139511108
1701982300950100200,8.978100341796875,0.06520986557006836,0.058184914290905,-0.21074850857257843
1701982300967095000,8.995094970703125,0.1495092660188675,0.0731511116027832,-0.2217440903186798
1701982300984087800,9.012087890625,0.13790282607078552,0.03191770985722542,-0.09514226019382477
1701982301001082600,9.02908251953125,0.08399397134780884,-0.009926560334861279,0.08689557760953903
1701982301018075400,9.046075439453125,0.0064140851609408855,0.07635815441608429,0.24113905429840088
1701982301035070200,9.0630703125,-0.09987647086381912,-0.23289237916469574,0.2275473028421402
1701982301052063000,9.08006298828125,-0.06414084881544113,-0.38438695669174194,0.03222314268350601
1701982301069047300,9.09704736328125,-0.06154467165470123,-0.07666359096765518,-0.1235474944114685
1701982301086050000,9.114050048828124,-0.14248432219028473,0.21044307947158813,-0.16600263118743896
1701982301103046100,9.131046142578125,-0.18555031716823578,0.2727513313293457,-0.19058994948863983
1701982301120038400,9.148038330078125,-0.15286903083324432,0.22678372263908386,-0.17516560852527618
1701982301137030400,9.165030517578124,-0.07880161702632904,0.12660181522369385,-0.0806342139840126
1701982301154028300,9.1820283203125,-0.047189339995384216,-0.04566217586398125,0.030085112899541855
1701982301171020500,9.1990205078125,0.0027488935738801956,-0.1281289905309677,0.09468411654233932
1701982301188013300,9.216013427734374,0.06200282275676727,-0.10552696883678436,0.0936150997877121
1701982301205008100,9.233008056640625,0.056352317333221436,-0.15042556822299957,0.2171625941991806
1701982301222001200,9.250001220703124,0.01191187184303999,-0.3908010423183441,0.08032877743244171
1701982301238996000,9.266995849609375,-0.032681290060281754,-0.2620611786842346,-0.06811147183179855
1701982301255988500,9.283988525390624,-0.11316278576850891,-0.07819075137376785,-0.025961773470044136
1701982301272983600,9.300983642578124,-0.17241671681404114,-0.05711590126156807,0.0981965884566307
1701982301289976300,9.317976318359374,-0.1647808998823166,-0.10170906037092209,0.09178250283002853
1701982301306961400,9.33496142578125,-0.08994990587234497,-0.1371392458677292,0.06536258012056351
1701982301323960000,9.3519599609375,-0.03695734590291977,-0.11652254313230515,0.08170322328805923
1701982301340962800,9.368962890625,0.005039638374000788,-0.02825251780450344,0.05161811411380768
1701982301357951500,9.385951416015626,0.06963863968849182,0.07559457421302795,-0.014813481830060482
1701982301374946300,9.4029462890625,0.08292495459318161,0.12049316614866257,0.13469578325748444
1701982301391939000,9.41993896484375,0.03130684420466423,-0.12553280591964722,0.09178250283002853
1701982301408933600,9.43693359375,0.03298672288656235,-0.08216137439012527,-0.011759156361222267
1701982301425926700,9.4539267578125,0.01237002108246088,0.0981965884566307,-0.08827003091573715
1701982301442921500,9.47092138671875,0.007941247895359993,0.3497203588485718,-0.1033889427781105
1701982301459914200,9.487914306640626,0.01970040425658226,0.35613444447517395,-0.16203200817108154
1701982301476908800,9.50490869140625,0.08048149943351746,0.28237244486808777,-0.19685132801532745
1701982301493889500,9.5218896484375,0.13775011897087097,0.26893341541290283,-0.14477506279945374
1701982301510889000,9.538888916015624,0.166460782289505,0.2513710558414459,-0.041691552847623825
1701982301527900000,9.55589990234375,0.17379115521907806,0.30802878737449646,0.09957103431224823
1701982301544883700,9.5728837890625,0.15515977144241333,0.3880521357059479,0.28787025809288025
1701982301561878000,9.5898779296875,0.06368270516395569,0.2220495194196701,0.30833423137664795
1701982301578871800,9.606871826171876,0.033139441162347794,0.0933096632361412,0.076052725315094
1701982301595868200,9.6238681640625,0.05650503560900688,0.29993483424186707,-0.08445212244987488
1701982301612856300,9.640856201171875,0.0507018156349659,0.5036584138870239,-0.08674286305904388
1701982301629852200,9.65785205078125,0.04581489413976669,0.5543602108955383,-0.09040805697441101
1701982301646847000,9.674846923828126,0.07696902006864548,0.4824308156967163,-0.164170041680336
1701982301663840000,9.691840087890625,0.1511891484260559,0.4158465266227722,-0.17638733983039856
1701982301680834600,9.70883447265625,0.1976149082183838,0.41859540343284607,-0.04917465150356293
1701982301697827600,9.72582763671875,0.1771509200334549,0.23380866646766663,0.1339322030544281
1701982301714822100,9.742822265625,0.1621847152709961,0.06963863968849182,0.29856038093566895
1701982301731815000,9.75981494140625,0.15271630883216858,0.11942415684461594,0.3404046595096588
1701982301748799500,9.776799560546875,0.1215621829032898,0.24984388053417206,0.28848111629486084
1701982301765802800,9.793802734375,0.10613783448934555,0.2719877362251282,0.06322455406188965
1701982301782797300,9.81079736328125,0.09972374886274338,0.49846604466438293,-0.13484850525856018
1701982301799783400,9.827783447265626,0.07895433157682419,0.4259257912635803,-0.12064588814973831
1701982301816785000,9.844784912109375,0.033597588539123535,0.2837468981742859,0.013744467869400978
1701982301833777700,9.861777587890625,0.013591751456260681,0.1488984078168869,0.0679587572813034
1701982301850783000,9.878782958984376,0.011759156361222267,0.10094548016786575,0.03329215571284294
1701982301867765500,9.895765625,0.02519819140434265,0.059864792972803116,-0.016035212203860283
1701982301884760000,9.912760009765625,0.02122756652534008,-0.06963863968849182,-0.05161811411380768
1701982301901753000,9.929753173828125,0.005803219974040985,-0.31031954288482666,-0.058948494493961334
1701982301918747600,9.94674755859375,-0.04581489413976669,-0.44913867115974426,-0.1774563491344452
1701982301935739000,9.96373876953125,-0.07299839705228806,-0.38240164518356323,-0.2557998299598694
1701982301952735200,9.9807353515625,-0.1443169116973877,-0.42271876335144043,-0.22067506611347198
1701982301969728000,9.99772802734375,-0.25595253705978394,-0.4999932050704956,-0.1915062516927719
1701982301986722800,10.014722900390625,-0.337503045797348,-0.4992296099662781,-0.20173825323581696
1701982302003715800,10.0317158203125,-0.35781431198120117,-0.48915034532546997,-0.17837265133857727
1701982302020710700,10.048710693359375,-0.3344487249851227,-0.5050328373908997,-0.11988230794668198
1701982302037701400,10.065701416015624,-0.2692388594150543,-0.4683809280395508,-0.11438451707363129
1701982302054698200,10.0826982421875,-0.20295998454093933,-0.3078760802745819,-0.15913039445877075
1701982302071691000,10.09969091796875,-0.12751811742782593,-0.11239920556545258,-0.12507465481758118
1701982302088685800,10.116685791015625,-0.054367005825042725,-0.029168816283345222,0.28298333287239075
1701982302105678800,10.133678955078125,-0.11133018881082535,-0.24862214922904968,0.23854288458824158
1701982302122673400,10.15067333984375,-0.04841107130050659,-0.21074850857257843,0.038179077208042145
1701982302139663600,10.16766357421875,-0.0936150997877121,-0.030543262138962746,-0.05696318298578262
1701982302156662800,10.184662841796875,-0.0910189226269722,0.25595253705978394,-0.01572977937757969
1701982302173644500,10.20164453125,-0.07376197725534439,0.17516560852527618,-0.055741455405950546
1701982302190648600,10.218648681640625,0.02687807008624077,0.08170322328805923,-0.11224649101495743
1701982302207635200,10.23563525390625,0.16264286637306213,0.10766500234603882,-0.05864306539297104
1701982302224637200,10.25263720703125,0.24037547409534454,0.15561792254447937,0.04489859566092491
1701982302241628000,10.2696279296875,0.23426681756973267,0.08384125679731369,0.1699732542037964
1701982302258624500,10.28662451171875,0.18005253374576569,-0.0022907445672899485,0.25854870676994324
1701982302275616800,10.30361669921875,0.10094548016786575,-0.048105638474226,0.303600013256073
1701982302292611300,10.320611328125,-0.013133603148162365,-0.3845396637916565,0.2480112910270691
1701982302309604000,10.33760400390625,-0.038026362657547,-0.5227479338645935,0.03329215571284294
1701982302326599000,10.354598876953125,-0.03329215571284294,-0.24098633229732513,-0.22510384023189545
1701982302343591700,10.371591796875,-0.1270599663257599,-0.00427605677396059,-0.37827831506729126
1701982302360586800,10.388586669921875,-0.19837848842144012,-0.040622539818286896,-0.40775254368782043
1701982302377587200,10.405587158203126,-0.21670444309711456,-0.2252565622329712,-0.31261029839515686
1701982302394574000,10.422573974609374,-0.19517144560813904,-0.41004329919815063,-0.05604688450694084
1701982302411567000,10.439567138671874,-0.1768454909324646,-0.47479501366615295,0.2356412708759308
1701982302428551700,10.4565517578125,-0.156686931848526,-0.42241331934928894,0.34636059403419495
1701982302445552400,10.473552490234376,-0.07513642311096191,-0.417679101228714,0.2736676335334778
1701982302462551800,10.4905517578125,-0.009010262787342072,-0.3556762933731079,0.3975205719470978
1701982302479542000,10.5075419921875,-0.0832303911447525,-0.45921793580055237,0.30695977807044983
1701982302496537000,10.524537109375,-0.01725694350898266,-0.38209620118141174,0.06368270516395569
1701982302513529900,10.54152978515625,-0.016340645030140877,-0.22189679741859436,-0.1082758679986
1701982302530524700,10.558524658203124,-0.04214970022439957,0.0731511116027832,-0.0913243517279625
1701982302547519700,10.575519775390624,-0.08659014850854874,0.16172657907009125,-0.13607023656368256
1701982302564509700,10.592509765625,-0.05513058975338936,0.05849034711718559,-0.23335053026676178
1701982302581502500,10.60950244140625,0.02535090781748295,0.15256360173225403,-0.20311269164085388
1701982302598502400,10.62650244140625,0.09147707372903824,0.2692388594150543,-0.12751811742782593
1701982302615492600,10.64349267578125,0.11972958594560623,0.2399173229932785,-0.02367102913558483
1701982302632487400,10.6604873046875,0.11942415684461594,0.19914206862449646,0.14324790239334106
1701982302649470000,10.677469970703125,0.11362093687057495,0.1085812970995903,0.2825251817703247
1701982302666475500,10.6944755859375,0.044287730008363724,-0.2405281960964203,0.34284812211990356
1701982302683467800,10.7114677734375,0.04886921867728233,-0.5314527750015259,0.14324790239334106
1701982302700462600,10.728462646484376,0.06414084881544113,-0.3732386529445648,-0.060475658625364304
1701982302717455400,10.745455322265625,-0.00427605677396059,-0.1976149082183838,-0.17348572611808777
1701982302734450200,10.7624501953125,-0.04077525436878204,-0.1973094791173935,-0.2203696370124817
1701982302751443000,10.77944287109375,-0.0503963828086853,-0.21441370248794556,-0.2070833146572113
1701982302768437800,10.796437744140626,-0.08170322328805923,-0.2370157092809677,-0.11636982858181
1701982302785430800,10.8134306640625,-0.09407325088977814,-0.3017674386501312,0.053297992795705795
1701982302802425300,10.83042529296875,-0.0659734457731247,-0.55695641040802,0.40256020426750183
1701982302819418000,10.847418212890625,-0.04459316283464432,-0.39874228835105896,0.5412266254425049
1701982302836402700,10.864402587890625,-0.01466076634824276,-0.1408044397830963,0.3066543638706207
1701982302853403100,10.881403076171875,0.03344487398862839,0.17241671681404114,-0.04352414980530739
1701982302870403300,10.8984033203125,0.0861319974064827,0.22907446324825287,-0.20723603665828705
1701982302887393300,10.915393310546875,0.1281289905309677,0.04703662544488907,-0.1667662113904953
1701982302904387800,10.932387939453125,0.10949759185314178,-0.08445212244987488,-0.06475171446800232
1701982302921381400,10.94938134765625,0.06230825558304787,-0.12553280591964722,0.005803219974040985
1701982302938373400,10.966373291015625,0.021838432177901268,-0.12431107461452484,-0.005039638374000788
1701982302955371000,10.98337109375,0.004734205547720194,-0.10903944820165634,-0.07208210229873657
1701982302972363500,11.000363525390625,-0.030085112899541855,-0.0959058403968811,-0.1270599663257599
1701982302989356500,11.0173564453125,-0.0455094613134861,-0.29657506942749023,-0.05161811411380768
1701982303006351000,11.03435107421875,-0.04856378585100174,-0.08491026610136032,-0.05971207842230797
1701982303023343900,11.05134375,-0.07498370856046677,0.22892175614833832,-0.16844609379768372
1701982303040337400,11.06833740234375,-0.05146539583802223,0.23945917189121246,-0.17073683440685272
1701982303057325800,11.085325927734376,-0.0027488935738801956,0.060322944074869156,-0.08567385375499725
1701982303074323700,11.10232373046875,0.02825251780450344,-0.001527163083665073,-0.061391957104206085
1701982303091321900,11.11932177734375,0.02229658141732216,0.04092797264456749,-0.06551529467105865
1701982303108313900,11.13631396484375,0.0022907445672899485,0.009773843921720982,-0.03726277872920036
1701982303125307000,11.153306884765625,-0.01114829070866108,-0.009162978269159794,0.01771509274840355
1701982303142301700,11.1703017578125,-0.024434609338641167,-0.02886338345706463,0.05207626149058342
1701982303159294200,11.187294189453125,-0.01771509274840355,-0.02367102913558483,0.025045474991202354
1701982303176289000,11.2042890625,-0.02779436856508255,-0.18387043476104736,0.14538592100143433
1701982303193282000,11.221281982421875,-0.0607810914516449,-0.10308351367712021,0.22418753802776337
1701982303210276900,11.23827685546875,-0.04856378585100174,0.1547016203403473,0.09605856239795685
1701982303227273000,11.25527294921875,-0.019547687843441963,0.3384193480014801,-0.02275473065674305
1701982303244261600,11.27226171875,0.010995574295520782,0.2828305959701538,-0.033597588539123535
1701982303261259800,11.289259765625,0.04841107130050659,0.04886921867728233,0.010079276748001575
1701982303278239700,11.30623974609375,0.06902777403593063,-0.07238753139972687,0.0861319974064827
1701982303295242000,11.323241943359376,0.07941248267889023,-0.08552113175392151,0.1966986060142517
1701982303312242200,11.3402421875,0.04337143152952194,-0.07987063378095627,0.45005497336387634
1701982303329217500,11.357217529296875,-0.0074830991216003895,-0.49984049797058105,0.37140607833862305
1701982303346224400,11.374224365234374,0.04214970022439957,-0.7881689071655273,0.14996741712093353
1701982303363219700,11.3912197265625,0.020463986322283745,-0.7411322593688965,-0.04932736977934837
1701982303380214500,11.408214599609375,-0.08552113175392151,-0.45891252160072327,-0.13607023656368256
1701982303397207600,11.42520751953125,-0.21594086289405823,-0.14813482761383057,-0.23136521875858307
1701982303414202400,11.442202392578125,-0.20143280923366547,0.0029016099870204926,-0.19685132801532745
1701982303431195100,11.459195068359374,-0.17806722223758698,0.11148291081190109,-0.01191187184303999
1701982303448190500,11.4761904296875,-0.08155050873756409,0.3504839241504669,-0.0024434609804302454
1701982303465182200,11.49318212890625,-0.011453723534941673,0.4862487316131592,-0.08827003091573715
1701982303482177500,11.510177490234375,0.09117163717746735,0.6194173693656921,-0.11484266817569733
1701982303499173400,11.52717333984375,0.20295998454093933,0.6287330389022827,-0.035124752670526505
1701982303516165000,11.5441650390625,0.2765692472457886,0.5809328556060791,0.0887281745672226
1701982303533158000,11.561157958984374,0.244804248213768,0.5146539807319641,0.12232576310634613
1701982303550143000,11.57814306640625,0.1293507218360901,0.7269296646118164,0.15653422474861145
1701982303567148000,11.59514794921875,-0.022449297830462456,0.21044307947158813,0.00045814894838258624
1701982303584143400,11.612143310546875,0.033597588539123535,-0.3572034537792206,-0.20402899384498596
1701982303601133000,11.629133056640624,0.016340645030140877,-0.33399057388305664,-0.3323107063770294
1701982303618128100,11.646128173828124,-0.11545353382825851,0.08597928285598755,-0.3000875413417816
1701982303635120600,11.66312060546875,-0.22907446324825287,0.18860463798046112,-0.23548854887485504
1701982303652113400,11.680113525390626,-0.206777885556221,0.09743300825357437,-0.2393064647912979
1701982303669110500,11.697110595703125,-0.15424346923828125,-0.014508049935102463,-0.13790282607078552
1701982303686090500,11.714090576171875,-0.1189660057425499,-0.15943582355976105,0.07223481684923172
1701982303703096800,11.731096923828124,-0.05955936014652252,-0.2018909603357315,0.2301434874534607
1701982303720087800,11.748087890625,0.026572637259960175,-0.030695978552103043,0.2574796974658966
1701982303737084000,11.765083984375,0.09468411654233932,0.18157969415187836,0.21074850857257843
1701982303754076400,11.782076416015625,0.1241583600640297,0.35124751925468445,0.2597704529762268
1701982303771074800,11.79907470703125,0.06811147183179855,0.1748601794242859,0.09987647086381912
1701982303788065800,11.816065673828126,0.15195272862911224,0.23884831368923187,-0.060322944074869156
1701982303805058800,11.833058837890626,0.20173825323581696,0.46273043751716614,0.050243668258190155
1701982303822053400,11.850053466796876,0.20861047506332397,0.5403103232383728,0.22540926933288574
1701982303839046400,11.86704638671875,0.2557998299598694,0.4761694669723511,0.22388210892677307
1701982303856041200,11.884041259765626,0.33292156457901,0.513126790523529,0.16081027686595917
1701982303873031000,11.901031005859375,0.2793181240558624,0.531758189201355,0.14004085958003998
1701982303890029600,11.918029541015626,0.1866193264722824,0.4792237877845764,0.17501288652420044
1701982303907024100,11.935024169921874,0.11988230794668198,0.3075706362724304,0.20051652193069458
1701982303924016400,11.952016357421876,0.0809396430850029,-0.010995574295520782,0.22220222651958466
1701982303941009400,11.969009521484375,0.021991148591041565,-0.46960264444351196,0.19883663952350616
1701982303957993500,11.985993408203125,-0.024129176512360573,-0.6913467645645142,-0.0024434609804302454
1701982303974996700,12.002996826171875,-0.03833179548382759,-0.5221370458602905,-0.1609629988670349
1701982303991991600,12.019991455078125,-0.13866640627384186,-0.3669773042201996,-0.25106561183929443
1701982304008984300,12.036984375,-0.230448916554451,-0.3387247920036316,-0.3225368559360504
1701982304025979100,12.053979248046875,-0.27382034063339233,-0.5132794976234436,-0.34926220774650574
1701982304042972000,12.070971923828125,-0.27351492643356323,-0.8249735236167908,-0.1963931769132614
1701982304059966700,12.087966796875,-0.2483167201280594,-0.6892086863517761,-0.13072516024112701
1701982304076949200,12.10494921875,-0.22800545394420624,-0.5586362481117249,-0.1319468915462494
1701982304093954300,12.121954345703125,-0.19318613409996033,-0.6183483600616455,-0.11285735666751862
1701982304110947000,12.138947021484375,-0.1437060534954071,-0.6091853380203247,-0.06673702597618103
1701982304127942000,12.15594189453125,-0.10216721147298813,-0.5290092825889587,-0.061391957104206085
1701982304144935000,12.172934814453125,-0.10491610318422318,-0.5555819272994995,-0.10018189996480942
1701982304161929700,12.1899296875,-0.11301007121801376,-0.4784601926803589,-0.11636982858181
1701982304178922200,12.206922119140625,-0.11316278576850891,-0.22342395782470703,-0.10552696883678436
1701982304195917300,12.223917236328125,-0.09392052888870239,0.021380282938480377,-0.08918632566928864
1701982304212912000,12.240912109375,-0.10552696883678436,0.12599095702171326,0.08109235763549805
1701982304229902600,12.257902587890625,-0.13148874044418335,0.34895676374435425,0.0988074541091919
1701982304246897700,12.274897705078125,-0.03878994286060333,0.5899431109428406,-0.12095131725072861
1701982304263892500,12.291892578125,0.05375614017248154,0.5867360830307007,-0.21059578657150269
1701982304280885200,12.30888525390625,0.15073099732398987,0.46150869131088257,-0.096211276948452
1701982304297880000,12.325880126953125,0.25076019763946533,0.2987131178379059,0.22708915174007416
1701982304314876200,12.342876220703126,0.17379115521907806,-0.07360926270484924,0.38117989897727966
1701982304331867400,12.359867431640625,0.17012597620487213,-0.27550023794174194,0.27061331272125244
1701982304348860700,12.376860595703125,0.10354165732860565,-0.1241583600640297,0.039706241339445114
1701982304365855200,12.393855224609375,0.00809396430850029,0.19379699230194092,-0.10094548016786575
1701982304382848000,12.410847900390625,-0.11560624837875366,0.36483925580978394,-0.15577064454555511
1701982304399842800,12.4278427734375,-0.1921171247959137,0.2941316068172455,-0.2382374405860901
1701982304416835600,12.444835693359375,-0.14385876059532166,0.17791450023651123,-0.266184538602829
1701982304433830400,12.461830322265625,-0.08246681094169617,0.1160643994808197,-0.19196440279483795
1701982304450823200,12.4788232421875,-0.04001167416572571,0.07208210229873657,-0.07727445662021637
1701982304467818000,12.49581787109375,0.051312681287527084,0.10812314599752426,0.021991148591041565
1701982304484811000,12.51281103515625,0.1059851199388504,0.1661553531885147,0.10354165732860565
1701982304501805000,12.52980517578125,0.11560624837875366,0.19226983189582825,0.1540907621383667
1701982304518799000,12.546799072265625,0.10491610318422318,0.2064724564552307,0.1563815027475357
1701982304535782700,12.56378271484375,0.029626963660120964,0.08277224004268646,0.11178833991289139
1701982304552787700,12.58078759765625,0.052381694316864014,-0.14966198801994324,-0.013591751456260681
1701982304569779500,12.597779541015624,0.06719517707824707,-0.010537425056099892,-0.01618792861700058
1701982304586763500,12.614763427734376,0.04963280260562897,0.15943582355976105,0.07131851464509964
1701982304603768800,12.631768798828125,0.06520986557006836,0.15653422474861145,0.08491026610136032
1701982304620761300,12.64876123046875,0.12263119965791702,0.1508837193250656,0.00366519158706069
1701982304637756200,12.665756103515625,0.16951510310173035,0.289702832698822,-0.038179077208042145
1701982304654749200,12.682749267578124,0.1463022232055664,0.29046642780303955,0.030237829312682152
1701982304671743700,12.69974365234375,0.10323622822761536,0.07788532227277756,0.17119498550891876
1701982304688727800,12.716727783203124,0.08750644326210022,-0.13545936346054077,0.2681698501110077
1701982304705732000,12.733732177734375,0.040622539818286896,-0.16279558837413788,0.34437528252601624
1701982304722724400,12.750724365234374,-0.021380282938480377,-0.46792277693748474,0.244804248213768
1701982304739719200,12.76771923828125,0.02626720629632473,-0.5109887719154358,0.021532999351620674
1701982304756711400,12.78471142578125,-0.03726277872920036,-0.19120082259178162,-0.14385876059532166
1701982304773706500,12.80170654296875,-0.11468994617462158,0.021532999351620674,-0.23854288458824158
1701982304790699300,12.81869921875,-0.1287398487329483,-0.046731192618608475,-0.2744311988353729
1701982304807684000,12.83568408203125,-0.1365283876657486,-0.26771169900894165,0.027641652151942253
1701982304824686800,12.852686767578126,-0.10980302840471268,-0.07666359096765518,0.12308934330940247
1701982304841674200,12.86967431640625,-0.053297992795705795,0.14324790239334106,-0.012980886735022068
1701982304858671600,12.886671630859375,0.010995574295520782,0.32421672344207764,-0.15913039445877075
1701982304875669500,12.90366943359375,0.06658431142568588,0.16859880089759827,-0.21884247660636902
1701982304892662300,12.920662353515626,0.09056077152490616,-0.018020525574684143,-0.18967366218566895
1701982304909657000,12.937656982421874,0.050854530185461044,-0.03955352306365967,-0.1212567538022995
1701982304926649600,12.954649658203126,-0.005345070734620094,0.04077525436878204,-0.04489859566092491
1701982304943645000,12.97164501953125,-0.054825156927108765,0.016951510682702065,0.04688390716910362
1701982304960637200,12.98863720703125,-0.0936150997877121,-0.0981965884566307,0.15546520054340363
1701982304977632300,13.00563232421875,-0.1215621829032898,-0.3448334336280823,0.3778201639652252
1701982304994625000,13.022625,-0.11743884533643723,-0.07651086896657944,0.30115658044815063
1701982305011619800,13.039619873046876,-0.03894266113638878,0.09972374886274338,0.008704829961061478
1701982305028610300,13.0566103515625,0.023976460099220276,0.2272418737411499,-0.12461651116609573
1701982305045607400,13.073607421875,0.07757988572120667,0.18020524084568024,-0.11636982858181
1701982305062600400,13.090600341796875,0.1661553531885147,0.14355333149433136,0.1059851199388504
1701982305079595000,13.107594970703126,0.08292495459318161,-0.0507018156349659,0.260992169380188
1701982305096588000,13.124588134765625,0.09422596544027328,-0.2154827117919922,0.12431107461452484
1701982305113582800,13.141582763671876,0.08506298810243607,-0.040164388716220856,-0.05696318298578262
1701982305130575600,13.15857568359375,0.03787364438176155,0.2616030275821686,-0.13561208546161652
1701982305147570200,13.175570068359375,-0.024587325751781464,0.4082106947898865,-0.1339322030544281
1701982305164563200,13.192563232421875,-0.0507018156349659,0.3205515444278717,-0.18509216606616974
1701982305181558000,13.20955810546875,-0.01710422709584236,0.16859880089759827,-0.20234911143779755
1701982305198550500,13.226550537109375,0.029626963660120964,-0.008399397134780884,-0.11713340878486633
1701982305215534800,13.243534912109375,0.03497203439474106,-0.11163562536239624,0.03588833287358284
1701982305232536300,13.260536376953125,0.04459316283464432,-0.054367005825042725,0.1371392458677292
1701982305249535200,13.27753515625,0.05742133408784866,0.018020525574684143,0.14782938361167908
1701982305266526000,13.29452587890625,0.039095375686883926,0.07880161702632904,0.13820825517177582
1701982305283520800,13.311520751953125,-0.020005837082862854,0.08796459436416626,0.14187344908714294
1701982305300513500,13.328513427734375,-0.07330382615327835,0.02580905705690384,0.14996741712093353
1701982305317508400,13.34550830078125,-0.08506298810243607,-0.011453723534941673,0.10491610318422318
1701982305334501000,13.362501220703125,-0.06658431142568588,-0.049785517156124115,0.029016099870204926
1701982305351497000,13.3794970703125,-0.04337143152952194,-0.025503624230623245,-0.03848451003432274
1701982305368481800,13.396481689453125,0.003512475173920393,0.05390885844826698,-0.09636399149894714
1701982305385483500,13.4134833984375,0.037110064178705215,0.1514945775270462,-0.09437867999076843
1701982305402476300,13.430476318359375,-0.0022907445672899485,0.14706580340862274,-0.02932153269648552
1701982305419471000,13.44747119140625,-0.02168571576476097,0.10644327104091644,0.07666359096765518
1701982305436464000,13.464464111328125,-0.01114829070866108,-0.031001411378383636,0.14309518039226532
1701982305453458700,13.481458740234375,-0.011301007121801376,-0.10323622822761536,0.1388191282749176
1701982305470451500,13.498451416015625,-0.01237002108246088,-0.08292495459318161,0.058948494493961334
1701982305487446300,13.5154462890625,0.0006108652451075613,-0.033597588539123535,-0.03084869496524334
1701982305504439300,13.532439208984375,-0.006108652334660292,-0.040164388716220856,-0.06536258012056351
1701982305521434000,13.54943408203125,-0.020616702735424042,-0.09896016865968704,-0.03329215571284294
1701982305538427000,13.566427001953125,-0.029016099870204926,-0.14355333149433136,0.03191770985722542
1701982305555416600,13.58341650390625,-0.04444044828414917,-0.19944749772548676,0.07131851464509964
1701982305572414700,13.600414794921875,-0.055894169956445694,-0.19333885610103607,0.078343465924263
1701982305589409300,13.6174091796875,-0.06154467165470123,-0.19486601650714874,0.07162395119667053
1701982305606393600,13.6343935546875,-0.05971207842230797,-0.168751522898674,0.04612032696604729
1701982305623394000,13.65139404296875,-0.05406157299876213,-0.1420261710882187,0.010842857882380486
1701982305640381700,13.668381591796875,-0.03985895588994026,-0.2483167201280594,0.046731192618608475
1701982305657398300,13.685398193359376,-0.03222314268350601,-0.3315471112728119,0.16035212576389313
1701982305674374700,13.702374755859376,-0.0010690141934901476,-0.02321287989616394,0.09728029370307922
1701982305691374600,13.71937451171875,0.016951510682702065,0.16569720208644867,-0.05665775015950203
1701982305708364800,13.73636474609375,0.04917465150356293,0.1062905490398407,-0.07849618047475815
1701982305725359900,13.75335986328125,0.06185010448098183,-0.10567969083786011,-0.01191187184303999
1701982305742343000,13.770343017578124,0.05910121276974678,-0.2145664244890213,0.014813481830060482
1701982305759347200,13.78734716796875,0.033139441162347794,-0.2509129047393799,-0.0074830991216003895
1701982305776340000,13.804340087890624,0.003359758760780096,-0.21762074530124664,-0.019394971430301666
1701982305793334800,13.821334716796875,-0.009468411095440388,-0.2076941877603531,0.00427605677396059
1701982305810327600,13.83832763671875,-0.032681290060281754,-0.2255619913339615,0.03649919852614403
1701982305827322600,13.855322509765625,-0.040164388716220856,-0.1921171247959137,0.04230241850018501
1701982305844312600,13.8723125,-0.027641652151942253,-0.05360342562198639,0.008704829961061478
1701982305861312800,13.889312744140625,-0.03680463135242462,-0.01725694350898266,-0.044745877385139465
1701982305878292200,13.906292236328126,-0.058184914290905,-0.08078692853450775,-0.08689557760953903
1701982305895295200,13.923295166015626,-0.07941248267889023,-0.19792033731937408,0.11148291081190109
1701982305912293000,13.940293212890625,-0.0933096632361412,-0.04841107130050659,0.11575896292924881
1701982305929285400,13.957285400390624,-0.06994406878948212,0.2428189367055893,0.0013744467869400978
1701982305946278100,13.974278076171874,-0.035582900047302246,0.2935207486152649,-0.027488935738801956
1701982305963273000,13.99127294921875,0.01710422709584236,0.06261368840932846,0.01771509274840355
1701982305980266000,14.008265869140626,0.041233405470848083,-0.15561792254447937,0.0074830991216003895
1701982305997260500,14.025260498046874,0.019547687843441963,-0.1788308024406433,-0.04337143152952194
1701982306014253600,14.042253662109376,-0.0032070425804704428,-0.029932396486401558,-0.07666359096765518
1701982306031248100,14.059248046875,-0.02871066704392433,0.10094548016786575,-0.03833179548382759
1701982306048230700,14.076230712890625,-0.052381694316864014,0.05696318298578262,0.05513058975338936
1701982306065234700,14.093234619140626,-0.04963280260562897,-0.14645494520664215,0.2554943859577179
1701982306082229500,14.1102294921875,0.0003054326225537807,0.08155050873756409,0.13561208546161652
1701982306099223300,14.127223388671876,0.0025961773935705423,0.32849279046058655,-0.09086620807647705
1701982306116216000,14.144216064453126,0.04398229718208313,0.41004329919815063,-0.19303341209888458
1701982306133200600,14.16120068359375,0.09666942805051804,0.29764407873153687,-0.20051652193069458
1701982306150203600,14.17820361328125,0.12064588814973831,0.21242839097976685,-0.164170041680336
1701982306167198700,14.19519873046875,0.11301007121801376,0.19120082259178162,-0.10919216275215149
1701982306184191700,14.212191650390626,0.0988074541091919,0.23625212907791138,-0.0507018156349659
1701982306201186300,14.229186279296876,0.06979135423898697,0.3556762933731079,-0.05650503560900688
1701982306218179000,14.246178955078125,0.07131851464509964,0.34055736660957336,-0.10506882518529892
1701982306235173600,14.263173583984376,0.078343465924263,0.1508837193250656,-0.06414084881544113
1701982306252153600,14.280153564453125,0.034666601568460464,-0.18066339194774628,0.14874568581581116
1701982306269161500,14.297161376953126,-0.027488935738801956,0.048258353024721146,0.20265454053878784
1701982306286156800,14.31415673828125,-0.02825251780450344,0.35216382145881653,-0.01542434748262167
1701982306303149000,14.331149169921876,0.0455094613134861,0.38576140999794006,-0.10125091671943665
1701982306320141800,14.348141845703125,0.11743884533643723,0.2574796974658966,-0.02076941914856434
1701982306337134300,14.36513427734375,0.17928895354270935,0.09239336848258972,-0.0019853119738399982
1701982306354132000,14.382132080078126,0.22128593921661377,-0.017562376335263252,-0.05665775015950203
1701982306371124200,14.399124267578125,0.20128010213375092,-0.06001751124858856,-0.034666601568460464
1701982306388117000,14.416116943359375,0.15775595605373383,-0.14492778480052948,0.023365596309304237
1701982306405111800,14.43311181640625,0.1186605766415596,-0.41172316670417786,0.12431107461452484
1701982306422104600,14.4501044921875,0.08338310569524765,-0.6565274000167847,0.02122756652534008
1701982306439099600,14.467099609375,0.06719517707824707,-0.5239696502685547,-0.11362093687057495
1701982306456092400,14.484092529296875,-0.02825251780450344,-0.3767511546611786,-0.20922134816646576
1701982306473076500,14.501076416015625,-0.13286319375038147,-0.20051652193069458,-0.3010038435459137
1701982306490080000,14.518080078125,-0.1742493063211441,-0.06994406878948212,-0.36102136969566345
1701982306507074800,14.53507470703125,-0.1875356286764145,-0.053297992795705795,-0.18906278908252716
1701982306524061200,14.552061279296876,-0.17150041460990906,-0.015882495790719986,-0.017562376335263252
1701982306541059800,14.569059814453125,-0.17837265133857727,0.07773260027170181,0.07284568250179291
1701982306558057700,14.5860576171875,-0.1437060534954071,0.03985895588994026,0.17531833052635193
1701982306575051800,14.6030517578125,-0.09208793938159943,-0.06933320313692093,0.2519819140434265
1701982306592043000,14.62004296875,-0.026114489883184433,-0.16691893339157104,0.2278527319431305
1701982306609037600,14.63703759765625,0.03176499158143997,-0.12950342893600464,0.13744467496871948
1701982306626030300,14.6540302734375,0.05971207842230797,-0.011453723534941673,0.06398813426494598
1701982306643025200,14.671025146484375,0.0887281745672226,0.04153883829712868,0.024129176512360573
1701982306660018200,14.68801806640625,0.11881329119205475,0.10812314599752426,0.10155634582042694
1701982306677012700,14.7050126953125,0.03940080851316452,0.02382374368607998,0.01878410577774048
1701982306693995000,14.7219951171875,0.04657847434282303,0.1281289905309677,-0.11743884533643723
1701982306711000300,14.739000244140625,0.0024434609804302454,0.30863967537879944,-0.1589776873588562
1701982306727993000,14.7559931640625,-0.05467243865132332,0.4288274049758911,-0.09728029370307922
1701982306744978200,14.772978271484375,-0.10674870014190674,0.3445279896259308,-0.07177666574716568
1701982306761979000,14.789978759765624,-0.11560624837875366,0.25182920694351196,-0.0936150997877121
1701982306778978000,14.80697802734375,-0.10323622822761536,0.19532416760921478,-0.07452555745840073
1701982306795968300,14.82396826171875,-0.07742717117071152,0.09208793938159943,0.0065668015740811825
1701982306812963300,14.84096337890625,-0.06841690838336945,-0.07299839705228806,0.11453723162412643
1701982306829956000,14.8579560546875,-0.06750060617923737,-0.3723223805427551,0.43737950921058655
1701982306846950700,14.87495068359375,-0.05467243865132332,0.01191187184303999,0.27947086095809937
1701982306863944200,14.891944091796875,0.00733038317412138,0.154396191239357,0.005955935921519995
1701982306880938500,14.9089384765625,0.0354301854968071,0.16462817788124084,-0.08155050873756409
1701982306897931300,14.92593115234375,0.058337632566690445,0.01618792861700058,-0.08307767659425735
1701982306914910500,14.942910400390625,0.09636399149894714,-0.09941831976175308,-0.07024950534105301
1701982306931916000,14.959916015625,0.12186761945486069,-0.08720101416110992,0.018020525574684143
1701982306948916700,14.976916748046875,0.12217304855585098,-0.017867809161543846,0.24404066801071167
1701982306965906400,14.993906494140624,0.06017022579908371,-0.18677204847335815,0.41661009192466736
1701982306982901500,15.010901611328125,0.07238753139972687,-0.3781255781650543,0.28619036078453064
1701982306999894300,15.027894287109374,0.04566217586398125,-0.3271183371543884,0.022449297830462456
1701982307016888800,15.044888916015625,0.0039706239476799965,-0.09376781433820724,-0.20433442294597626
1701982307033881600,15.061881591796874,-0.07880161702632904,0.19043724238872528,-0.30314189195632935
1701982307050876400,15.07887646484375,-0.12996158003807068,0.15943582355976105,-0.3378084897994995
1701982307067869400,15.095869384765624,-0.1333213448524475,-0.1437060534954071,-0.12003502249717712
1701982307084864300,15.1128642578125,-0.10781771689653397,-0.16142113506793976,0.06963863968849182
1701982307101854500,15.1298544921875,-0.06475171446800232,0.08399397134780884,0.09926560521125793
1701982307118851600,15.1468515625,-0.019547687843441963,0.2768746614456177,0.08032877743244171
1701982307135848700,15.1638486328125,0.048716504126787186,0.2611449062824249,0.08674286305904388
1701982307152838400,15.18083837890625,0.11453723162412643,0.0377209298312664,0.06551529467105865
1701982307169830100,15.197830078125,0.13988813757896423,-0.06750060617923737,0.13545936346054077
1701982307186824700,15.21482470703125,0.039706241339445114,-0.1742493063211441,0.16203200817108154
1701982307203822300,15.231822265625,0.014966198243200779,-0.1420261710882187,-0.050243668258190155
1701982307220814600,15.248814697265624,-0.029016099870204926,0.1319468915462494,-0.12538009881973267
1701982307237810400,15.265810546875,-0.06658431142568588,0.30802878737449646,-0.047189339995384216
1701982307254799600,15.282799560546875,-0.03787364438176155,0.20830504596233368,-0.001832595793530345
1701982307271795200,15.299795166015626,0.018936822190880775,0.05726861581206322,-0.03497203439474106
1701982307288796700,15.316796630859375,0.08796459436416626,0.07712173461914062,-0.042760565876960754
1701982307305773600,15.333773681640626,0.14248432219028473,0.2638937830924988,-0.005955935921519995
1701982307322777600,15.350777587890626,0.13484850525856018,0.26771169900894165,0.08139779418706894
1701982307339770400,15.367770263671876,0.12049316614866257,0.2551889419555664,0.19792033731937408
1701982307356763600,15.384763671875,0.08735372871160507,0.14065171778202057,0.19624045491218567
1701982307373759200,15.40175927734375,0.05009094998240471,-0.0659734457731247,0.12110403180122375
1701982307390752800,15.418752685546876,0.013591751456260681,-0.2819143235683441,0.07987063378095627
1701982307407745500,15.43574560546875,0.011453723534941673,-0.49525898694992065,-0.031612277030944824
1701982307424740400,15.452740234375,-0.027030786499381065,-0.4996877610683441,-0.20066922903060913
1701982307441733400,15.4697333984375,-0.15790866315364838,-0.31810808181762695,-0.29367345571517944
1701982307458728000,15.48672802734375,-0.289702832698822,-0.30482175946235657,-0.3723223805427551
1701982307475721000,15.503720947265625,-0.31520646810531616,-0.30344730615615845,-0.42562034726142883
1701982307492715500,15.520715576171876,-0.3013092875480652,-0.19562959671020508,-0.3663664162158966
1701982307509708500,15.53770849609375,-0.2929098904132843,-0.2025018334388733,-0.09392052888870239
1701982307526703400,15.554703369140626,-0.28787025809288025,-0.33047810196876526,0.11438451707363129
1701982307543696000,15.57169580078125,-0.21090123057365417,-0.1875356286764145,0.10018189996480942
1701982307560691000,15.58869091796875,-0.12965615093708038,0.06169738993048668,-0.01114829070866108
1701982307577682400,15.605682373046875,-0.029626963660120964,0.18738290667533875,-0.06505715101957321
1701982307594679800,15.6226796875,0.07131851464509964,0.1944078654050827,-0.07406741380691528
1701982307611671300,15.63967138671875,0.1293507218360901,0.22418753802776337,0.14752395451068878
1701982307628663800,15.656663818359375,0.0734565481543541,-0.058948494493961334,0.12079860270023346
1701982307645661200,15.6736611328125,0.07254024595022202,0.07406741380691528,0.013591751456260681
1701982307662653700,15.69065380859375,0.0633772686123848,0.4986187517642975,0.009773843921720982
1701982307679646500,15.707646484375,0.021380282938480377,0.6122397184371948,-0.0013744467869400978
1701982307696641300,15.724641357421875,0.03329215571284294,0.4482223689556122,-0.10613783448934555
1701982307713623600,15.74162353515625,0.12110403180122375,0.42470407485961914,-0.18600846827030182
1701982307730628900,15.75862890625,0.16829337179660797,0.5109887719154358,-0.1595885455608368
1701982307747620000,15.7756201171875,0.21242839097976685,0.5845980644226074,-0.041691552847623825
1701982307764618200,15.7926181640625,0.2119702398777008,0.5583308339118958,0.12049316614866257
1701982307781609500,15.809609375,0.164170041680336,0.4053090810775757,0.1999056488275528
1701982307798604300,15.826604248046875,0.08292495459318161,0.29138273000717163,0.2811507284641266
1701982307815598300,15.843598388671875,0.010690141469240189,-0.23060162365436554,0.22021691501140594
1701982307832593200,15.86059326171875,0.004886921960860491,-0.41462478041648865,0.006261368747800589
1701982307849583000,15.8775830078125,-0.029168816283345222,-0.28099802136421204,-0.2018909603357315
1701982307866566700,15.894566650390624,-0.11667526513338089,0.07925976812839508,-0.22510384023189545
1701982307883563000,15.91156298828125,-0.2064724564552307,-0.05772676691412926,-0.16065755486488342
1701982307900569600,15.928569580078126,-0.22128593921661377,-0.6163630485534668,0.11438451707363129
1701982307917559800,15.945559814453125,-0.19898934662342072,-0.4184426963329315,0.1339322030544281
1701982307934596400,15.962596435546875,-0.1485929638147354,-0.18997909128665924,-0.016493361443281174
1701982307951544300,15.97954443359375,-0.08124507963657379,-0.13087788224220276,-0.0507018156349659
1701982307968542200,15.996542236328125,-0.0403171069920063,-0.14584407210350037,-0.03084869496524334
1701982307985535000,16.013534912109375,0.02382374368607998,-0.1788308024406433,-0.031001411378383636
1701982308002522400,16.0305224609375,0.0731511116027832,-0.20082195103168488,0.07040221989154816
1701982308019521300,16.047521240234374,0.00427605677396059,-0.251676470041275,0.31932979822158813
1701982308036519200,16.064519287109373,0.016340645030140877,-0.41599923372268677,0.206777885556221
1701982308053510100,16.08151025390625,-0.0013744467869400978,-0.29764407873153687,0.007635815534740686
1701982308070505200,16.098505126953125,-0.09239336848258972,0.03894266113638878,-0.07620543986558914
1701982308087498000,16.115498046875,-0.14752395451068878,0.2838996350765228,-0.07528914511203766
1701982308104492800,16.132492919921877,-0.09896016865968704,0.20555615425109863,-0.12339477986097336
1701982308121485600,16.149485595703126,0.027030786499381065,0.09941831976175308,-0.16600263118743896
1701982308138480400,16.16648046875,0.1258382350206375,0.050854530185461044,-0.1189660057425499
1701982308155473200,16.18347314453125,0.19333885610103607,0.15531249344348907,-0.00015271631127689034
1701982308172468200,16.20046826171875,0.20036379992961884,0.2883284091949463,0.14844025671482086
1701982308189460700,16.217460693359374,0.1618792861700058,0.35521814227104187,0.2154827117919922
1701982308206455600,16.23445556640625,0.11804971098899841,0.24113905429840088,0.1215621829032898
1701982308223448300,16.2514482421875,0.0832303911447525,0.18646661937236786,0.055283304303884506
1701982308240433000,16.268432861328126,0.01542434748262167,-0.16371189057826996,-0.03634648025035858
1701982308257436000,16.285435791015626,-0.01542434748262167,-0.3446807265281677,-0.09743300825357437
1701982308274430700,16.3024306640625,-0.05009094998240471,-0.2977968156337738,-0.09162978827953339
1701982308291423700,16.319423828125,-0.1417207419872284,-0.07559457421302795,-0.012675453908741474
1701982308308418300,16.336418212890624,-0.24190263450145721,-0.19578230381011963,0.054367005825042725
1701982308325424600,16.353424560546873,-0.21868975460529327,-0.3901901841163635,0.07147123664617538
1701982308342406100,16.37040625,-0.14340060949325562,-0.5855143666267395,0.06765332818031311
1701982308359399000,16.38739892578125,-0.0806342139840126,-0.7327328324317932,0.09987647086381912
1701982308376393700,16.404393798828124,-0.0429132841527462,-0.693026602268219,0.17333301901817322
1701982308393386800,16.42138671875,-0.03191770985722542,-0.4766276180744171,0.2292271852493286
1701982308410378800,16.438378662109375,-0.03741549700498581,-0.10430523753166199,0.3500257730484009
1701982308427376000,16.455376220703126,-0.08032877743244171,-0.2594650089740753,0.164170041680336
1701982308444369700,16.47236962890625,0.00045814894838258624,-0.28878653049468994,-0.06352998316287994
1701982308461361700,16.489361572265626,-0.08536841720342636,-0.022602014243602753,0.03680463135242462
1701982308478356700,16.506356689453124,-0.2565633952617645,0.18539759516716003,0.35185837745666504
1701982308495349200,16.523349365234374,-0.2587014436721802,0.1915062516927719,0.536797821521759
1701982308512344300,16.54034423828125,-0.0754418596625328,-0.02428189292550087,0.38988474011421204
1701982308529338000,16.557338134765626,0.09300423413515091,-0.058184914290905,0.15806138515472412
1701982308546330600,16.57433056640625,0.1466076523065567,0.1771509200334549,0.09483683109283447
1701982308563325000,16.591324951171874,0.11575896292924881,0.2028072625398636,0.14828753471374512
1701982308580319000,16.608319091796876,0.12599095702171326,0.20036379992961884,0.13790282607078552
1701982308597312000,16.62531201171875,0.13225232064723969,0.047189339995384216,0.07635815441608429
1701982308614307000,16.64230712890625,0.08964447677135468,0.09834930300712585,0.13118331134319305
1701982308631299600,16.659299560546874,0.013133603148162365,-0.0019853119738399982,0.13087788224220276
1701982308648293600,16.676293701171875,0.015577063895761967,-0.18784105777740479,-0.03405573591589928
1701982308665288400,16.693288330078126,0.006719517521560192,-0.35124751925468445,-0.2165517359972
1701982308682282200,16.7102822265625,-0.010537425056099892,-0.09529497474431992,-0.30375275015830994
1701982308699275000,16.72727490234375,-0.016340645030140877,0.22479841113090515,-0.24266621470451355
1701982308716269800,16.744269775390624,0.027947084978222847,0.27519479393959045,-0.1537853181362152
1701982308733262800,16.761262939453125,0.06475171446800232,0.21624629199504852,-0.10033461451530457
1701982308750257700,16.778257568359376,0.11789698898792267,0.010995574295520782,-0.029016099870204926
1701982308767250400,16.79525048828125,0.13072516024112701,-0.098502017557621,0.05955936014652252
1701982308784245000,16.812244873046875,0.11056660860776901,-0.2025018334388733,0.12828169763088226
1701982308801237200,16.8292373046875,0.09208793938159943,-0.16111570596694946,0.20601430535316467
1701982308818233900,16.84623388671875,0.010231993161141872,-0.19792033731937408,0.23808473348617554
1701982308835225600,16.8632255859375,0.019547687843441963,-0.3078760802745819,0.13118331134319305
1701982308852205600,16.88020556640625,0.02733621932566166,-0.13988813757896423,0.04092797264456749
1701982308869210600,16.897210693359376,-0.01572977937757969,-0.02275473065674305,0.013897184282541275
1701982308886210600,16.91421044921875,-0.044287730008363724,-0.13286319375038147,-0.050243668258190155
1701982308903201000,16.931200927734373,-0.048105638474226,-0.2070833146572113,-0.026114489883184433
1701982308920194300,16.9481943359375,-0.05711590126156807,-0.2116648107767105,0.024434609338641167
1701982308937187300,16.965187255859377,-0.02519819140434265,-0.2197587788105011,0.059406645596027374
1701982308954186000,16.98218603515625,0.011453723534941673,-0.18051068484783173,0.059406645596027374
1701982308971176200,16.99917626953125,0.01664607785642147,-0.19792033731937408,0.016035212203860283
1701982308988169500,17.01616943359375,0.03588833287358284,-0.22647829353809357,0.013439035043120384
1701982309005165300,17.033165283203125,0.05192354694008827,-0.2203696370124817,0.03695734590291977
1701982309022158300,17.050158447265623,0.043218716979026794,-0.2565633952617645,0.05971207842230797
1701982309039151400,17.0671513671875,0.036193765699863434,-0.256868839263916,0.07254024595022202
1701982309056146200,17.084146240234375,0.04046982154250145,-0.23029619455337524,0.05161811411380768
1701982309073128400,17.10112841796875,0.038179077208042145,-0.20876319706439972,0.015577063895761967
1701982309090134000,17.118134033203123,0.010079276748001575,-0.09285151958465576,0.03741549700498581
1701982309107126500,17.13512646484375,-0.01618792861700058,0.2528982162475586,0.02122756652534008
1701982309124121300,17.152121337890627,-0.023060163483023643,0.37720927596092224,-0.07819075137376785
1701982309141103900,17.169103759765626,-0.04108068719506264,0.4193589985370636,-0.2021963894367218
1701982309158107000,17.18610693359375,-0.02672535367310047,0.4404338300228119,-0.31383201479911804
1701982309175104000,17.20310400390625,0.0074830991216003895,0.45814892649650574,-0.3833179473876953
1701982309192099000,17.22009912109375,0.04764748737215996,0.5064072608947754,-0.39706242084503174
1701982309209087200,17.237087158203124,0.05757404863834381,0.46441030502319336,-0.3842342495918274
1701982309226084400,17.25408447265625,0.05115996301174164,0.3677408695220947,-0.38240164518356323
1701982309243077000,17.2710771484375,0.04382958263158798,0.4008803069591522,-0.34895676374435425
1701982309260072000,17.288072021484375,0.027947084978222847,0.41630467772483826,-0.25702154636383057
1701982309277064700,17.305064697265625,0.02168571576476097,0.3156646192073822,-0.11972958594560623
1701982309294059500,17.3220595703125,0.026114489883184433,0.166460782289505,0.020005837082862854
1701982309311054800,17.339054931640625,0.03130684420466423,0.08261952549219131,0.10735956579446793
1701982309328046300,17.35604638671875,0.0328340083360672,0.11682797968387604,0.08216137439012527
1701982309345041000,17.373041015625,0.04230241850018501,0.19532416760921478,0.01191187184303999
1701982309362034700,17.39003466796875,0.01970040425658226,0.18845193088054657,-0.050243668258190155
1701982309379028700,17.40702880859375,0.014813481830060482,0.16844609379768372,-0.0757472887635231
1701982309396021500,17.424021484375,0.02977968007326126,0.13118331134319305,-0.05971207842230797
1701982309413015000,17.44101513671875,0.03726277872920036,0.12202033400535583,-0.021838432177901268
1701982309430010000,17.458010009765626,0.03405573591589928,0.1621847152709961,0.014355333521962166
1701982309447003100,17.475003173828124,0.05314527451992035,0.2142609804868698,0.04001167416572571
1701982309463997700,17.491997802734375,0.07269296050071716,0.24342979490756989,0.08307767659425735
1701982309480990500,17.508990478515624,0.07192938029766083,0.20891591906547546,0.12339477986097336
1701982309497985300,17.5259853515625,0.05513058975338936,0.14508049190044403,0.11636982858181
1701982309514975500,17.5429755859375,0.04535674303770065,0.07192938029766083,0.059406645596027374
1701982309531975400,17.559975341796875,0.030543262138962746,-0.016035212203860283,0.01572977937757969
1701982309548957400,17.57695751953125,0.006719517521560192,-0.08475755155086517,0.001832595793530345
1701982309565958000,17.5939580078125,0.009010262787342072,-0.1134682223200798,0.017867809161543846
1701982309582954200,17.610954345703124,0.0032070425804704428,-0.07498370856046677,0.052381694316864014
1701982309599950000,17.6279501953125,-0.005039638374000788,-0.058337632566690445,0.05849034711718559
1701982309616940800,17.64494091796875,-0.001679879380390048,-0.03176499158143997,0.05115996301174164
1701982309633936000,17.661935791015626,0.010842857882380486,-0.00015271631127689034,0.02580905705690384
1701982309650928600,17.6789287109375,0.00733038317412138,0.0025961773935705423,-0.012522737495601177
1701982309667923500,17.69592333984375,-0.006719517521560192,-0.025961773470044136,-0.06520986557006836
1701982309684916200,17.712916259765624,-0.018325956538319588,-0.07040221989154816,-0.04596760869026184
1701982309701911300,17.729911376953126,-0.03481931984424591,-0.15851953625679016,0.013897184282541275
1701982309718893300,17.746893310546874,-0.038179077208042145,-0.21991148591041565,0.060933809727430344
1701982309735896600,17.763896484375,-0.015118914656341076,-0.2223549485206604,0.07116580009460449
1701982309752893700,17.780893798828124,0.013286318629980087,-0.1765400618314743,0.06612616032361984
1701982309769887200,17.79788720703125,0.01924225501716137,-0.09575312584638596,0.022907447069883347
1701982309786876700,17.814876708984375,0.020922135561704636,-0.12095131725072861,-0.043676864355802536
1701982309803876600,17.831876708984375,0.02275473065674305,-0.18967366218566895,-0.07238753139972687
1701982309820866300,17.8488662109375,0.014813481830060482,-0.14126259088516235,-0.06475171446800232
1701982309837858800,17.86585888671875,0.0013744467869400978,0.02474004216492176,-0.03176499158143997
1701982309854857000,17.88285693359375,-0.00427605677396059,0.17547103762626648,-0.05757404863834381
1701982309871849200,17.89984912109375,0.06612616032361984,0.42668938636779785,-0.1492038369178772
1701982309888842000,17.916842041015624,0.15760323405265808,0.5190827250480652,-0.15775595605373383
1701982309905836800,17.9338369140625,0.23396138846874237,0.44058656692504883,-0.06123924255371094
1701982309922830000,17.950830078125,0.2541199326515198,0.28680121898651123,0.008399397134780884
1701982309939824600,17.96782470703125,0.23273965716362,0.375071257352829,0.017409659922122955
1701982309956817200,17.984817138671875,0.15561792254447937,0.508087158203125,-0.03649919852614403
1701982309973812000,18.00181201171875,0.05406157299876213,0.20723603665828705,-0.08765916526317596
1701982309990794200,18.018794189453125,0.050243668258190155,-0.06520986557006836,-0.1088867336511612
1701982310007799600,18.035799560546874,0.024892758578062057,0.1459967941045761,-0.048716504126787186
1701982310024792600,18.05279248046875,-0.00855211354792118,0.15485434234142303,0.05971207842230797
1701982310041772000,18.06977197265625,0.001832595793530345,0.0630718395113945,0.11759155988693237
1701982310058780200,18.0867802734375,0.06001751124858856,0.06994406878948212,0.11285735666751862
1701982310075775000,18.10377490234375,0.08032877743244171,0.08827003091573715,0.06505715101957321
1701982310092767700,18.120767822265623,0.10720685124397278,0.13637566566467285,0.040622539818286896
1701982310109762600,18.137762451171874,0.13820825517177582,0.20082195103168488,0.10781771689653397
1701982310126755300,18.15475537109375,0.12370020896196365,0.21563543379306793,0.14065171778202057
1701982310143750400,18.17175048828125,0.1313360333442688,0.166460782289505,0.1615738570690155
1701982310160740600,18.18874072265625,0.051312681287527084,-0.1950187236070633,0.03497203439474106
1701982310177740000,18.205739990234374,0.001527163083665073,-0.2574796974658966,-0.12828169763088226
1701982310194724900,18.222724853515626,-0.07406741380691528,-0.12660181522369385,-0.12278391420841217
1701982310211723000,18.239722900390625,-0.16982053220272064,-0.20143280923366547,-0.11438451707363129
1701982310228721000,18.256720947265624,-0.1699732542037964,-0.2125810980796814,-0.14782938361167908
1701982310245726700,18.273726806640624,-0.1238529309630394,-0.11743884533643723,-0.19303341209888458
1701982310262706200,18.2907060546875,-0.03436116874217987,-0.04749477282166481,-0.21609358489513397
1701982310279700700,18.30770068359375,0.046731192618608475,-0.08949175477027893,-0.12018773704767227
1701982310296693500,18.324693603515627,0.0705549344420433,-0.15851953625679016,0.07956519722938538
1701982310313688600,18.3416884765625,0.09086620807647705,-0.2912299931049347,0.2837468981742859
1701982310330681300,18.358681396484375,0.06123924255371094,-0.5482515692710876,0.29168814420700073
1701982310347676000,18.375676025390625,0.018478672951459885,-0.7518224120140076,0.031154127791523933
1701982310364668700,18.392668701171875,-0.04245513305068016,-0.41462478041648865,-0.14263702929019928
1701982310381661200,18.4096611328125,-0.15622878074645996,-0.3170390725135803,-0.2073887437582016
1701982310398659000,18.4266591796875,-0.21792617440223694,-0.3969096839427948,-0.2681698501110077
1701982310415636500,18.443636474609374,-0.23945917189121246,-0.4108068645000458,-0.29764407873153687
1701982310432632000,18.460632080078124,-0.2165517359972,-0.3706424832344055,-0.265573650598526
1701982310449641500,18.477641357421874,-0.2116648107767105,-0.34345898032188416,-0.1408044397830963
1701982310466631700,18.494631591796875,-0.20326541364192963,-0.28756481409072876,-0.07849618047475815
1701982310483626500,18.51162646484375,-0.1736384481191635,-0.12736541032791138,-0.10705413669347763
1701982310500619300,18.528619384765626,-0.14844025671482086,-0.02122756652534008,-0.09147707372903824
1701982310517614000,18.545614013671877,-0.10797043144702911,0.06062837690114975,-0.0354301854968071
1701982310534606800,18.56260693359375,0.018936822190880775,0.019547687843441963,0.0074830991216003895
1701982310551601700,18.5796015625,0.12232576310634613,0.02168571576476097,0.09392052888870239
1701982310568594400,18.596594482421875,0.12278391420841217,0.10293079167604446,0.23151792585849762
1701982310585579000,18.6135791015625,0.02825251780450344,0.05772676691412926,0.25732699036598206
1701982310602580200,18.630580322265626,0.03436116874217987,-0.029168816283345222,0.08674286305904388
1701982310619579100,18.6475791015625,0.010537425056099892,0.14645494520664215,-0.05421429127454758
1701982310636569900,18.66456982421875,-0.01817324012517929,0.3703370690345764,-0.06780604273080826
1701982310653564700,18.681564697265625,-0.08689557760953903,0.36331209540367126,-0.058184914290905
1701982310670557700,18.6985576171875,-0.10583240538835526,0.19868391752243042,-0.1316414624452591
1701982310687552300,18.71555224609375,-0.059864792972803116,0.10965031385421753,-0.19593502581119537
1701982310704545300,18.732545166015626,-0.024892758578062057,-0.01924225501716137,-0.156686931848526
1701982310721550000,18.749550048828127,0.007941247895359993,-0.04749477282166481,-0.023060163483023643
1701982310738532600,18.76653271484375,0.0013744467869400978,0.026114489883184433,0.09666942805051804
1701982310755527700,18.783527587890624,-0.028557950630784035,0.05696318298578262,0.1014036312699318
1701982310772520400,18.8005205078125,-0.03222314268350601,0.04596760869026184,0.021380282938480377
1701982310789515300,18.817515380859376,-0.005345070734620094,0.05115996301174164,-0.04657847434282303
1701982310806498000,18.834498046875,-0.0009162978967651725,0.05849034711718559,-0.055894169956445694
1701982310823492400,18.851492431640626,-0.0010690141934901476,0.07590000331401825,-0.046273041516542435
1701982310840485600,18.868485595703124,0.005039638374000788,0.09865473955869675,-0.056352317333221436
1701982310857490400,18.885490478515624,0.017867809161543846,0.1062905490398407,-0.03726277872920036
1701982310874483700,18.902483642578126,0.025045474991202354,0.06536258012056351,0.022602014243602753
1701982310891478000,18.91947802734375,0.018936822190880775,0.029168816283345222,0.0734565481543541
1701982310908471000,18.936470947265626,0.02076941914856434,0.0679587572813034,0.06704246252775192
1701982310925465600,18.953465576171876,0.03237585723400116,0.16081027686595917,-0.012980886735022068
1701982310942458600,18.970458740234374,0.04505131021142006,0.21914790570735931,-0.08460483700037003
1701982310959453200,18.987453125,0.044135015457868576,0.17287486791610718,-0.06536258012056351
1701982310976446000,19.004446044921874,0.008399397134780884,0.02733621932566166,0.02168571576476097
1701982310993441000,19.02144091796875,-0.009773843921720982,-0.059864792972803116,0.09147707372903824
1701982311010433800,19.038433837890626,-0.014049900695681572,-0.02168571576476097,0.10247264802455902
1701982311027428600,19.0554287109375,-0.01572977937757969,0.04352414980530739,0.0630718395113945
1701982311044421400,19.07242138671875,-0.010842857882380486,0.08414668589830399,-0.004581489134579897
1701982311061407200,19.0894072265625,0.008857546374201775,0.03222314268350601,-0.05421429127454758
1701982311078411500,19.10641162109375,0.02428189292550087,-0.027641652151942253,-0.023976460099220276
1701982311095404000,19.123404052734376,0.015577063895761967,-0.0074830991216003895,0.021838432177901268
1701982311112396500,19.140396484375,0.010079276748001575,0.035124752670526505,0.010231993161141872
1701982311129391600,19.1573916015625,0.029168816283345222,0.08903361111879349,-0.027183502912521362
1701982311146384400,19.17438427734375,0.06215553730726242,0.12293662875890732,0.001527163083665073
1701982311163379200,19.191379150390624,0.10262536257505417,0.13469578325748444,0.0884227454662323
1701982311180372000,19.2083720703125,0.10506882518529892,0.1281289905309677,0.34086281061172485
1701982311197366800,19.22536669921875,0.047189339995384216,-0.09376781433820724,0.27580565214157104
1701982311214349000,19.24234912109375,0.0734565481543541,0.024129176512360573,0.07681630551815033
1701982311231361300,19.259361328125,0.03848451003432274,0.20891591906547546,-0.049785517156124115
1701982311248347100,19.27634716796875,0.003817907767370343,0.3171917796134949,-0.04001167416572571
1701982311265342000,19.293342041015624,-0.01710422709584236,0.3280346393585205,-0.02626720629632473
1701982311282335000,19.3103349609375,0.015118914656341076,0.3735440969467163,-0.0630718395113945
1701982311299329500,19.32732958984375,0.09453139454126358,0.4056145250797272,-0.09147707372903824
1701982311316322600,19.344322509765625,0.16294831037521362,0.4671591818332672,-0.052228979766368866
1701982311333317000,19.361317138671875,0.20876319706439972,0.4885394871234894,0.01771509274840355
1701982311350310100,19.37831005859375,0.23854288458824158,0.4155410826206207,0.11728613078594208
1701982311367304700,19.3953046875,0.19914206862449646,0.28817567229270935,0.19944749772548676
1701982311384298000,19.412298095703125,0.08765916526317596,-0.2506074607372284,0.21044307947158813
1701982311401292500,19.42929248046875,0.043676864355802536,-0.5322163701057434,0.04092797264456749
1701982311418285600,19.44628564453125,0.013286318629980087,-0.4593706727027893,-0.07849618047475815
1701982311435269600,19.46326953125,-0.0607810914516449,-0.403323769569397,-0.12599095702171326
1701982311452273000,19.48027294921875,-0.14385876059532166,-0.38835757970809937,-0.15302173793315887
1701982311469268000,19.49726806640625,-0.197004035115242,-0.5406157374382019,-0.20876319706439972
1701982311486272300,19.514272216796876,-0.21807889640331268,-0.7661777138710022,-0.26221391558647156
1701982311503253000,19.5312529296875,-0.2269364446401596,-0.837496280670166,-0.30024027824401855
1701982311520251000,19.5482509765625,-0.22678372263908386,-0.7263187766075134,-0.3127630054950714
1701982311537229800,19.565229736328124,-0.22647829353809357,-0.45784351229667664,-0.20066922903060913
1701982311554238500,19.582238525390625,-0.280539870262146,-0.18738290667533875,-0.008704829961061478
1701982311571230700,19.599230712890623,-0.25335636734962463,0.04001167416572571,0.0003054326225537807
1701982311588223500,19.616223388671877,-0.1921171247959137,0.14294247329235077,-0.0659734457731247
1701982311605207800,19.633207763671876,-0.11133018881082535,0.16172657907009125,-0.10415252298116684
1701982311622211300,19.65021142578125,-0.03634648025035858,0.04352414980530739,-0.05390885844826698
1701982311639206100,19.6672060546875,0.00015271631127689034,-0.05207626149058342,0.01725694350898266
1701982311656198700,19.68419873046875,0.01038470957428217,-0.06001751124858856,0.06017022579908371
1701982311673193700,19.70119384765625,0.007177666760981083,0.004123340360820293,0.06475171446800232
1701982311690186200,19.718186279296877,0.003054326167330146,0,0.027641652151942253
1701982311707175700,19.73517578125,0.015577063895761967,-0.018936822190880775,-0.00366519158706069
1701982311724174000,19.752174072265625,0.0328340083360672,0.0024434609804302454,0.016951510682702065
1701982311741169200,19.769169189453127,0.04657847434282303,0.05772676691412926,0.11927144229412079
1701982311758152400,19.78615234375,0.042760565876960754,-0.0012217304902151227,0.20143280923366547
1701982311775156500,19.803156494140627,0.020311269909143448,-0.09193521738052368,0.09056077152490616
1701982311792149200,19.820149169921876,-0.016798794269561768,0.010995574295520782,-0.14752395451068878
1701982311809144000,19.83714404296875,-0.009621127508580685,0.24755313992500305,-0.17791450023651123
1701982311826137000,19.85413720703125,-0.05100724846124649,0.30772337317466736,-0.0013744467869400978
1701982311843132000,19.8711318359375,-0.06123924255371094,0.17440202832221985,0.11255192011594772
1701982311860122000,19.8881220703125,-0.02932153269648552,0.03787364438176155,0.0754418596625328
1701982311877121800,19.905121826171875,-0.00427605677396059,0.05421429127454758,-0.028405234217643738
1701982311894112300,19.9221123046875,0.004581489134579897,0.16859880089759827,-0.11453723162412643
1701982311911106800,19.93910693359375,0.024587325751781464,0.18219055235385895,-0.18295414745807648
1701982311928086500,19.95608642578125,0.0354301854968071,0.13729196786880493,-0.20036379992961884
1701982311945093400,19.97309326171875,0.03298672288656235,0.0633772686123848,-0.1609629988670349
1701982311962089000,19.9900888671875,0.016798794269561768,-0.015271631069481373,-0.09086620807647705
1701982311979071700,20.00707177734375,0.0022907445672899485,-0.07910704612731934,-0.014508049935102463
1701982311996076000,20.024075927734376,-0.017409659922122955,-0.11102475970983505,0.02672535367310047
1701982312013069800,20.04106982421875,-0.0377209298312664,-0.10384709388017654,0.03375030308961868
1701982312030062800,20.058062744140624,-0.0507018156349659,-0.07437284290790558,-0.00015271631127689034
1701982312047057700,20.0750576171875,-0.050243668258190155,-0.03527746722102165,-0.020463986322283745
1701982312064050400,20.092050537109376,-0.06215553730726242,-0.02626720629632473,0.004734205547720194
1701982312081045200,20.109045166015626,-0.055283304303884506,-0.02779436856508255,0.023060163483023643
1701982312098048300,20.12604833984375,-0.04184427112340927,-0.05406157299876213,0.015118914656341076
1701982312115032800,20.14303271484375,-0.03344487398862839,-0.0403171069920063,0.01710422709584236
1701982312132025600,20.160025634765624,-0.021991148591041565,-0.07406741380691528,0.026114489883184433
1701982312149017600,20.177017578125,-0.011301007121801376,-0.07941248267889023,0.027947084978222847
1701982312166010600,20.1940107421875,-0.01863138936460018,-0.016340645030140877,0.02015855349600315
1701982312183010800,20.2110107421875,-0.022907447069883347,0.0529925599694252,0.019394971430301666
1701982312199990500,20.227990478515625,-0.021074850112199783,0.04581489413976669,0.01038470957428217
1701982312216995600,20.24499560546875,-0.008399397134780884,-0.007635815534740686,0.01160643994808197
1701982312233988900,20.26198876953125,-0.005803219974040985,-0.04703662544488907,0.015577063895761967
1701982312250983200,20.278983154296874,0.004428773187100887,-0.056352317333221436,0.0019853119738399982
1701982312267976200,20.29597607421875,0.009468411095440388,-0.02687807008624077,-0.014202617108821869
1701982312284971000,20.312970947265626,0.00733038317412138,0.013286318629980087,-0.032681290060281754
1701982312301963800,20.3299638671875,0.012828170321881771,0.026572637259960175,-0.02519819140434265
1701982312318958600,20.34695849609375,0.009468411095440388,0.010995574295520782,-0.0074830991216003895
1701982312335951400,20.363951416015624,0.004886921960860491,-0.012217304669320583,0.007941247895359993
1701982312352946400,20.380946533203126,0.009621127508580685,-0.038026362657547,0.009010262787342072
1701982312369928700,20.3979287109375,0.018325956538319588,-0.014966198243200779,0.02122756652534008
1701982312386918000,20.41491796875,0.01114829070866108,0.026114489883184433,0.03680463135242462
1701982312403926800,20.4319267578125,0.021380282938480377,0.04749477282166481,0.04596760869026184
1701982312420921600,20.448921630859374,0.019547687843441963,0.04566217586398125,0.044135015457868576
1701982312437914400,20.465914306640624,0.013591751456260681,0.027641652151942253,0.01771509274840355
1701982312454907000,20.482906982421873,0.01237002108246088,0.00931569468230009,-0.02519819140434265
1701982312471904800,20.49990478515625,0.020463986322283745,0.018936822190880775,-0.03497203439474106
1701982312488896800,20.516896728515626,0.021074850112199783,0.04230241850018501,0.005955935921519995
1701982312505889500,20.5338896484375,0.015271631069481373,0.03649919852614403,0.06505715101957321
1701982312522874000,20.5508740234375,-0.00015271631127689034,-0.029474247246980667,0.08475755155086517
1701982312539877000,20.567877197265624,-0.00809396430850029,-0.09544769674539566,0.05864306539297104
1701982312556872200,20.5848720703125,-0.01924225501716137,-0.1033889427781105,0.013286318629980087
1701982312573864700,20.60186474609375,-0.025045474991202354,-0.07299839705228806,-0.019853120669722557
1701982312590849800,20.618849853515623,-0.021380282938480377,-0.0403171069920063,-0.00931569468230009
1701982312607852800,20.635852783203124,-0.025656340643763542,-0.06062837690114975,0.01817324012517929
1701982312624847400,20.652847412109374,-0.031154127791523933,-0.09682214260101318,0.042760565876960754
1701982312641840000,20.669840087890623,-0.03756821155548096,-0.13668109476566315,0.050243668258190155
