time,seconds_elapsed,z,y,x
1701982205935549000,0.060548828125,0.05543602257966995,-0.25335636734962463,0.08796459436416626
1701982205952382500,0.077382568359375,0.040164388716220856,-0.3208569586277008,0.06979135423898697
1701982205969079800,0.094079833984375,0.03894266113638878,-0.3055853247642517,0.017867809161543846
1701982205986076400,0.111076416015625,0.04153883829712868,-0.18448130786418915,-0.055741455405950546
1701982206003065300,0.1280654296875,0.01160643994808197,-0.08170322328805923,-0.052228979766368866
1701982206020065000,0.14506494140625,-0.0555887371301651,-0.16539175808429718,0.0019853119738399982
1701982206037053700,0.1620537109375,-0.06963863968849182,-0.35155296325683594,0.10399980843067169
1701982206054050300,0.17905029296875,0.0007635815418325365,-0.42959097027778625,0.19028452038764954
1701982206071043300,0.196043212890625,0.06734789162874222,-0.3309362530708313,0.1996002197265625
1701982206088037400,0.213037353515625,0.08414668589830399,-0.24373523890972137,0.08414668589830399
1701982206105031400,0.230031494140625,0.09514226019382477,-0.06627888232469559,-0.06017022579908371
1701982206122014700,0.2470146484375,0.11560624837875366,0.13988813757896423,-0.20815233886241913
1701982206139015000,0.264014892578125,0.11224649101495743,0.1774563491344452,-0.299018532037735
1701982206156015900,0.281015869140625,0.0858265683054924,0.1062905490398407,-0.3153591752052307
1701982206173001500,0.29800146484375,0.05665775015950203,-0.04092797264456749,-0.25503623485565186
1701982206189997600,0.31499755859375,0.058948494493961334,-0.1589776873588562,-0.1362229436635971
1701982206206994200,0.331994140625,0.09911288321018219,-0.14065171778202057,0.02886338345706463
1701982206223977500,0.3489775390625,0.10949759185314178,-0.016340645030140877,0.12965615093708038
1701982206240979200,0.365979248046875,0.11652254313230515,0.17302757501602173,0.14156801998615265
1701982206257973200,0.38297314453125,0.12690725922584534,0.34834590554237366,0.04749477282166481
1701982206274967300,0.39996728515625,0.08949175477027893,0.34406983852386475,-0.007635815534740686
1701982206291958800,0.416958740234375,0.004734205547720194,0.09636399149894714,0.06475171446800232
1701982206308952800,0.433952880859375,0.038179077208042145,-0.06352998316287994,0.12736541032791138
1701982206325949000,0.450948974609375,0.15500704944133759,0.027641652151942253,0.16661348938941956
1701982206342937600,0.4679375,0.19288070499897003,0.1547016203403473,0.16172657907009125
1701982206359935500,0.484935546875,0.09437867999076843,0.17333301901817322,0.14187344908714294
1701982206376928800,0.5019287109375,0.11743884533643723,0.23625212907791138,0.0630718395113945
1701982206393919200,0.518919189453125,0.2590068578720093,0.42898011207580566,-0.10170906037092209
1701982206410915000,0.5359150390625,0.2762638032436371,0.41523563861846924,-0.342237263917923
1701982206427910000,0.552909912109375,0.22113321721553802,0.08597928285598755,-0.502436637878418
1701982206444893000,0.569892822265625,0.18585574626922607,-0.20128010213375092,-0.43737950921058655
1701982206461893600,0.5868935546875,0.1359175145626068,-0.1547016203403473,-0.18570303916931152
1701982206478888400,0.603888427734375,0.06475171446800232,-0.11056660860776901,0.044745877385139465
1701982206495886000,0.620885986328125,0.022602014243602753,-0.24923302233219147,0.20311269164085388
1701982206512873500,0.63787353515625,0.04199698567390442,-0.1837177276611328,0.2863430976867676
1701982206529870300,0.654870361328125,0.047189339995384216,-0.0503963828086853,0.23808473348617554
1701982206546853400,0.671853271484375,0.0010690141934901476,-0.02474004216492176,0.06459899991750717
1701982206563859200,0.688859130859375,-0.03985895588994026,0.03237585723400116,-0.11316278576850891
1701982206580848000,0.70584814453125,-0.04230241850018501,0.07269296050071716,-0.20051652193069458
1701982206597844700,0.7228447265625,-0.024892758578062057,0.08445212244987488,-0.18616119027137756
1701982206614839000,0.739839111328125,-0.011453723534941673,0.07788532227277756,-0.09957103431224823
1701982206631830500,0.75683056640625,0.015118914656341076,0.06765332818031311,0.030085112899541855
1701982206648816000,0.773816162109375,0.044745877385139465,0.04337143152952194,0.1310305893421173
1701982206665820700,0.790820556640625,0.0555887371301651,0.05543602257966995,0.14828753471374512
1701982206682809000,0.80780908203125,0.04734205827116966,0.0633772686123848,0.09834930300712585
1701982206699807500,0.824807373046875,0.03039054572582245,0.0907134860754013,0.012828170321881771
1701982206716790000,0.8417900390625,0.020463986322283745,0.12996158003807068,-0.06536258012056351
1701982206733790500,0.85879052734375,0.011759156361222267,0.13118331134319305,-0.09269879758358002
1701982206750775800,0.87577587890625,0.012675453908741474,0.08109235763549805,-0.05009094998240471
1701982206767781600,0.89278173828125,0.0022907445672899485,0.003512475173920393,0.018020525574684143
1701982206784775000,0.90977490234375,-0.019547687843441963,-0.05009094998240471,0.058184914290905
1701982206801765600,0.926765625,-0.019394971430301666,-0.04612032696604729,0.051312681287527084
1701982206818760400,0.943760498046875,-0.01771509274840355,-0.001832595793530345,0.020311269909143448
1701982206835758000,0.960758056640625,-0.013744467869400978,0.06979135423898697,-0.021838432177901268
1701982206852745200,0.9777451171875,-0.022143865004181862,0.1437060534954071,-0.062460970133543015
1701982206869742000,0.9947421875,-0.01114829070866108,0.16340644657611847,-0.04795292019844055
1701982206886736400,1.011736328125,-0.003817907767370343,0.08765916526317596,-0.015882495790719986
1701982206903728000,1.02872802734375,0.001832595793530345,-0.020922135561704636,-0.0013744467869400978
1701982206920722700,1.04572265625,-0.013286318629980087,-0.04108068719506264,0.0009162978967651725
1701982206937716500,1.062716552734375,-0.010231993161141872,0.07422012835741043,-0.003359758760780096
1701982206954710800,1.079710693359375,-0.001832595793530345,0.18875735998153687,-0.012675453908741474
1701982206971702500,1.09670263671875,-0.014813481830060482,0.2577851414680481,-0.030695978552103043
1701982206988696300,1.1136962890625,0.007788531947880983,0.3572034537792206,-0.04749477282166481
1701982207005692700,1.130692626953125,0.0682641938328743,0.4297437071800232,-0.06811147183179855
1701982207022681000,1.14768115234375,0.14065171778202057,0.4349360466003418,-0.035582900047302246
1701982207039679200,1.16467919921875,0.2018909603357315,0.3715587854385376,0.06368270516395569
1701982207056672300,1.18167236328125,0.17669276893138885,0.25793784856796265,0.15134187042713165
1701982207073658600,1.19865869140625,0.1033889427781105,0.24236078560352325,0.16279558837413788
1701982207090663000,1.215662841796875,0.06230825558304787,0.3419318199157715,0.08017606288194656
1701982207107638800,1.232638671875,0.05619960278272629,0.35216382145881653,-0.012064588256180286
1701982207124646700,1.249646728515625,0.05925392732024193,0.2721404731273651,-0.05314527451992035
1701982207141637400,1.266637451171875,0.06001751124858856,0.22143864631652832,-0.0656680166721344
1701982207158622700,1.283622802734375,0.08903361111879349,0.2194533348083496,-0.04046982154250145
1701982207175638000,1.300637939453125,0.12278391420841217,0.24419337511062622,0.005039638374000788
1701982207192633000,1.317633056640625,0.1598939746618271,0.28649580478668213,0.06780604273080826
1701982207209610800,1.33461083984375,0.21059578657150269,0.3095559775829315,0.12538009881973267
1701982207226606000,1.351606201171875,0.2565633952617645,0.31841349601745605,0.14492778480052948
1701982207243607300,1.368607177734375,0.2623666226863861,0.27748554944992065,0.2719877362251282
1701982207260608500,1.3856083984375,0.1088867336511612,-0.19303341209888458,0.32039880752563477
1701982207277591800,1.402591796875,-0.014355333521962166,-0.15943582355976105,-0.1062905490398407
1701982207294582500,1.41958251953125,-0.018936822190880775,0.05726861581206322,-0.3026837408542633
1701982207311574300,1.43657421875,-0.06062837690114975,0.031612277030944824,-0.24144448339939117
1701982207328568000,1.453568115234375,-0.13561208546161652,-0.24113905429840088,-0.13927727937698364
1701982207345561900,1.470561767578125,-0.16371189057826996,-0.5673410892486572,-0.03329215571284294
1701982207362555600,1.4875556640625,-0.1563815027475357,-0.6918048858642578,0.1235474944114685
1701982207379540500,1.50454052734375,-0.14385876059532166,-0.6898195743560791,0.2557998299598694
1701982207396544300,1.521544189453125,-0.12400564551353455,-0.6258314251899719,0.2678644061088562
1701982207413534700,1.53853466796875,-0.10735956579446793,-0.5247332453727722,0.17150041460990906
1701982207430530600,1.555530517578125,-0.13347405195236206,-0.4225660264492035,0.07528914511203766
1701982207447528200,1.572528076171875,-0.22571471333503723,-0.45814892649650574,0.0858265683054924
1701982207464518400,1.589518310546875,-0.2919935882091522,-0.5936083197593689,0.1540907621383667
1701982207481516000,1.60651611328125,-0.28237244486808777,-0.5032002329826355,0.1771509200334549
1701982207498496800,1.623496826171875,-0.2252565622329712,-0.38576140999794006,0.1443169116973877
1701982207515501300,1.640501220703125,-0.17348572611808777,-0.25503623485565186,0.03375030308961868
1701982207532488700,1.65748876953125,-0.16722436249256134,-0.21181751787662506,-0.07269296050071716
1701982207549485800,1.67448583984375,-0.16401731967926025,-0.18738290667533875,-0.1267545372247696
1701982207566480000,1.69147998046875,-0.13988813757896423,-0.16050484776496887,-0.11438451707363129
1701982207583475000,1.708474853515625,-0.11026117950677872,-0.15057829022407532,-0.06902777403593063
1701982207600463400,1.72546337890625,-0.08445212244987488,-0.1647808998823166,-0.011301007121801376
1701982207617460500,1.74246044921875,-0.05955936014652252,-0.09682214260101318,0.058337632566690445
1701982207634454300,1.759454345703125,-0.033597588539123535,-0.07116580009460449,0.09636399149894714
1701982207651439000,1.776439208984375,-0.015882495790719986,-0.11881329119205475,0.09346238523721695
1701982207668439800,1.793439697265625,0.003512475173920393,-0.09651670604944229,0.08185594528913498
1701982207685436200,1.810436279296875,0.010231993161141872,-0.02015855349600315,0.08720101416110992
1701982207702424800,1.8274248046875,0.009468411095440388,-0.02886338345706463,0.11636982858181
1701982207719422700,1.844422607421875,0.012980886735022068,-0.04703662544488907,0.15546520054340363
1701982207736416000,1.861416015625,0.015271631069481373,-0.06352998316287994,0.16569720208644867
1701982207753406500,1.878406494140625,-0.009468411095440388,-0.14355333149433136,0.1621847152709961
1701982207770402300,1.89540234375,-0.0403171069920063,-0.2018909603357315,0.15057829022407532
1701982207787397000,1.912397216796875,-0.04077525436878204,-0.11759155988693237,0.13790282607078552
1701982207804391400,1.929391357421875,-0.04092797264456749,0.013591751456260681,0.08597928285598755
1701982207821378800,1.94637890625,-0.03726277872920036,0.05604688450694084,-0.012828170321881771
1701982207838381000,1.963381103515625,-0.015271631069481373,0.051312681287527084,-0.07269296050071716
1701982207855368400,1.980368408203125,-0.012522737495601177,0.029474247246980667,-0.03955352306365967
1701982207872355000,1.99735498046875,-0.01863138936460018,-0.032070424407720566,0.018020525574684143
1701982207889359000,2.014359130859375,-0.009926560334861279,-0.04077525436878204,0.04184427112340927
1701982207906351900,2.031351806640625,0.003359758760780096,-0.00931569468230009,0.02687807008624077
1701982207923339500,2.048339599609375,0.013591751456260681,0.03985895588994026,-0.009162978269159794
1701982207940343000,2.065343017578125,0.02168571576476097,0.08827003091573715,-0.0555887371301651
1701982207957329200,2.0823291015625,0.02321287989616394,0.12721268832683563,-0.06780604273080826
1701982207974325200,2.0993251953125,0.01710422709584236,0.12263119965791702,-0.026419922709465027
1701982207991317500,2.1163173828125,0.005192354787141085,0.05696318298578262,0.02519819140434265
1701982208008311600,2.1333115234375,0.0027488935738801956,0.003054326167330146,0.05910121276974678
1701982208025307100,2.15030712890625,0.007788531947880983,0.001679879380390048,0.05910121276974678
1701982208042288600,2.16728857421875,0.007941247895359993,0.03634648025035858,0.021991148591041565
1701982208059297300,2.18429736328125,0.008704829961061478,0.054825156927108765,-0.015882495790719986
1701982208076288300,2.201288330078125,0.005039638374000788,0.03878994286060333,-0.03497203439474106
1701982208093271000,2.21827099609375,-0.005497787147760391,0.06505715101957321,-0.033139441162347794
1701982208110271000,2.23527099609375,-0.007941247895359993,0.09162978827953339,0.016340645030140877
1701982208127272000,2.25227197265625,-0.009162978269159794,0.05955936014652252,0.08857546001672745
1701982208144251400,2.26925146484375,-0.004886921960860491,-0.020922135561704636,0.10949759185314178
1701982208161255400,2.28625537109375,0.004123340360820293,-0.04153883829712868,0.09025534242391586
1701982208178247200,2.3032470703125,0.013286318629980087,-0.016035212203860283,0.03405573591589928
1701982208195244800,2.320244873046875,0.01771509274840355,0.040622539818286896,-0.001832595793530345
1701982208212229400,2.3372294921875,0.004123340360820293,0.08155050873756409,0.038179077208042145
1701982208229232400,2.354232421875,0.01572977937757969,0.05757404863834381,0.07452555745840073
1701982208246211800,2.3712119140625,0.035124752670526505,0.05161811411380768,0.039706241339445114
1701982208263213600,2.388213623046875,0.035582900047302246,0.01817324012517929,0.006719517521560192
1701982208280208100,2.4052080078125,0.009621127508580685,-0.02687807008624077,0.027947084978222847
1701982208297204700,2.422204833984375,0.00427605677396059,0.0006108652451075613,0.024587325751781464
1701982208314194400,2.4391943359375,0.010231993161141872,0.0685696229338646,-0.028557950630784035
1701982208331190500,2.4561904296875,-0.0022907445672899485,0.0861319974064827,-0.060322944074869156
1701982208348185000,2.47318505859375,-0.001679879380390048,0.0731511116027832,-0.018020525574684143
1701982208365179400,2.490179443359375,-0.010995574295520782,0.01863138936460018,0.022907447069883347
1701982208382167800,2.507167724609375,-0.012522737495601177,0.006719517521560192,-0.031612277030944824
1701982208399166200,2.524166259765625,-0.0012217304902151227,0.08903361111879349,-0.10812314599752426
1701982208416159000,2.541158935546875,0.0010690141934901476,0.11774427443742752,-0.08888089656829834
1701982208433149400,2.5581494140625,-0.012217304669320583,0.040622539818286896,-0.027030786499381065
1701982208450145500,2.5751455078125,-0.015271631069481373,-0.03649919852614403,0.07009678333997726
1701982208467140400,2.592140380859375,-0.028099801391363144,-0.10781771689653397,0.15821409225463867
1701982208484122600,2.60912255859375,-0.033139441162347794,-0.17043140530586243,0.16737708449363708
1701982208501124000,2.6261240234375,-0.018936822190880775,-0.17501288652420044,0.07757988572120667
1701982208518121700,2.643121826171875,-0.014355333521962166,-0.11407908797264099,-0.02168571576476097
1701982208535116300,2.6601162109375,-0.01038470957428217,-0.04535674303770065,-0.12767083942890167
1701982208552103700,2.677103759765625,0.01038470957428217,0.011453723534941673,-0.12446379661560059
1701982208569100500,2.6941005859375,-0.0024434609804302454,-0.01710422709584236,0.01466076634824276
1701982208586094800,2.7110947265625,-0.03497203439474106,-0.10506882518529892,0.13637566566467285
1701982208603087400,2.72808740234375,-0.05268712714314461,-0.1082758679986,0.15592335164546967
1701982208620079900,2.745079833984375,-0.05161811411380768,-0.004581489134579897,0.052381694316864014
1701982208637073700,2.76207373046875,-0.021991148591041565,0.19578230381011963,-0.22021691501140594
1701982208654066400,2.77906640625,0.04764748737215996,0.45875978469848633,-0.45555275678634644
1701982208671062300,2.796062255859375,0.0936150997877121,0.6569855809211731,-0.3500257730484009
1701982208688057300,2.813057373046875,-0.020463986322283745,0.394008070230484,-0.03344487398862839
1701982208705051400,2.830051513671875,0.020005837082862854,-0.2148718535900116,0.058184914290905
1701982208722036700,2.84703662109375,0.008857546374201775,-0.2750420868396759,0.1492038369178772
1701982208739039500,2.86403955078125,-0.044135015457868576,-0.22678372263908386,0.2301434874534607
1701982208756020000,2.88102001953125,-0.06215553730726242,-0.22082778811454773,0.2845104932785034
1701982208773018400,2.898018310546875,-0.0679587572813034,-0.24816401302814484,0.1498146951198578
1701982208790018800,2.915018798828125,-0.05314527451992035,-0.1966986060142517,-0.0734565481543541
1701982208807013600,2.932013671875,-0.04734205827116966,-0.10674870014190674,-0.2226603776216507
1701982208824000800,2.949000732421875,-0.039095375686883926,-0.05268712714314461,-0.26740625500679016
1701982208840998700,2.96599853515625,-0.049785517156124115,-0.018020525574684143,-0.22143864631652832
1701982208857990400,2.982990478515625,-0.0858265683054924,-0.029168816283345222,-0.12980885803699493
1701982208874987500,2.999987548828125,-0.0933096632361412,-0.06261368840932846,-0.027183502912521362
1701982208891975000,3.016974853515625,-0.08002334833145142,-0.10720685124397278,0.05054909735918045
1701982208908972300,3.03397216796875,-0.058337632566690445,-0.14844025671482086,0.06643159687519073
1701982208925960400,3.05096044921875,-0.058795779943466187,-0.1313360333442688,0.07254024595022202
1701982208942955500,3.06795556640625,-0.06444628536701202,-0.05772676691412926,0.0832303911447525
1701982208959954200,3.0849541015625,-0.05192354694008827,0.019547687843441963,0.08475755155086517
1701982208976948000,3.101947998046875,-0.025656340643763542,0.05772676691412926,0.02733621932566166
1701982208993934800,3.118934814453125,-0.007941247895359993,0.09789115190505981,-0.036651913076639175
1701982209010936800,3.135936767578125,-0.0022907445672899485,0.07208210229873657,-0.036651913076639175
1701982209027926000,3.152926025390625,-0.002138028386980295,-0.029016099870204926,0.014202617108821869
1701982209044922400,3.16992236328125,0.005955935921519995,-0.07864890247583389,0.0705549344420433
1701982209061911000,3.1869111328125,0.014966198243200779,-0.06398813426494598,0.10399980843067169
1701982209078909000,3.203908935546875,0.025961773470044136,-0.04581489413976669,0.1264491081237793
1701982209095904800,3.22090478515625,0.038026362657547,-0.06505715101957321,0.13545936346054077
1701982209112892400,3.237892333984375,0.060322944074869156,-0.06734789162874222,0.15821409225463867
1701982209129887700,3.2548876953125,0.08261952549219131,-0.02580905705690384,0.18157969415187836
1701982209146879200,3.271879150390625,0.10002918541431427,-0.02428189292550087,0.17012597620487213
1701982209163872300,3.288872314453125,0.11438451707363129,-0.05604688450694084,0.16630806028842926
1701982209180861200,3.305861083984375,0.11835514008998871,-0.08796459436416626,0.17867808043956757
1701982209197861600,3.322861572265625,0.08277224004268646,-0.08155050873756409,0.17608191072940826
1701982209214859000,3.33985888671875,0.018478672951459885,-0.0455094613134861,0.13927727937698364
1701982209231846400,3.356846435546875,-0.016951510682702065,0.011453723534941673,0.12079860270023346
1701982209248843800,3.37384375,-0.03084869496524334,0.0006108652451075613,0.128434419631958
1701982209265837600,3.390837646484375,-0.02428189292550087,-0.07192938029766083,0.08674286305904388
1701982209282829300,3.407829345703125,0.01618792861700058,-0.03405573591589928,-0.03588833287358284
1701982209299823000,3.424822998046875,0.04612032696604729,0.15073099732398987,-0.1615738570690155
1701982209316819500,3.4418193359375,0.035582900047302246,0.3006984293460846,-0.33078351616859436
1701982209333808000,3.45880810546875,0.009010262787342072,0.3168863356113434,-0.4147774875164032
1701982209350806800,3.475806884765625,-0.03634648025035858,0.20066922903060913,-0.33536502718925476
1701982209367797500,3.492797607421875,-0.02580905705690384,0.07849618047475815,-0.22968533635139465
1701982209384793900,3.5097939453125,0.03405573591589928,0.03634648025035858,-0.16661348938941956
1701982209401782300,3.5267822265625,0.09498954564332962,0.09178250283002853,-0.21395555138587952
1701982209418780200,3.5437802734375,0.16310101747512817,0.2710714638233185,-0.20494529604911804
1701982209435776000,3.56077587890625,0.16325373947620392,0.4398229718208313,0.12721268832683563
1701982209452764700,3.5777646484375,0.04230241850018501,-0.019394971430301666,0.17837265133857727
1701982209469759200,3.59475927734375,0.09269879758358002,-0.32986724376678467,0.07223481684923172
1701982209486756400,3.61175634765625,0.06062837690114975,-0.21242839097976685,0.09941831976175308
1701982209503743700,3.62874365234375,-0.016493361443281174,-0.13271047174930573,0.22739458084106445
1701982209520741600,3.64574169921875,-0.029474247246980667,-0.1791362315416336,0.2828305959701538
1701982209537716500,3.662716552734375,0.005803219974040985,-0.2692388594150543,0.1722639948129654
1701982209554730500,3.67973046875,0.02779436856508255,-0.2981022298336029,0.05971207842230797
1701982209571715600,3.696715576171875,0.022143865004181862,-0.29993483424186707,0.029016099870204926
1701982209588717600,3.713717529296875,0.03344487398862839,-0.2444988191127777,0.0403171069920063
1701982209605709300,3.730709228515625,0.033597588539123535,-0.1690569519996643,0.038026362657547
1701982209622700800,3.74770068359375,0.043218716979026794,-0.11530081182718277,0.0065668015740811825
1701982209639694800,3.76469482421875,0.04856378585100174,-0.12736541032791138,-0.03436116874217987
1701982209656691000,3.78169091796875,0.031154127791523933,-0.11804971098899841,-0.02275473065674305
1701982209673679400,3.798679443359375,-0.00366519158706069,-0.05910121276974678,0.01466076634824276
1701982209690678500,3.815678466796875,-0.02672535367310047,-0.02932153269648552,0.03084869496524334
1701982209707669200,3.832669189453125,-0.0429132841527462,-0.024587325751781464,0.02733621932566166
1701982209724665300,3.849665283203125,-0.04566217586398125,-0.02687807008624077,0.03084869496524334
1701982209741656000,3.866656005859375,-0.038179077208042145,0.025503624230623245,0.056352317333221436
1701982209758650000,3.883650146484375,-0.03375030308961868,0.10155634582042694,0.11514809727668762
1701982209775642400,3.900642333984375,-0.00045814894838258624,0.22342395782470703,0.16630806028842926
1701982209792638200,3.91763818359375,0.08231408894062042,0.31093040108680725,0.15042556822299957
1701982209809639000,3.934638916015625,0.1589776873588562,0.3998112976551056,0.07987063378095627
1701982209826640000,3.951639892578125,0.20861047506332397,0.461355984210968,0.020005837082862854
1701982209843608800,3.96860888671875,0.24358251690864563,0.4954117238521576,-0.012980886735022068
1701982209860609000,3.985609130859375,0.24434609711170197,0.5499314665794373,-0.04856378585100174
1701982209877605600,4.002605712890625,0.20861047506332397,0.5290092825889587,-0.010995574295520782
1701982209894607000,4.019607177734375,0.04398229718208313,0.09789115190505981,0.17043140530586243
1701982209911591700,4.036591796875,-0.10995574295520782,-0.4280638098716736,0.05711590126156807
1701982209928587300,4.053587158203125,-0.08475755155086517,-0.3341432809829712,0.044745877385139465
1701982209945580800,4.070580810546875,-0.10308351367712021,-0.3865249752998352,0.15821409225463867
1701982209962572500,4.087572509765625,-0.17821992933750153,-0.5265658497810364,0.2571742534637451
1701982209979566300,4.10456640625,-0.20036379992961884,-0.551916778087616,0.192422553896904
1701982209996562700,4.121562744140625,-0.13515393435955048,-0.5232060551643372,-0.012828170321881771
1701982210013551000,4.138551025390625,-0.07757988572120667,-0.5138903856277466,-0.16035212576389313
1701982210030550000,4.155550048828125,-0.048258353024721146,-0.3868304193019867,-0.1696678251028061
1701982210047540500,4.17254052734375,-0.013439035043120384,-0.14874568581581116,-0.0910189226269722
1701982210064536800,4.189536865234375,0.023365596309304237,0.04596760869026184,-0.038179077208042145
1701982210081526500,4.206526611328125,0.015271631069481373,0.251218318939209,-0.01771509274840355
1701982210098524000,4.22352392578125,-0.013133603148162365,0.3827070891857147,-0.03894266113638878
1701982210115516400,4.240516357421875,-0.010995574295520782,0.3888157308101654,-0.10277807712554932
1701982210132507400,4.25750732421875,-0.005803219974040985,0.38667771220207214,-0.13790282607078552
1701982210149502000,4.274501953125,-0.0032070425804704428,0.34605515003204346,-0.1359175145626068
1701982210166499300,4.291499267578125,-0.004581489134579897,0.242513507604599,-0.11071932315826416
1701982210183487000,4.308487060546875,0.007941247895359993,0.10201449692249298,-0.05665775015950203
1701982210200484600,4.325484619140625,0.01191187184303999,-0.03176499158143997,0.0006108652451075613
1701982210217476400,4.342476318359375,0.014813481830060482,-0.06673702597618103,0.048105638474226
1701982210234463500,4.35946337890625,0.0022907445672899485,-0.10247264802455902,0.0959058403968811
1701982210251461600,4.376461669921875,-0.020463986322283745,-0.1293507218360901,0.13469578325748444
1701982210268458200,4.393458251953125,-0.031612277030944824,-0.13240504264831543,0.1062905490398407
1701982210285452300,4.410452392578125,-0.01038470957428217,-0.11591167747974396,-0.005955935921519995
1701982210302444000,4.427444091796875,-0.005650503560900688,-0.06582073122262955,-0.08399397134780884
1701982210319437800,4.444437744140625,-0.01771509274840355,0.02535090781748295,-0.12263119965791702
1701982210336434200,4.46143408203125,-0.02122756652534008,-0.2767219543457031,0.01817324012517929
1701982210353422800,4.4784228515625,-0.0064140851609408855,-0.33337971568107605,0.25824329257011414
1701982210370421500,4.49542138671875,0.03405573591589928,-0.19196440279483795,0.28069257736206055
1701982210387412200,4.512412109375,0.05375614017248154,0.058948494493961334,0.0910189226269722
1701982210404408300,4.529408203125,0.09422596544027328,0.29504790902137756,-0.1310305893421173
1701982210421397800,4.546397705078125,0.12186761945486069,0.26740625500679016,-0.16004669666290283
1701982210438379000,4.56337890625,0.11911872029304504,0.08307767659425735,-0.04077525436878204
1701982210455388700,4.580388671875,0.12767083942890167,0.13454307615756989,0.11316278576850891
1701982210472381200,4.597381103515625,0.06902777403593063,-0.031154127791523933,0.12278391420841217
1701982210489374000,4.6143740234375,0.08246681094169617,-0.18478673696517944,0.011301007121801376
1701982210506366500,4.631366455078125,0.07864890247583389,-0.10384709388017654,-0.10186178237199783
1701982210523360000,4.648360107421875,0.04902193695306778,0.2376265823841095,-0.12324206531047821
1701982210540357600,4.665357666015625,0.0024434609804302454,0.355981707572937,-0.13301590085029602
1701982210557347300,4.682347412109375,-0.02428189292550087,0.24190263450145721,-0.19364428520202637
1701982210574343200,4.69934326171875,-0.0065668015740811825,0.18066339194774628,-0.18967366218566895
1701982210591333600,4.716333740234375,-0.008399397134780884,0.10659598559141159,-0.06719517707824707
1701982210608328000,4.733327880859375,-0.013744467869400978,0.00809396430850029,0.08918632566928864
1701982210625325300,4.7503251953125,0.004123340360820293,-0.008399397134780884,0.17501288652420044
1701982210642302000,4.767302001953125,0.012675453908741474,0.027183502912521362,0.13576480746269226
1701982210659306500,4.784306396484375,0.00809396430850029,0.09117163717746735,0.04214970022439957
1701982210676303400,4.801303466796875,0.007024950347840786,0.17501288652420044,0.003817907767370343
1701982210693287400,4.818287353515625,0.001832595793530345,0.206777885556221,0.048716504126787186
1701982210710295800,4.8352958984375,-0.00045814894838258624,0.16325373947620392,0.1241583600640297
1701982210727285000,4.852284912109375,0.023365596309304237,0.06322455406188965,0.17623461782932281
1701982210744277200,4.86927734375,0.06017022579908371,0.039248090237379074,0.16829337179660797
1701982210761271800,4.886271728515625,0.06612616032361984,0.11133018881082535,0.05849034711718559
1701982210778266600,4.9032666015625,0.021991148591041565,0.2246456891298294,-0.07360926270484924
1701982210795259600,4.920259765625,0.017409659922122955,0.31780263781547546,-0.10583240538835526
1701982210812250400,4.93725048828125,0.03222314268350601,0.3504839241504669,-0.06872233748435974
1701982210829245400,4.954245361328125,0.03741549700498581,0.30604347586631775,-0.016035212203860283
1701982210846240000,4.971239990234375,0.007024950347840786,0.21731531620025635,0.024129176512360573
1701982210863232500,4.988232421875,-0.00366519158706069,0.2073887437582016,0.032070424407720566
1701982210880228000,5.00522802734375,0.030543262138962746,0.21578814089298248,-0.02428189292550087
1701982210897219300,5.02221923828125,0.11636982858181,0.22372940182685852,-0.09773843735456467
1701982210914214000,5.0392138671875,0.19303341209888458,0.34437528252601624,-0.11148291081190109
1701982210931207400,5.05620751953125,0.16722436249256134,0.5112941861152649,0.16035212576389313
1701982210948201500,5.073201416015625,0.05360342562198639,0.02825251780450344,0.1134682223200798
1701982210965195500,5.090195556640625,0.06398813426494598,-0.15943582355976105,-0.05650503560900688
1701982210982187300,5.107187255859375,0.03833179548382759,-0.02977968007326126,-0.13866640627384186
1701982210999181000,5.12418115234375,-0.06017022579908371,0.10002918541431427,-0.07849618047475815
1701982211016163300,5.141163330078125,-0.13820825517177582,0.01038470957428217,-0.056810468435287476
1701982211033165800,5.158165771484375,-0.1033889427781105,-0.078343465924263,-0.1794416606426239
1701982211050164700,5.175164794921875,-0.032528575509786606,0.04306599870324135,-0.3462078869342804
1701982211067157200,5.1921572265625,0.038637228310108185,0.19379699230194092,-0.41141775250434875
1701982211084146400,5.209146484375,0.07269296050071716,0.22189679741859436,-0.32299500703811646
1701982211101143300,5.226143310546875,0.10583240538835526,0.10766500234603882,-0.0734565481543541
1701982211118137900,5.243137939453125,0.12980885803699493,-0.06459899991750717,0.23777928948402405
1701982211135131400,5.26013134765625,-0.008857546374201775,-0.3228422701358795,0.39354994893074036
1701982211152121600,5.27712158203125,-0.10125091671943665,-0.6476698517799377,0.164170041680336
1701982211169117000,5.294116943359375,-0.1371392458677292,-0.395077109336853,0.021991148591041565
1701982211186114000,5.311114013671875,-0.24862214922904968,-0.3188716471195221,0.025503624230623245
1701982211203101700,5.328101806640625,-0.31184670329093933,-0.4576907753944397,0.0010690141934901476
1701982211220098800,5.345098876953125,-0.29596421122550964,-0.6192646622657776,-0.058337632566690445
1701982211237091300,5.36209130859375,-0.22098049521446228,-0.7420485615730286,-0.07437284290790558
1701982211254087200,5.379087158203125,-0.1336267739534378,-0.7509061098098755,-0.03191770985722542
1701982211271068000,5.39606787109375,-0.07956519722938538,-0.6207917928695679,0.02779436856508255
1701982211288075800,5.41307568359375,-0.03955352306365967,-0.4306600093841553,0.05803219974040985
1701982211305066200,5.430066162109375,0.006261368747800589,-0.17959438264369965,0.08414668589830399
1701982211322051600,5.447051513671875,0.07895433157682419,0.06704246252775192,0.08689557760953903
1701982211339046000,5.4640458984375,0.07635815441608429,0.21899518370628357,0.023365596309304237
1701982211356049400,5.48104931640625,-0.02977968007326126,0.44089198112487793,0.020311269909143448
1701982211373030000,5.49802978515625,-0.004428773187100887,0.19685132801532745,-0.14584407210350037
1701982211390035200,5.51503515625,0.043676864355802536,0.0403171069920063,-0.23869559168815613
1701982211407028200,5.5320283203125,0.03649919852614403,0.01160643994808197,-0.1941024363040924
1701982211424019000,5.54901904296875,0.023060163483023643,0.018936822190880775,-0.09422596544027328
1701982211441014800,5.566014892578125,0.02825251780450344,0.007177666760981083,-0.015882495790719986
1701982211458009600,5.583009521484375,0.020311269909143448,-0.040622539818286896,0.01466076634824276
1701982211475003000,5.6000029296875,0.015118914656341076,-0.04352414980530739,0.03329215571284294
1701982211491993300,5.616993408203125,0.009162978269159794,-0.043218716979026794,0.03390302136540413
1701982211508978000,5.63397802734375,-0.0009162978967651725,-0.03420845419168472,0.016493361443281174
1701982211525984500,5.650984619140625,0.012522737495601177,-0.021838432177901268,-0.01970040425658226
1701982211542972200,5.66797216796875,0.012675453908741474,0.013439035043120384,-0.06368270516395569
1701982211559972400,5.684972412109375,0.010995574295520782,0.055741455405950546,-0.07360926270484924
1701982211576964400,5.70196435546875,0.012828170321881771,0.04566217586398125,-0.046273041516542435
1701982211593955800,5.718955810546875,0.0074830991216003895,0.0025961773935705423,0.0022907445672899485
1701982211610950700,5.73595068359375,0.0029016099870204926,-0.03237585723400116,0.020922135561704636
1701982211627944400,5.7529443359375,-0.007941247895359993,-0.027488935738801956,0.01572977937757969
1701982211644938800,5.769938720703125,-0.006261368747800589,-0.01970040425658226,-0.00733038317412138
1701982211661930500,5.786930419921875,-0.012217304669320583,0.018936822190880775,-0.01878410577774048
1701982211678924000,5.803924072265625,-0.012522737495601177,0.03130684420466423,-0.005345070734620094
1701982211695920400,5.82092041015625,-0.005345070734620094,0.0027488935738801956,0.023976460099220276
1701982211712909000,5.837908935546875,-0.006108652334660292,-0.027947084978222847,0.05711590126156807
1701982211729907000,5.854906982421875,0,-0.02886338345706463,0.052839845418930054
1701982211746900200,5.871900146484375,0.0013744467869400978,-0.015271631069481373,0.01572977937757969
1701982211763891000,5.888890869140625,0.0029016099870204926,0.02168571576476097,-0.005039638374000788
1701982211780886300,5.90588623046875,0.0007635815418325365,0.04566217586398125,0.00015271631127689034
1701982211797881300,5.92288134765625,-0.001527163083665073,0.013744467869400978,0.016493361443281174
1701982211814874400,5.939874267578125,0.003054326167330146,0.0010690141934901476,0.02871066704392433
1701982211831865000,5.956864990234375,-0.007941247895359993,0.002138028386980295,0.0377209298312664
1701982211848860000,5.97385986328125,-0.004734205547720194,-0.0074830991216003895,0.024434609338641167
1701982211865857300,5.990857177734375,-0.007788531947880983,0.002138028386980295,-0.009773843921720982
1701982211882844700,6.0078447265625,-0.00045814894838258624,0.007941247895359993,-0.035124752670526505
1701982211899836400,6.02483642578125,0.0064140851609408855,0.03741549700498581,-0.038026362657547
1701982211916836000,6.041836181640625,0.0006108652451075613,0.06475171446800232,-0.017562376335263252
1701982211933831000,6.058830810546875,-0.00855211354792118,0.03680463135242462,0.019089538604021072
1701982211950822400,6.075822509765625,-0.004734205547720194,-0.013286318629980087,0.02687807008624077
1701982211967817000,6.09281689453125,-0.01038470957428217,0.0003054326225537807,0.009773843921720982
1701982211984810800,6.109810791015625,-0.015118914656341076,0.015118914656341076,-0.0009162978967651725
1701982212001805300,6.126805419921875,-0.004428773187100887,0.009773843921720982,0.00015271631127689034
1701982212018796500,6.143796630859375,-0.004734205547720194,0.013744467869400978,0.017867809161543846
1701982212035791400,6.160791259765625,-0.004123340360820293,-0.020005837082862854,0.03985895588994026
1701982212052783900,6.177783935546875,-0.0007635815418325365,-0.033139441162347794,0.0507018156349659
1701982212069779500,6.194779541015625,-0.0029016099870204926,-0.0025961773935705423,0.053297992795705795
1701982212086771000,6.21177099609375,-0.004734205547720194,0.016340645030140877,0.05421429127454758
1701982212103765500,6.228765625,-0.006719517521560192,0.017867809161543846,0.05390885844826698
1701982212120755000,6.2457548828125,-0.001527163083665073,-0.001679879380390048,0.042760565876960754
1701982212137757200,6.262757080078125,0.006719517521560192,-0.00733038317412138,0.01572977937757969
1701982212154745300,6.279745361328125,0.004428773187100887,0,-0.006261368747800589
1701982212171741700,6.29674169921875,0.0006108652451075613,0.0065668015740811825,-0.008246680721640587
1701982212188731100,6.313731201171875,-0.0024434609804302454,-0.004734205547720194,0.009162978269159794
1701982212205728300,6.330728271484375,0.003512475173920393,-0.0010690141934901476,0.02871066704392433
1701982212222719700,6.3477197265625,0.010537425056099892,-0.003512475173920393,0.03405573591589928
1701982212239714300,6.36471435546875,0.010690141469240189,-0.0007635815418325365,0.02871066704392433
1701982212256706800,6.381706787109375,0.007788531947880983,-0.001832595793530345,0.014813481830060482
1701982212273702400,6.398702392578125,0.010537425056099892,0.02779436856508255,0.0006108652451075613
1701982212290694100,6.415694091796875,0.006261368747800589,0.06352998316287994,-0.006108652334660292
1701982212307688700,6.432688720703125,-0.0032070425804704428,0.06872233748435974,-0.010995574295520782
1701982212324681200,6.44968115234375,-0.0003054326225537807,0.0455094613134861,-0.019394971430301666
1701982212341674200,6.46667431640625,0.005497787147760391,0.046273041516542435,-0.021380282938480377
1701982212358655500,6.483655517578125,0.006719517521560192,0.04841107130050659,-0.010231993161141872
1701982212375663000,6.5006630859375,0.009621127508580685,0.03634648025035858,-0.002138028386980295
1701982212392655400,6.5176552734375,0.013897184282541275,0.04657847434282303,0.006872233934700489
1701982212409640700,6.534640625,0.02229658141732216,0.076052725315094,0.019547687843441963
1701982212426642700,6.551642578125,0.03237585723400116,0.12431107461452484,0.038026362657547
1701982212443637500,6.568637451171875,0.04566217586398125,0.1440114825963974,0.06505715101957321
1701982212460629800,6.585629638671875,0.05054909735918045,0.13790282607078552,0.10262536257505417
1701982212477625300,6.602625244140625,0.053297992795705795,0.10445795953273773,0.14508049190044403
1701982212494616800,6.619616943359375,0.05421429127454758,0.019547687843441963,0.16432274878025055
1701982212511611600,6.636611572265625,0.04306599870324135,-0.05696318298578262,0.11301007121801376
1701982212528604200,6.653604248046875,0.02825251780450344,-0.1036943718791008,0.03741549700498581
1701982212545600000,6.67060009765625,0.05375614017248154,-0.13530665636062622,0.005955935921519995
1701982212562591200,6.68759130859375,0.22418753802776337,0.17012597620487213,0.17501288652420044
1701982212579586000,6.7045859375,0.2018909603357315,0.3778201639652252,0.6035348773002625
1701982212596578300,6.721578369140625,0.10491610318422318,-0.2816088795661926,0.8920159935951233
1701982212613571300,6.7385712890625,0.0734565481543541,-0.1472185254096985,0.4602869749069214
1701982212630578000,6.755577880859375,0.04214970022439957,0.32162055373191833,-0.15164729952812195
1701982212647560200,6.772560302734375,0.02428189292550087,0.7327328324317932,-0.44837507605552673
1701982212664552700,6.789552734375,0.001527163083665073,0.8011497855186462,-0.3830125033855438
1701982212681548300,6.80654833984375,0.013897184282541275,0.6965391039848328,-0.1440114825963974
1701982212698539800,6.823539794921875,0.04932736977934837,0.5655084848403931,0.04734205827116966
1701982212715534600,6.84053466796875,0.09605856239795685,0.3471241891384125,0.2142609804868698
1701982212732527000,6.857527099609375,0.04993823543190956,-0.11820242553949356,0.2773328125476837
1701982212749523000,6.87452294921875,-0.01160643994808197,-0.36422839760780334,0.09972374886274338
1701982212766512400,6.891512451171875,-0.009010262787342072,-0.22388210892677307,-0.07467827945947647
1701982212783508500,6.908508544921875,-0.051770828664302826,0.07712173461914062,-0.14844025671482086
1701982212800504000,6.925504150390625,-0.0887281745672226,0.23686300218105316,-0.17562375962734222
1701982212817497000,6.9424970703125,-0.08124507963657379,-0.3274237811565399,0.057879481464624405
1701982212834488600,6.959488525390625,-0.008704829961061478,-0.19226983189582825,0.19120082259178162
1701982212851483100,6.976483154296875,0.032070424407720566,0.06368270516395569,0.10842858254909515
1701982212868475600,6.9934755859375,0.0403171069920063,0.3550654351711273,-0.009621127508580685
1701982212885471500,7.010471435546875,0.09025534242391586,0.5426010489463806,-0.06780604273080826
1701982212902462700,7.027462646484375,0.1488984078168869,0.49785518646240234,0.09346238523721695
1701982212919457500,7.04445751953125,0.1215621829032898,-0.015882495790719986,0.21319197118282318
1701982212936450000,7.061449951171875,0.054825156927108765,-0.5013676285743713,0.12492194026708603
1701982212953446000,7.07844580078125,0.04352414980530739,-0.37201693654060364,0.007635815534740686
1701982212970437000,7.09543701171875,-0.017409659922122955,-0.005650503560900688,0.018020525574684143
1701982212987432000,7.112431884765625,-0.09178250283002853,0.07498370856046677,0.03084869496524334
1701982213004424400,7.129424560546875,-0.10002918541431427,-0.022143865004181862,-0.04841107130050659
1701982213021420000,7.146419921875,-0.05772676691412926,-0.1319468915462494,-0.14767667651176453
1701982213038402800,7.16340283203125,-0.03405573591589928,-0.18768835067749023,-0.18295414745807648
1701982213055403800,7.18040380859375,-0.01160643994808197,-0.17318029701709747,-0.12186761945486069
1701982213072401400,7.1974013671875,-0.005192354787141085,-0.12492194026708603,0.0019853119738399982
1701982213089394400,7.21439453125,0.00427605677396059,-0.011301007121801376,0.08689557760953903
1701982213106386000,7.231385986328125,0.00733038317412138,0.0503963828086853,0.07177666574716568
1701982213123380700,7.248380615234375,0.00931569468230009,0.09437867999076843,0.02825251780450344
1701982213140373000,7.265373046875,-0.001832595793530345,0.11209376901388168,-0.01863138936460018
1701982213157366000,7.282365966796875,0.0019853119738399982,0.13271047174930573,-0.026419922709465027
1701982213174363000,7.29936279296875,0.018478672951459885,0.14737124741077423,-0.017409659922122955
1701982213191355000,7.31635498046875,0.04596760869026184,0.19226983189582825,0.004428773187100887
1701982213208347400,7.333347412109375,0.05665775015950203,0.22067506611347198,0.07223481684923172
1701982213225343000,7.350343017578125,0.052381694316864014,0.1872301995754242,0.18829920887947083
1701982213242324000,7.367323974609375,0.061391957104206085,0.17180584371089935,0.2695443034172058
1701982213259329000,7.3843291015625,0.06062837690114975,0.18020524084568024,0.3576616048812866
1701982213276321800,7.40132177734375,-0.006108652334660292,-0.11682797968387604,0.29474249482154846
1701982213293317400,7.4183173828125,-0.031612277030944824,-0.2961169183254242,0.06062837690114975
1701982213310308900,7.435308837890625,-0.010537425056099892,-0.1589776873588562,-0.0910189226269722
1701982213327303400,7.452303466796875,-0.06414084881544113,-0.03680463135242462,-0.12476922571659088
1701982213344299300,7.46929931640625,-0.14049901068210602,-0.098502017557621,-0.1498146951198578
1701982213361291800,7.486291748046875,-0.19043724238872528,-0.7594582438468933,0.06230825558304787
1701982213378283300,7.503283203125,-0.13973543047904968,-0.6487388610839844,0.1518000066280365
1701982213395277800,7.52027783203125,-0.07437284290790558,-0.3104722499847412,0.020616702735424042
1701982213412270600,7.5372705078125,-0.07391469180583954,0.0861319974064827,-0.12400564551353455
1701982213429265000,7.554264892578125,-0.07437284290790558,0.21533000469207764,-0.15347988903522491
1701982213446257700,7.571257568359375,-0.02229658141732216,-0.010995574295520782,-0.06963863968849182
1701982213463252200,7.588252197265625,0.017867809161543846,-0.3061962127685547,0.03436116874217987
1701982213480254700,7.605254638671875,0.019089538604021072,-0.44486260414123535,0.09178250283002853
1701982213497240300,7.622240234375,0.03680463135242462,-0.3488040566444397,0.10934487730264664
1701982213514231800,7.639231689453125,0.06963863968849182,-0.15332718193531036,0.034666601568460464
1701982213531226400,7.656226318359375,0.0988074541091919,0.05757404863834381,-0.12797626852989197
1701982213548218400,7.67321826171875,0.11148291081190109,0.2718350291252136,-0.2594650089740753
1701982213565215200,7.69021533203125,0.07406741380691528,0.49144110083580017,-0.08827003091573715
1701982213582206200,7.707206298828125,-0.03527746722102165,0.08429940044879913,-0.19257527589797974
1701982213599201000,7.724200927734375,-0.04077525436878204,-0.03940080851316452,-0.2866485118865967
1701982213616193300,7.741193359375,-0.06276640295982361,0.10735956579446793,-0.24083362519741058
1701982213633189000,7.758189208984375,-0.14584407210350037,0.1085812970995903,-0.1394299864768982
1701982213650180400,7.775180419921875,-0.20601430535316467,-0.0503963828086853,-0.10155634582042694
1701982213667175200,7.792175048828125,-0.18768835067749023,-0.2557998299598694,-0.11056660860776901
1701982213684167700,7.809167724609375,-0.15073099732398987,-0.4944954216480255,-0.06505715101957321
1701982213701161200,7.8261611328125,-0.12339477986097336,-0.6250678896903992,0.05253441259264946
1701982213718155800,7.84315576171875,-0.08002334833145142,-0.5940664410591125,0.14905111491680145
1701982213735148500,7.8601484375,-0.01466076634824276,-0.5711590051651001,0.13775011897087097
1701982213752141800,7.877141845703125,0.027488935738801956,-0.36682456731796265,0.056352317333221436
1701982213769137700,7.8941376953125,0.03237585723400116,-0.06169738993048668,-0.0679587572813034
1701982213786129200,7.911129150390625,0.06475171446800232,0.13118331134319305,-0.20570887625217438
1701982213803123700,7.928123779296875,0.07269296050071716,0.2554943859577179,-0.2513710558414459
1701982213820116200,7.9451162109375,-0.03329215571284294,0.38835757970809937,-0.06490442901849747
1701982213837111600,7.962111572265625,-0.004581489134579897,-0.11423180252313614,-0.09560041129589081
1701982213854103800,7.979103759765625,0.03695734590291977,-0.28649580478668213,-0.09346238523721695
1701982213871098000,7.99609814453125,0.006872233934700489,-0.10430523753166199,0.008399397134780884
1701982213888080600,8.01308056640625,-0.06108652427792549,0.1791362315416336,0.07651086896657944
1701982213905083100,8.030083251953124,-0.06352998316287994,0.19074267148971558,-0.03848451003432274
1701982213922080800,8.047080810546875,-0.01817324012517929,0.10903944820165634,-0.18814650177955627
1701982213939068000,8.06406787109375,0.010842857882380486,0.06169738993048668,-0.22311852872371674
1701982213956069600,8.081069580078125,0.0403171069920063,0.04932736977934837,-0.14645494520664215
1701982213973060600,8.098060546875,0.06398813426494598,0.07284568250179291,0.008246680721640587
1701982213990052000,8.115052001953124,0.0607810914516449,0.14294247329235077,0.25641068816185
1701982214007046700,8.132046630859374,0.005345070734620094,-0.025656340643763542,0.3920227587223053
1701982214024039400,8.149039306640624,0.023976460099220276,-0.3582724630832672,0.23197607696056366
1701982214041035000,8.166034912109374,0.021532999351620674,-0.22846360504627228,0.08216137439012527
1701982214058026800,8.18302685546875,-0.015882495790719986,0.1036943718791008,0.008246680721640587
1701982214075021000,8.20002099609375,-0.0328340083360672,0.15821409225463867,-0.10812314599752426
1701982214092003000,8.217003173828125,-0.007788531947880983,0.07192938029766083,-0.22327125072479248
1701982214109009200,8.234009033203124,0.009621127508580685,0.009162978269159794,-0.2519819140434265
1701982214126000600,8.251000732421875,0.03726277872920036,-0.002138028386980295,-0.17760907113552094
1701982214142985000,8.26798486328125,0.051770828664302826,0.020616702735424042,-0.014966198243200779
1701982214159988000,8.284988037109375,0.017562376335263252,0.1466076523065567,0.25442537665367126
1701982214176983600,8.301983642578126,-0.052228979766368866,-0.08307767659425735,0.3396410644054413
1701982214193975000,8.31897509765625,0.01924225501716137,-0.3474296033382416,0.1869247704744339
1701982214210969600,8.335969482421875,-0.0012217304902151227,-0.2893974184989929,0.009773843921720982
1701982214227962400,8.35296240234375,-0.027183502912521362,0.04260785132646561,-0.09086620807647705
1701982214244958200,8.369958251953125,-0.039248090237379074,0.2002110779285431,-0.17440202832221985
1701982214261949400,8.386949462890625,-0.01924225501716137,0.1667662113904953,-0.23686300218105316
1701982214278943000,8.40394287109375,0.00015271631127689034,0.13729196786880493,-0.23167064785957336
1701982214295937500,8.4209375,0.02779436856508255,0.09972374886274338,-0.18707747757434845
1701982214312922600,8.437922607421875,0.05314527451992035,0.0887281745672226,-0.08506298810243607
1701982214329925000,8.454925048828125,0.029932396486401558,0.22250767052173615,0.18478673696517944
1701982214346917000,8.471917236328125,-0.02779436856508255,-0.08048149943351746,0.2968805134296417
1701982214363911000,8.488910888671874,0.04795292019844055,-0.30772337317466736,0.1976149082183838
1701982214380904000,8.505904052734374,0.018325956538319588,-0.22937989234924316,0.06123924255371094
1701982214397901000,8.522901123046875,-0.022602014243602753,0.1111774742603302,-0.010842857882380486
1701982214414892800,8.539892822265625,-0.05314527451992035,0.20570887625217438,-0.10384709388017654
1701982214431885300,8.55688525390625,-0.047189339995384216,0.11163562536239624,-0.2174680233001709
1701982214448878300,8.57387841796875,-0.014508049935102463,0.06963863968849182,-0.24144448339939117
1701982214465862400,8.5908623046875,0,0.029168816283345222,-0.13866640627384186
1701982214482869200,8.607869140625,0.012064588256180286,-0.004123340360820293,0.032070424407720566
1701982214499857700,8.624857666015625,0.016798794269561768,-0.047800205647945404,0.19807305932044983
1701982214516857000,8.641857177734375,0.007788531947880983,0.05192354694008827,0.3500257730484009
1701982214533846300,8.65884619140625,-0.01237002108246088,-0.16661348938941956,0.25442537665367126
1701982214550838300,8.67583837890625,0.015577063895761967,-0.1889100819826126,0.04642575979232788
1701982214567837000,8.6928369140625,-0.014202617108821869,0.024587325751781464,-0.11407908797264099
1701982214584829700,8.70982958984375,-0.052381694316864014,0.19165897369384766,-0.2050980031490326
1701982214601819600,8.726819580078125,-0.03787364438176155,0.15806138515472412,-0.2606867551803589
1701982214618817000,8.743817138671876,0.001832595793530345,0.08689557760953903,-0.24068090319633484
1701982214635808300,8.760808349609375,0.021380282938480377,0.06734789162874222,-0.10430523753166199
1701982214652803800,8.777803955078125,0.01863138936460018,-0.003359758760780096,0.05467243865132332
1701982214669795300,8.79479541015625,0.031154127791523933,-0.03955352306365967,0.18417587876319885
1701982214686790100,8.8117900390625,0.010231993161141872,0.04612032696604729,0.3300199508666992
1701982214703782700,8.82878271484375,-0.018325956538319588,-0.14156801998615265,0.2779437005519867
1701982214720778200,8.8457783203125,0.0328340083360672,-0.23548854887485504,0.07009678333997726
1701982214737766100,8.86276611328125,0.025503624230623245,-0.11255192011594772,-0.12064588814973831
1701982214754764300,8.879764404296875,-0.003359758760780096,0.18249599635601044,-0.17073683440685272
1701982214771752200,8.896752197265625,-0.0377209298312664,0.2148718535900116,-0.17928895354270935
1701982214788766200,8.91376611328125,-0.009468411095440388,0.098502017557621,-0.21044307947158813
1701982214805744000,8.930744140625,0.032070424407720566,0.06963863968849182,-0.18509216606616974
1701982214822738700,8.94773876953125,0.03588833287358284,0.058948494493961334,-0.08628471940755844
1701982214839731500,8.9647314453125,0.02825251780450344,0.043676864355802536,0.0403171069920063
1701982214856727000,8.98172705078125,0.01924225501716137,0.029932396486401558,0.17272214591503143
1701982214873718300,8.99871826171875,-0.01771509274840355,-0.0003054326225537807,0.26679539680480957
1701982214890713000,9.015713134765624,0.02672535367310047,-0.22663100063800812,0.14996741712093353
1701982214907705600,9.03270556640625,0.0377209298312664,-0.23747386038303375,-0.027030786499381065
1701982214924701200,9.049701171875,0.0074830991216003895,-0.01710422709584236,-0.13225232064723969
1701982214941693000,9.06669287109375,-0.029016099870204926,0.22647829353809357,-0.16340644657611847
1701982214958687200,9.083687255859376,-0.04184427112340927,0.17608191072940826,-0.2102903574705124
1701982214975680000,9.100679931640625,-0.0065668015740811825,0.09422596544027328,-0.22602014243602753
1701982214992675600,9.117675537109376,0.021532999351620674,0.06933320313692093,-0.14935655891895294
1701982215009656600,9.134656494140625,0.018325956538319588,0.013439035043120384,-0.01160643994808197
1701982215026661600,9.15166162109375,0.019089538604021072,-0.027641652151942253,0.11514809727668762
1701982215043654400,9.168654296875,-0.01664607785642147,0.10644327104091644,0.3153591752052307
1701982215060650000,9.18564990234375,-0.02580905705690384,-0.1598939746618271,0.2724458873271942
1701982215077641500,9.202641357421875,0.031154127791523933,-0.23380866646766663,0.09666942805051804
1701982215094636000,9.219635986328125,0.010995574295520782,-0.10919216275215149,-0.061391957104206085
1701982215111628500,9.236628662109375,-0.00366519158706069,0.22876903414726257,-0.08949175477027893
1701982215128624400,9.253624267578125,-0.046731192618608475,0.23136521875858307,-0.12324206531047821
1701982215145603300,9.270603271484376,-0.03588833287358284,0.07040221989154816,-0.21319197118282318
1701982215162612500,9.287612548828125,0.018478672951459885,0.07590000331401825,-0.19532416760921478
1701982215179602700,9.304602783203125,0.02168571576476097,0.03955352306365967,-0.07590000331401825
1701982215196599000,9.32159912109375,0.01237002108246088,0.014202617108821869,0.08078692853450775
1701982215213589800,9.33858984375,0.006108652334660292,-0.07956519722938538,0.182648703455925
1701982215230584800,9.355584716796875,0.021380282938480377,-0.01924225501716137,0.2583959996700287
1701982215247574800,9.37257470703125,-0.005192354787141085,-0.1595885455608368,0.20066922903060913
1701982215264575700,9.38957568359375,0.02015855349600315,-0.1797471046447754,0.04092797264456749
1701982215281564400,9.406564453125,0.013286318629980087,-0.03237585723400116,-0.08704829961061478
1701982215298559000,9.42355908203125,-0.04948008432984352,0.16279558837413788,-0.1443169116973877
1701982215315551700,9.4405517578125,-0.08155050873756409,0.10323622822761536,-0.20234911143779755
1701982215332547000,9.457547119140624,-0.05009094998240471,-0.022907447069883347,-0.18112154304981232
1701982215349538800,9.474538818359376,-0.03039054572582245,-0.10308351367712021,-0.06429356336593628
1701982215366532600,9.49153271484375,-0.007788531947880983,-0.13988813757896423,0.08185594528913498
1701982215383526700,9.508526611328126,0.012064588256180286,-0.096211276948452,0.16951510310173035
1701982215400521700,9.525521728515624,0.003054326167330146,-0.04688390716910362,0.1569923609495163
1701982215417513200,9.54251318359375,0.01114829070866108,-0.007635815534740686,0.1085812970995903
1701982215434507800,9.5595078125,0.010690141469240189,-0.010995574295520782,0.05375614017248154
1701982215451503400,9.57650341796875,0.011759156361222267,-0.04841107130050659,-0.0064140851609408855
1701982215468492800,9.593492919921875,0.041233405470848083,-0.07925976812839508,-0.04046982154250145
1701982215485487400,9.6104873046875,0.07941248267889023,-0.01038470957428217,0.059406645596027374
1701982215502482200,9.627482177734375,-0.007177666760981083,0.0029016099870204926,0.30146199464797974
1701982215519474700,9.644474609375,0.015271631069481373,-0.3758348524570465,0.18448130786418915
1701982215536470300,9.66147021484375,0.024434609338641167,-0.3810271918773651,-0.02672535367310047
1701982215553461800,9.678461669921875,0.02871066704392433,-0.154396191239357,-0.18310685455799103
1701982215570446000,9.695446044921875,-0.02733621932566166,0.20815233886241913,-0.18157969415187836
1701982215587441200,9.712441162109375,-0.08048149943351746,0.1895209401845932,-0.15500704944133759
1701982215604445000,9.72944482421875,-0.04581489413976669,0.021074850112199783,-0.16493362188339233
1701982215621436200,9.746436279296875,-0.014202617108821869,-0.07452555745840073,-0.11759155988693237
1701982215638430700,9.7634306640625,-0.013439035043120384,-0.152105450630188,0.005803219974040985
1701982215655423200,9.78042333984375,-0.055894169956445694,-0.15851953625679016,0.14584407210350037
1701982215672419000,9.797419189453125,-0.07880161702632904,-0.09117163717746735,0.21212296187877655
1701982215689410600,9.81441064453125,-0.09178250283002853,-0.06169738993048668,0.1267545372247696
1701982215706405000,9.831405029296874,-0.0884227454662323,-0.021991148591041565,-0.05925392732024193
1701982215723397600,9.848397705078124,-0.010995574295520782,0.058337632566690445,-0.18112154304981232
1701982215740394800,9.865394775390625,0.019547687843441963,0.0907134860754013,-0.18005253374576569
1701982215757383400,9.882383544921876,0.010079276748001575,0.10476338863372803,-0.08903361111879349
1701982215774379500,9.899379638671874,0.017867809161543846,0.1459967941045761,-0.030237829312682152
1701982215791371800,9.916371826171876,0.03191770985722542,0.2503020465373993,-0.10567969083786011
1701982215808357400,9.933357421875,0.08200865983963013,0.35384368896484375,-0.13301590085029602
1701982215825359000,9.950359130859376,0.01038470957428217,0.40133845806121826,0.2629774808883667
1701982215842351600,9.9673515625,-0.03176499158143997,-0.14782938361167908,0.21609358489513397
1701982215859335700,9.984335693359375,0.08567385375499725,-0.21059578657150269,0.058948494493961334
1701982215876342000,10.001342041015626,0.05360342562198639,-0.006872233934700489,-0.013591751456260681
1701982215893336000,10.018336181640626,0.018020525574684143,0.20357084274291992,0.10476338863372803
1701982215910325500,10.035325439453125,-0.02474004216492176,0.19043724238872528,0.17577648162841797
1701982215927320600,10.052320556640625,-0.02779436856508255,-0.004886921960860491,0.06154467165470123
1701982215944316400,10.06931640625,0.03375030308961868,-0.10277807712554932,0.006261368747800589
1701982215961295600,10.086295654296874,0.058795779943466187,-0.19792033731937408,0.07727445662021637
1701982215978302700,10.103302734375,0.040622539818286896,-0.31413745880126953,0.15974126756191254
1701982215995295000,10.120294921875,0.012980886735022068,-0.3625485301017761,0.19196440279483795
1701982216012290800,10.137290771484375,0.020616702735424042,-0.3211624026298523,0.18356500566005707
1701982216029282300,10.1542822265625,0.01725694350898266,-0.18051068484783173,0.11575896292924881
1701982216046270200,10.171270263671875,0.018020525574684143,-0.07910704612731934,0.007635815534740686
1701982216063266800,10.188266845703126,0.03481931984424591,-0.0757472887635231,-0.06612616032361984
1701982216080267800,10.205267822265625,0.044745877385139465,-0.1137736514210701,-0.08277224004268646
1701982216097256400,10.22225634765625,0.04382958263158798,-0.15882496535778046,-0.05604688450694084
1701982216114251300,10.239251220703125,0.04795292019844055,-0.19104810059070587,0.005650503560900688
1701982216131243800,10.256243896484374,0.035124752670526505,-0.1774563491344452,0.1241583600640297
1701982216148239400,10.2732392578125,0.001679879380390048,-0.12308934330940247,0.21609358489513397
1701982216165230800,10.29023095703125,-0.009926560334861279,-0.10522153973579407,0.22113321721553802
1701982216182225700,10.3072255859375,0.001527163083665073,-0.09682214260101318,0.1563815027475357
1701982216199218200,10.32421826171875,0.004734205547720194,-0.04688390716910362,0.06185010448098183
1701982216216203500,10.34120361328125,-0.003512475173920393,0.04001167416572571,-0.031001411378383636
1701982216233203200,10.358203125,-0.013744467869400978,0.11453723162412643,-0.04902193695306778
1701982216250202000,10.3752021484375,-0.04948008432984352,0.11942415684461594,-0.018478672951459885
1701982216267189800,10.392189697265625,-0.0012217304902151227,0.32268956303596497,-0.05467243865132332
1701982216284190200,10.409190185546874,0.05619960278272629,0.6085745096206665,-0.06704246252775192
1701982216301180000,10.426179931640625,0.13118331134319305,0.7689266204833984,-0.06200282275676727
1701982216318164000,10.4431640625,0.21303924918174744,0.6275113224983215,-0.06918048858642578
1701982216335166700,10.460166748046875,0.25045475363731384,0.40362921357154846,0.028557950630784035
1701982216352162300,10.477162353515626,0.1661553531885147,-0.07177666574716568,0.12247848510742188
1701982216369154000,10.494154052734375,0.10155634582042694,-0.43875396251678467,0.01710422709584236
1701982216386148600,10.511148681640625,0.098502017557621,-0.23396138846874237,-0.11178833991289139
1701982216403141000,10.52814111328125,-0.0006108652451075613,0.003054326167330146,-0.17852537333965302
1701982216420136700,10.54513671875,-0.12095131725072861,0.09666942805051804,-0.1921171247959137
1701982216437126000,10.5621259765625,-0.18219055235385895,0.02825251780450344,-0.24892759323120117
1701982216454107400,10.579107421875,-0.15103642642498016,-0.07422012835741043,-0.28878653049468994
1701982216471115500,10.596115478515625,-0.09498954564332962,-0.22250767052173615,-0.17348572611808777
1701982216488111000,10.613111083984375,-0.06734789162874222,-0.37919458746910095,0.12064588814973831
1701982216505102600,10.6301025390625,-0.03344487398862839,-0.0907134860754013,0.15393804013729095
1701982216522110700,10.64711083984375,0.050243668258190155,0.1362229436635971,-0.018936822190880775
1701982216539090000,10.66408984375,0.11194105446338654,0.2382374405860901,-0.10476338863372803
1701982216556085500,10.68108544921875,0.12339477986097336,0.27580565214157104,0.08170322328805923
1701982216573077000,10.698076904296874,0.04581489413976669,-0.017562376335263252,0.10384709388017654
1701982216590071600,10.715071533203124,0.035582900047302246,-0.1843285858631134,-0.03298672288656235
1701982216607064000,10.73206396484375,0.043218716979026794,-0.02015855349600315,-0.04046982154250145
1701982216624060000,10.749059814453124,-0.05955936014652252,0.09422596544027328,0.003054326167330146
1701982216641051400,10.766051513671876,-0.12217304855585098,0.10934487730264664,-0.036651913076639175
1701982216658043400,10.78304345703125,-0.09926560521125793,0.11239920556545258,-0.10812314599752426
1701982216675038500,10.80003857421875,-0.05742133408784866,0.11468994617462158,-0.13072516024112701
1701982216692026000,10.817026123046874,-0.017409659922122955,0.06185010448098183,-0.10644327104091644
1701982216709023000,10.83402294921875,0.00045814894838258624,-0.026114489883184433,-0.0403171069920063
1701982216726023000,10.85102294921875,-0.002138028386980295,-0.06612616032361984,0.03741549700498581
1701982216743012900,10.868012939453125,-0.001527163083665073,-0.08032877743244171,0.09437867999076843
1701982216760006000,10.885005859375,-0.007177666760981083,-0.06688974797725677,0.10797043144702911
1701982216777002800,10.902002685546876,-0.02015855349600315,-0.03084869496524334,0.08384125679731369
1701982216793994800,10.918994873046875,-0.012522737495601177,0.06261368840932846,0.036651913076639175
1701982216810987300,10.9359873046875,-0.005497787147760391,0.15042556822299957,-0.040622539818286896
1701982216827983000,10.952983154296875,-0.004734205547720194,0.16019940376281738,-0.13668109476566315
1701982216844974300,10.969974365234375,-0.0012217304902151227,0.13668109476566315,-0.1696678251028061
1701982216861966300,10.98696630859375,-0.0010690141934901476,0.04948008432984352,-0.07910704612731934
1701982216878961400,11.00396142578125,-0.016798794269561768,-0.06704246252775192,0.07757988572120667
1701982216895957200,11.020957275390625,-0.013591751456260681,-0.11056660860776901,0.19868391752243042
1701982216912941800,11.03794189453125,0.0010690141934901476,-0.1036943718791008,0.20555615425109863
1701982216929941000,11.05494091796875,0.012522737495601177,-0.051770828664302826,0.10613783448934555
1701982216946938400,11.0719384765625,-0.00809396430850029,0.03344487398862839,-0.04184427112340927
1701982216963931600,11.088931640625,-0.03848451003432274,0.05451972410082817,-0.15729780495166779
1701982216980923100,11.105923095703124,-0.05467243865132332,0.039706241339445114,-0.13148874044418335
1701982216997917700,11.122917724609374,-0.06994406878948212,0.03940080851316452,0.0012217304902151227
1701982217014910200,11.13991015625,-0.07147123664617538,0.023976460099220276,0.10308351367712021
1701982217031905800,11.15690576171875,-0.0607810914516449,-0.035582900047302246,0.13897185027599335
1701982217048897500,11.1738974609375,-0.04352414980530739,-0.08933904021978378,0.10552696883678436
1701982217065891300,11.190891357421876,-0.02932153269648552,-0.13148874044418335,-0.013439035043120384
1701982217082874600,11.20787451171875,-0.04932736977934837,-0.14813482761383057,-0.13148874044418335
1701982217099877400,11.22487744140625,-0.06123924255371094,-0.07070764899253845,-0.1420261710882187
1701982217116874500,11.24187451171875,-0.06062837690114975,-0.044287730008363724,-0.06948592513799667
1701982217133857300,11.258857177734376,-0.04856378585100174,-0.11560624837875366,0.06001751124858856
1701982217150859000,11.27585888671875,-0.014202617108821869,-0.12171489745378494,0.17776179313659668
1701982217167859000,11.29285888671875,0.038637228310108185,-0.13225232064723969,0.1992947906255722
1701982217184844500,11.309844482421875,0.05451972410082817,-0.09025534242391586,0.12568552792072296
1701982217201840600,11.326840576171875,0.016035212203860283,-0.07971791177988052,0.010995574295520782
1701982217218833400,11.34383349609375,-0.013897184282541275,-0.13057245314121246,-0.05314527451992035
1701982217235829000,11.3608291015625,-0.03787364438176155,-0.11957687139511108,-0.023976460099220276
1701982217252820500,11.377820556640625,-0.05910121276974678,-0.044287730008363724,0.055283304303884506
1701982217269815000,11.39481494140625,-0.05772676691412926,0.04260785132646561,0.10735956579446793
1701982217286807600,11.4118076171875,-0.0403171069920063,-0.018478672951459885,0.14767667651176453
1701982217303800800,11.42880078125,0.01466076634824276,-0.14905111491680145,0.20799961686134338
1701982217320797400,11.44579736328125,0.11499538272619247,0.09025534242391586,0.02626720629632473
1701982217337789400,11.46278955078125,0.15790866315364838,0.5132794976234436,-0.07742717117071152
1701982217354782000,11.479781982421875,0.10506882518529892,0.6162103414535522,-0.04795292019844055
1701982217371768600,11.4967685546875,0.098502017557621,0.39446622133255005,-0.021991148591041565
1701982217388769300,11.513769287109374,0.09712757170200348,0.12950342893600464,-0.03176499158143997
1701982217405763800,11.530763916015625,0.05192354694008827,-0.2194533348083496,-0.06979135423898697
1701982217422756400,11.54775634765625,0.0029016099870204926,-0.17027868330478668,-0.07299839705228806
1701982217439752200,11.564752197265625,-0.09392052888870239,-0.08643743395805359,-0.0731511116027832
1701982217456740400,11.581740234375,-0.128434419631958,-0.13744467496871948,-0.12965615093708038
1701982217473741800,11.598741943359375,-0.10293079167604446,-0.22571471333503723,-0.17699819803237915
1701982217490730800,11.615730712890626,-0.037110064178705215,-0.2513710558414459,-0.14294247329235077
1701982217507726300,11.632726318359374,0.002138028386980295,-0.164170041680336,-0.050854530185461044
1701982217524718000,11.649718017578126,0.004428773187100887,0.010690141469240189,0.07360926270484924
1701982217541704700,11.66670458984375,0.0025961773935705423,0.19257527589797974,0.14019356667995453
1701982217558697200,11.683697265625,-0.03191770985722542,0.16554448008537292,0.1368338167667389
1701982217575701500,11.700701416015624,-0.014049900695681572,-0.23380866646766663,-0.1443169116973877
1701982217592691700,11.717691650390625,-0.01160643994808197,-0.058948494493961334,-0.28267788887023926
1701982217609687000,11.73468701171875,-0.060322944074869156,0.3527746796607971,-0.22143864631652832
1701982217626679600,11.751679443359375,-0.060322944074869156,0.5227479338645935,-0.17287486791610718
1701982217643675100,11.768675048828126,-0.00366519158706069,0.523511528968811,-0.2070833146572113
1701982217660666600,11.78566650390625,0.10919216275215149,0.5623014569282532,-0.24465152621269226
1701982217677661200,11.8026611328125,0.20005837082862854,0.6887505650520325,-0.19013181328773499
1701982217694653700,11.81965380859375,0.20204368233680725,0.7070765495300293,-0.09025534242391586
1701982217711649500,11.8366494140625,0.1771509200334549,0.49067750573158264,0.05864306539297104
1701982217728644000,11.85364404296875,0.1414152979850769,0.3744603991508484,0.23716843128204346
1701982217745634800,11.870634765625,0.001832595793530345,0.1186605766415596,0.30054569244384766
1701982217762626000,11.8876259765625,-0.00427605677396059,-0.38927388191223145,0.18035796284675598
1701982217779624000,11.9046240234375,-0.0039706239476799965,-0.4369213581085205,0.008704829961061478
1701982217796615400,11.921615478515625,-0.07299839705228806,0.05971207842230797,-0.1108720451593399
1701982217813593300,11.93859326171875,-0.19868391752243042,0.2632829248905182,-0.19074267148971558
1701982217830602500,11.9556025390625,-0.2906191349029541,-0.47540587186813354,-0.021532999351620674
1701982217847598300,11.972598388671875,-0.17623461782932281,-0.19089539349079132,0.09651670604944229
1701982217864589600,11.989589599609374,-0.0757472887635231,-0.05772676691412926,0.07941248267889023
1701982217881584400,12.00658447265625,-0.018936822190880775,0.014508049935102463,0.04077525436878204
1701982217898577000,12.023576904296876,0.052839845418930054,0.17623461782932281,0.036041051149368286
1701982217915572200,12.040572265625,0.13087788224220276,0.10033461451530457,0.0734565481543541
1701982217932564200,12.057564208984376,0.14446963369846344,0.1111774742603302,0.3390302062034607
1701982217949558800,12.074558837890624,0.06398813426494598,-0.2561052441596985,0.2981022298336029
1701982217966551300,12.09155126953125,0.0633772686123848,-0.17516560852527618,0.07467827945947647
1701982217983547000,12.108546875,0.11301007121801376,0.29168814420700073,0.03756821155548096
1701982218000538600,12.12553857421875,0.07987063378095627,0.4834998548030853,0.14828753471374512
1701982218017533000,12.142532958984376,0.06200282275676727,0.3747658133506775,0.16630806028842926
1701982218034525400,12.159525390625,0.06872233748435974,0.39553526043891907,0.11621711403131485
1701982218051521300,12.176521240234376,0.06459899991750717,0.3828597962856293,0.09636399149894714
1701982218068513000,12.193512939453125,0.058795779943466187,0.2611449062824249,0.12996158003807068
1701982218085507300,12.21050732421875,0.05360342562198639,0.11010845750570297,0.2246456891298294
1701982218102499800,12.227499755859375,0.06643159687519073,0.02382374368607998,0.3517056703567505
1701982218119495700,12.24449560546875,0.020005837082862854,-0.37110063433647156,0.3407101035118103
1701982218136484400,12.261484375,-0.03191770985722542,-0.7136433124542236,0.08384125679731369
1701982218153484500,12.278484619140626,-0.019394971430301666,-0.4358523488044739,-0.11148291081190109
1701982218170474000,12.295473876953125,-0.10766500234603882,-0.18539759516716003,-0.1768454909324646
1701982218187470300,12.31247021484375,-0.20265454053878784,-0.2444988191127777,-0.27382034063339233
1701982218204444000,12.32944384765625,-0.2217440903186798,-0.2893974184989929,-0.34208452701568604
1701982218221454600,12.34645458984375,-0.1495092660188675,-0.3459024429321289,-0.29504790902137756
1701982218238450200,12.3634501953125,-0.07177666574716568,-0.41691553592681885,-0.1615738570690155
1701982218255444500,12.380444580078125,-0.04444044828414917,-0.3425426781177521,-0.09147707372903824
1701982218272433700,12.39743359375,0.008246680721640587,-0.11255192011594772,-0.07849618047475815
1701982218289432800,12.414432861328125,0.08048149943351746,0.15057829022407532,0.09896016865968704
1701982218306412500,12.43141259765625,0.01863138936460018,-0.051770828664302826,0.11010845750570297
1701982218323418600,12.448418701171875,-0.010690141469240189,-0.1612684279680252,-0.10934487730264664
1701982218340410400,12.465410400390626,0.018936822190880775,0.023365596309304237,-0.22632557153701782
1701982218357405000,12.482405029296874,-0.037110064178705215,0.166460782289505,-0.2015855312347412
1701982218374397400,12.4993974609375,-0.14294247329235077,0.1466076523065567,-0.13209961354732513
1701982218391390500,12.516390380859375,-0.1771509200334549,-0.41981714963912964,-0.03833179548382759
1701982218408387300,12.53338720703125,-0.10766500234603882,-0.15974126756191254,-0.019089538604021072
1701982218425379000,12.550379150390626,-0.06918048858642578,0.09651670604944229,-0.1316414624452591
1701982218442372900,12.567372802734376,0.010079276748001575,0.32070425152778625,-0.2102903574705124
1701982218459350000,12.58435009765625,0.08307767659425735,0.2220495194196701,-0.13072516024112701
1701982218476359200,12.601359130859375,0.11438451707363129,0.05192354694008827,0.02076941914856434
1701982218493353700,12.618353759765625,0.11331550031900406,-0.05742133408784866,0.1007927656173706
1701982218510346200,12.63534619140625,0.07864890247583389,-0.037110064178705215,0.10720685124397278
1701982218527341800,12.652341796875,0.039248090237379074,0.05146539583802223,0.07971791177988052
1701982218544333300,12.669333251953125,-0.01542434748262167,0.08888089656829834,0.05161811411380768
1701982218561327900,12.686327880859375,-0.05451972410082817,-0.289702832698822,0.11301007121801376
1701982218578320600,12.703320556640625,-0.07696902006864548,-0.4648684561252594,0.3530801236629486
1701982218595316200,12.720316162109375,-0.08506298810243607,-0.14095716178417206,0.26343563199043274
1701982218612307700,12.7373076171875,-0.07498370856046677,0.1469130963087082,0.0006108652451075613
1701982218629316000,12.754316162109374,-0.04398229718208313,0.2932153046131134,-0.17379115521907806
1701982218646291200,12.771291259765626,-0.007941247895359993,0.1137736514210701,-0.1837177276611328
1701982218663294500,12.78829443359375,-0.0039706239476799965,-0.14905111491680145,-0.09453139454126358
1701982218680282000,12.8052822265625,-0.018020525574684143,-0.20555615425109863,0.014813481830060482
1701982218697264000,12.82226416015625,-0.02275473065674305,-0.15592335164546967,0.07101308554410934
1701982218714271200,12.839271240234375,-0.030085112899541855,-0.15393804013729095,0.058948494493961334
1701982218731264800,12.8562646484375,-0.03726277872920036,-0.17562375962734222,0.021532999351620674
1701982218748256500,12.873256591796874,-0.0503963828086853,-0.17989981174468994,-0.042760565876960754
1701982218765251000,12.8902509765625,-0.0682641938328743,-0.16142113506793976,-0.09056077152490616
1701982218782243600,12.90724365234375,-0.07422012835741043,-0.37048977613449097,0.06490442901849747
1701982218799239200,12.9242392578125,-0.051312681287527084,-0.08567385375499725,0.1420261710882187
1701982218816231000,12.94123095703125,-0.027030786499381065,0.0861319974064827,0.03680463135242462
1701982218833223000,12.958222900390625,0.017867809161543846,0.18799377977848053,-0.06123924255371094
1701982218850220500,12.975220458984374,0.035124752670526505,0.14263702929019928,-0.10537425428628922
1701982218867213600,12.992213623046876,0.06475171446800232,-0.013744467869400978,-0.0757472887635231
1701982218884205000,13.009205078125,0.07116580009460449,-0.10094548016786575,0.021380282938480377
1701982218901199600,13.02619970703125,0.018325956538319588,-0.17638733983039856,0.32681289315223694
1701982218918192600,13.043192626953125,-0.014966198243200779,-0.37598755955696106,0.27000242471694946
1701982218935188000,13.06018798828125,0.03420845419168472,-0.1443169116973877,0.12828169763088226
1701982218952179700,13.0771796875,-0.0032070425804704428,0.07452555745840073,-0.007941247895359993
1701982218969174300,13.09417431640625,-0.03145955875515938,0.24678955972194672,-0.03955352306365967
1701982218986166800,13.111166748046875,-0.07376197725534439,0.24526239931583405,-0.06230825558304787
1701982219003162400,13.128162353515625,-0.058184914290905,0.19364428520202637,-0.13545936346054077
1701982219020153900,13.14515380859375,-0.02672535367310047,0.17348572611808777,-0.19104810059070587
1701982219037145900,13.162145751953124,0.015577063895761967,0.16279558837413788,-0.17776179313659668
1701982219054143700,13.179143798828125,0.0682641938328743,0.17959438264369965,-0.10995574295520782
1701982219071136800,13.19613671875,0.08246681094169617,0.19043724238872528,-0.04138612002134323
1701982219088124700,13.213124755859376,0.051312681287527084,0.15622878074645996,0.019853120669722557
1701982219105126000,13.2301259765625,0.031612277030944824,0.10644327104091644,0.08720101416110992
1701982219122112500,13.247112548828126,0.00733038317412138,0.024892758578062057,0.12186761945486069
1701982219139111200,13.264111083984375,-0.02367102913558483,-0.03405573591589928,0.11453723162412643
1701982219156102700,13.2811025390625,-0.03191770985722542,0.04688390716910362,0.07620543986558914
1701982219173097200,13.29809716796875,-0.011301007121801376,0.10323622822761536,-0.018020525574684143
1701982219190089700,13.31508984375,0.02779436856508255,0.1569923609495163,-0.06841690838336945
1701982219207085600,13.33208544921875,0.04703662544488907,0.22510384023189545,-0.03649919852614403
1701982219224076800,13.349076904296876,0.020311269909143448,0.20906862616539001,0.030085112899541855
1701982219241063400,13.3660634765625,-0.03588833287358284,0.028405234217643738,0.06429356336593628
1701982219258060800,13.383060791015625,-0.017409659922122955,-0.09224065393209457,0.09056077152490616
1701982219275060000,13.40006005859375,-0.02367102913558483,-0.17088955640792847,0.10216721147298813
1701982219292051500,13.417051513671876,-0.04581489413976669,-0.21074850857257843,0.07437284290790558
1701982219309038600,13.43403857421875,-0.02626720629632473,-0.14676037430763245,0.010690141469240189
1701982219326038500,13.45103857421875,0.009621127508580685,-0.04932736977934837,-0.0429132841527462
1701982219343021600,13.468021484375,0.03390302136540413,-0.033597588539123535,-0.03894266113638878
1701982219360015400,13.485015380859375,0.0328340083360672,-0.032528575509786606,-0.01038470957428217
1701982219377007400,13.50200732421875,0.025961773470044136,0.11209376901388168,0.1745547503232956
1701982219394013000,13.519012939453125,-0.01160643994808197,-0.1385136991739273,0.10644327104091644
1701982219411008500,13.536008544921875,0.02871066704392433,-0.13271047174930573,-0.07422012835741043
1701982219428000300,13.553000244140625,0.021532999351620674,0.08384125679731369,-0.18570303916931152
1701982219444994800,13.569994873046875,-0.028557950630784035,0.26801711320877075,-0.15164729952812195
1701982219461987300,13.5869873046875,-0.08139779418706894,0.1270599663257599,-0.13805554807186127
1701982219478987800,13.60398779296875,-0.04917465150356293,0.046273041516542435,-0.16111570596694946
1701982219495974400,13.620974365234375,0.03390302136540413,0.166460782289505,-0.16951510310173035
1701982219512969000,13.637968994140625,0.11392636597156525,0.21807889640331268,-0.16691893339157104
1701982219529961700,13.654961669921875,0.13469578325748444,0.18509216606616974,-0.0910189226269722
1701982219546957300,13.671957275390625,0.08552113175392151,0.08888089656829834,0.08750644326210022
1701982219563948800,13.68894873046875,0.05421429127454758,-0.014813481830060482,0.2768746614456177
1701982219580941000,13.705941162109376,0.032528575509786606,-0.02672535367310047,0.3669773042201996
1701982219597938400,13.7229384765625,0.0029016099870204926,-0.3263547718524933,0.25213462114334106
1701982219614931700,13.739931640625,0.008399397134780884,-0.39904773235321045,0.044745877385139465
1701982219631923200,13.756923095703126,-0.012828170321881771,-0.09193521738052368,-0.11453723162412643
1701982219648918000,13.77391796875,-0.10567969083786011,0.03894266113638878,-0.21594086289405823
1701982219665910300,13.79091015625,-0.14645494520664215,-0.13255776464939117,-0.25473082065582275
1701982219682906000,13.807906005859374,-0.11392636597156525,-0.2626720666885376,-0.13576480746269226
1701982219699894500,13.82489453125,-0.07727445662021637,-0.39416080713272095,0.08536841720342636
1701982219716895500,13.8418955078125,-0.0455094613134861,-0.46868637204170227,0.23380866646766663
1701982219733884700,13.858884765625,0.016493361443281174,-0.3908010423183441,0.2597704529762268
1701982219750880500,13.875880615234376,0.05375614017248154,-0.22632557153701782,0.1693623960018158
1701982219767872000,13.8928720703125,0.06322455406188965,-0.04337143152952194,0.00809396430850029
1701982219784866600,13.909866455078125,0.05451972410082817,0.14767667651176453,0.06001751124858856
1701982219801859300,13.926859375,-0.0039706239476799965,-0.07101308554410934,0.032070424407720566
1701982219818855000,13.94385498046875,0.06001751124858856,-0.2015855312347412,-0.03741549700498581
1701982219835846400,13.960846435546875,0.06230825558304787,-0.21624629199504852,-0.1414152979850769
1701982219852841200,13.97784130859375,0.051770828664302826,-0.005650503560900688,-0.19364428520202637
1701982219869829400,13.994829345703126,-0.05421429127454758,0.22846360504627228,-0.14065171778202057
1701982219886829300,14.011829345703125,-0.10995574295520782,0.1391245573759079,-0.1508837193250656
1701982219903820500,14.028820556640625,-0.08292495459318161,-0.08002334833145142,-0.1586722433567047
1701982219920815400,14.0458154296875,-0.08445212244987488,-0.2255619913339615,-0.06658431142568588
1701982219937805600,14.0628056640625,-0.05390885844826698,-0.07208210229873657,-0.08979719132184982
1701982219954795800,14.079795654296875,-0.030695978552103043,0.1869247704744339,-0.07483099400997162
1701982219971795000,14.096794921875,-0.055283304303884506,0.20402899384498596,-0.01160643994808197
1701982219988789800,14.113789794921875,-0.02474004216492176,0.05207626149058342,-0.01618792861700058
1701982220005782300,14.1307822265625,0.022907447069883347,0,-0.08964447677135468
1701982220022778000,14.147778076171875,0.07681630551815033,0.1635591685771942,-0.11484266817569733
1701982220039767800,14.164767822265626,0.10797043144702911,0.22571471333503723,-0.06673702597618103
1701982220056765700,14.181765625,0.10384709388017654,0.2713768780231476,0.1443169116973877
1701982220073756700,14.198756591796876,0.01710422709584236,0.08048149943351746,0.16508632898330688
1701982220090752500,14.21575244140625,0.016951510682702065,0.08139779418706894,0.01924225501716137
1701982220107743700,14.23274365234375,0.015118914656341076,0.22602014243602753,-0.11270463466644287
1701982220124728000,14.24972802734375,-0.046731192618608475,0.35262197256088257,-0.11988230794668198
1701982220141731300,14.2667314453125,-0.11499538272619247,0.3448334336280823,-0.05253441259264946
1701982220158726700,14.2837265625,-0.12538009881973267,0.1866193264722824,-0.06658431142568588
1701982220175708000,14.3007080078125,-0.10613783448934555,-0.08231408894062042,-0.03039054572582245
1701982220192713000,14.317712890625,-0.10323622822761536,-0.21212296187877655,0.16432274878025055
1701982220209705500,14.33470556640625,-0.0858265683054924,0.06368270516395569,0.13988813757896423
1701982220226701300,14.351701416015626,-0.0403171069920063,0.2041817009449005,0.05849034711718559
1701982220243692800,14.36869287109375,-0.008857546374201775,0.14446963369846344,0.03756821155548096
1701982220260687400,14.385687255859375,0.05650503560900688,-0.019547687843441963,0.007024950347840786
1701982220277679900,14.402679931640625,0.1212567538022995,-0.11652254313230515,0.013133603148162365
1701982220294675500,14.419675537109375,0.10980302840471268,-0.11591167747974396,0.06811147183179855
1701982220311664400,14.436664306640624,0.05849034711718559,-0.09407325088977814,0.337503045797348
1701982220328664300,14.453664306640626,-0.003512475173920393,-0.3094032406806946,0.16523905098438263
1701982220345646000,14.47064599609375,0.044135015457868576,-0.08552113175392151,-0.04581489413976669
1701982220362649600,14.487649658203125,0.01710422709584236,0.08933904021978378,-0.12950342893600464
1701982220379641900,14.504641845703125,-0.03481931984424591,0.17379115521907806,-0.036041051149368286
1701982220396636200,14.52163623046875,-0.07116580009460449,0.03680463135242462,-0.0010690141934901476
1701982220413628700,14.538628662109375,-0.025656340643763542,-0.017409659922122955,-0.03451388701796532
1701982220430624300,14.555624267578125,0.018478672951459885,-0.010079276748001575,-0.060322944074869156
1701982220447615700,14.57261572265625,0.034666601568460464,0.02168571576476097,-0.0455094613134861
1701982220464610600,14.589610595703125,0.02122756652534008,0.04963280260562897,-0.01725694350898266
1701982220481603300,14.606603271484374,-0.0009162978967651725,0.10583240538835526,0.03741549700498581
1701982220498598700,14.6235986328125,-0.00931569468230009,0.09941831976175308,0.09666942805051804
1701982220515590100,14.640590087890626,0.0064140851609408855,0.0074830991216003895,0.11804971098899841
1701982220532585000,14.6575849609375,0.053297992795705795,-0.009621127508580685,0.12095131725072861
1701982220549586200,14.674586181640626,0.07666359096765518,0.03634648025035858,0.11820242553949356
1701982220566573000,14.691572998046874,0.06994406878948212,0.08857546001672745,0.1186605766415596
1701982220583564500,14.708564453125,0.05604688450694084,0.10903944820165634,0.13255776464939117
1701982220600548900,14.725548828125,0.03756821155548096,0.05925392732024193,0.10781771689653397
1701982220617549300,14.74254931640625,0.04337143152952194,0.04505131021142006,0.06918048858642578
1701982220634550000,14.759550048828125,0.05406157299876213,0.098502017557621,0.04795292019844055
1701982220651540000,14.7765400390625,0.02535090781748295,0.13576480746269226,0.030237829312682152
1701982220668533800,14.79353369140625,0.0007635815418325365,0.18448130786418915,0.022602014243602753
1701982220685526000,14.810526123046875,0.003512475173920393,0.13927727937698364,0.020616702735424042
1701982220702521900,14.82752197265625,0.012217304669320583,0.05604688450694084,0.015882495790719986
1701982220719502800,14.8445029296875,0.029016099870204926,0.01725694350898266,0.01572977937757969
1701982220736508000,14.8615078125,0.02428189292550087,-0.016340645030140877,-0.007177666760981083
1701982220753497900,14.878497802734374,0.018020525574684143,-0.023060163483023643,-0.01878410577774048
1701982220770488300,14.89548828125,0.01114829070866108,-0.04306599870324135,-0.010690141469240189
1701982220787487700,14.91248779296875,-0.01725694350898266,-0.07712173461914062,-0.0012217304902151227
1701982220804482300,14.929482421875,-0.029626963660120964,-0.09147707372903824,0.025503624230623245
1701982220821470500,14.946470458984376,-0.028405234217643738,-0.15531249344348907,0.06444628536701202
1701982220838468000,14.963468017578125,-0.006261368747800589,-0.22861631214618683,0.10842858254909515
1701982220855465000,14.98046484375,0.012522737495601177,-0.31871894001960754,0.11713340878486633
1701982220872456700,14.997456787109375,0.013897184282541275,-0.33796119689941406,0.05253441259264946
1701982220889449200,15.01444921875,0.013133603148162365,-0.24495697021484375,0.007177666760981083
1701982220906445000,15.031445068359375,-0.012675453908741474,-0.07299839705228806,0.037110064178705215
1701982220923436500,15.0484365234375,-0.019089538604021072,0.04932736977934837,0.08445212244987488
1701982220940431000,15.06543115234375,0.007024950347840786,0.11194105446338654,0.10583240538835526
1701982220957423600,15.082423583984376,0.050243668258190155,0.12538009881973267,0.08689557760953903
1701982220974419700,15.099419677734375,0.12553280591964722,0.17104226350784302,0.03130684420466423
1701982220991410700,15.11641064453125,0.1837177276611328,0.1768454909324646,-0.01771509274840355
1701982221008405500,15.133405517578124,0.14217889308929443,0.1670716404914856,-0.09911288321018219
1701982221025396700,15.150396728515625,0.044135015457868576,0.35124751925468445,-0.13744467496871948
1701982221042384600,15.167384521484376,-0.02871066704392433,0.4830417037010193,-0.08414668589830399
1701982221059385300,15.18438525390625,-0.027183502912521362,0.3549126982688904,0.028557950630784035
1701982221076377300,15.20137744140625,-0.012064588256180286,0.19822576642036438,0.1241583600640297
1701982221093375200,15.218375244140624,0.033139441162347794,0.15622878074645996,0.11056660860776901
1701982221110368300,15.2353681640625,0.09422596544027328,0.2701551616191864,0.0835358202457428
1701982221127359700,15.25235986328125,0.08933904021978378,0.18799377977848053,0.07070764899253845
1701982221144354300,15.269354248046875,0.08964447677135468,0.05009094998240471,0.07177666574716568
1701982221161347000,15.28634716796875,0.038179077208042145,-0.16920967400074005,0.005803219974040985
1701982221178342700,15.3033427734375,0.0074830991216003895,-0.23945917189121246,-0.014813481830060482
1701982221195334100,15.320334228515625,-0.07238753139972687,-0.17989981174468994,0.07284568250179291
1701982221212328700,15.33732861328125,-0.18509216606616974,-0.29138273000717163,0.08521570265293121
1701982221229323300,15.3543232421875,-0.22449298202991486,-0.5157229900360107,0.05161811411380768
1701982221246315300,15.371315185546875,-0.21960605680942535,-0.630871057510376,0.18860463798046112
1701982221263308500,15.38830859375,-0.20631973445415497,-0.24388794600963593,0.09926560521125793
1701982221280303000,15.40530322265625,-0.1739438772201538,-0.1511891484260559,-0.040164388716220856
1701982221297295600,15.422295654296875,-0.13041973114013672,-0.2047925740480423,-0.009010262787342072
1701982221314291500,15.43929150390625,-0.10476338863372803,-0.42730024456977844,0.08521570265293121
1701982221331283200,15.456283203125,-0.11789698898792267,-0.6229298114776611,0.12767083942890167
1701982221348277500,15.473277587890625,-0.12538009881973267,-0.6688974499702454,0.08475755155086517
1701982221365267500,15.490267333984375,-0.1189660057425499,-0.6155994534492493,-0.014355333521962166
1701982221382264000,15.50726416015625,-0.10766500234603882,-0.41859540343284607,-0.09376781433820724
1701982221399259100,15.524259033203125,-0.07880161702632904,-0.17088955640792847,-0.1644754707813263
1701982221416252000,15.541251953125,-0.049785517156124115,-0.0010690141934901476,-0.2298380434513092
1701982221433242000,15.5582421875,-0.05650503560900688,-0.018020525574684143,-0.21868975460529327
1701982221450242600,15.57524267578125,-0.09682214260101318,-0.0529925599694252,-0.0731511116027832
1701982221467231700,15.592231689453126,-0.0507018156349659,0.2600758671760559,-0.2226603776216507
1701982221484226300,15.609226318359376,0.0012217304902151227,0.4259257912635803,-0.37537670135498047
1701982221501218800,15.62621875,-0.008857546374201775,0.45265114307403564,-0.3700316250324249
1701982221518214700,15.643214599609376,0.017409659922122955,0.3494149148464203,-0.29184088110923767
1701982221535206100,15.6602060546875,0.061391957104206085,0.22159136831760406,-0.2096794992685318
1701982221552200700,15.67720068359375,0.08261952549219131,0.11331550031900406,-0.0659734457731247
1701982221569183000,15.694182861328125,0.07223481684923172,0.02687807008624077,0.11514809727668762
1701982221586188800,15.711188720703126,0.04444044828414917,-0.010537425056099892,0.22800545394420624
1701982221603180500,15.7281806640625,-0.004886921960860491,-0.252287358045578,0.40775254368782043
1701982221620172500,15.745172607421875,0.014966198243200779,-0.2200642079114914,0.3292563557624817
1701982221637157400,15.762157470703125,0.022449297830462456,0.05451972410082817,0.020463986322283745
1701982221654164000,15.7791640625,0.00427605677396059,0.2623666226863861,-0.17287486791610718
1701982221671157000,15.796156982421875,0.047189339995384216,0.2509129047393799,-0.1618792861700058
1701982221688149500,15.8131494140625,0.08277224004268646,0.12400564551353455,0.16019940376281738
1701982221705142300,15.830142333984375,0.04948008432984352,-0.3225368559360504,0.252287358045578
1701982221722137600,15.8471376953125,0.07941248267889023,-0.46547931432724,0.17012597620487213
1701982221739125800,15.864125732421876,0.06673702597618103,-0.30283644795417786,0.05604688450694084
1701982221756124000,15.8811240234375,0.04886921867728233,-0.09453139454126358,0.04398229718208313
1701982221773116700,15.89811669921875,-0.028099801391363144,0.008704829961061478,0.07712173461914062
1701982221790112300,15.9151123046875,-0.05054909735918045,-0.01191187184303999,-0.014508049935102463
1701982221807103700,15.932103759765624,-0.016340645030140877,0.01924225501716137,-0.15515977144241333
1701982221824096000,15.949095947265626,0.014813481830060482,0.06750060617923737,-0.22876903414726257
1701982221841099000,15.96609912109375,0.07437284290790558,0.13988813757896423,-0.12140946835279465
1701982221858100500,15.9831005859375,0.15103642642498016,0.37522396445274353,-0.06475171446800232
1701982221875078100,16.000078125,0.197004035115242,0.5517640113830566,-0.014508049935102463
1701982221892073000,16.017072998046874,0.23365595936775208,0.5117523670196533,-0.005650503560900688
1701982221909065200,16.034065185546876,0.23151792585849762,0.3459024429321289,0.021838432177901268
1701982221926061300,16.051061279296874,0.12980885803699493,-0.10720685124397278,-0.06520986557006836
1701982221943052300,16.06805224609375,0.08307767659425735,-0.07757988572120667,-0.10949759185314178
1701982221960047000,16.085047119140626,0.031001411378383636,0.2174680233001709,-0.03145955875515938
1701982221977039600,16.10203955078125,-0.09605856239795685,0.26908615231513977,0.029016099870204926
1701982221994033000,16.119032958984373,-0.13958270847797394,0.285121351480484,-0.025503624230623245
1701982222011027000,16.13602685546875,-0.044745877385139465,0.28099802136421204,-0.16829337179660797
1701982222028024300,16.1530244140625,0.046731192618608475,0.16310101747512817,-0.2866485118865967
1701982222045011700,16.17001171875,0.08155050873756409,0.05849034711718559,-0.2454151064157486
1701982222062005000,16.1870048828125,0.05345070734620094,-0.11209376901388168,-0.07788532227277756
1701982222079001300,16.20400146484375,-0.031001411378383636,-0.21303924918174744,0.13469578325748444
1701982222095996000,16.220995849609373,-0.09743300825357437,-0.5335907936096191,0.156686931848526
1701982222112978000,16.23797802734375,-0.1010981947183609,-0.41630467772483826,0.10766500234603882
1701982222129984300,16.254984375,-0.15577064454555511,-0.24572055041790009,0.08231408894062042
1701982222146976000,16.27197607421875,-0.23747386038303375,-0.23380866646766663,0.04535674303770065
1701982222163962000,16.288962158203127,-0.23457226157188416,-0.1485929638147354,-0.058948494493961334
1701982222180962800,16.305962890625,-0.13271047174930573,-0.15164729952812195,-0.2070833146572113
1701982222197958700,16.322958740234377,-0.016798794269561768,-0.14752395451068878,-0.289702832698822
1701982222214928100,16.33992822265625,0.07177666574716568,-0.01924225501716137,-0.2054034322500229
1701982222231944700,16.35694482421875,0.09972374886274338,0.06276640295982361,-0.024129176512360573
1701982222248935000,16.373934814453126,0.06948592513799667,0.20097467303276062,0.28619036078453064
1701982222265935400,16.390935302734373,0.048258353024721146,-0.15851953625679016,0.31444287300109863
1701982222282920400,16.40792041015625,0.09926560521125793,-0.3663664162158966,0.12370020896196365
1701982222299916800,16.424916748046876,0.058795779943466187,-0.3016147017478943,-0.09346238523721695
1701982222316914200,16.4419140625,-0.02687807008624077,0.014355333521962166,-0.2102903574705124
1701982222333905000,16.45890478515625,-0.16249015927314758,0.1875356286764145,-0.03726277872920036
1701982222350899000,16.47589892578125,-0.21807889640331268,-0.06001751124858856,-0.04703662544488907
1701982222367896300,16.492896240234376,-0.16569720208644867,0.04153883829712868,-0.17501288652420044
1701982222384886000,16.509885986328126,-0.13805554807186127,0.16951510310173035,-0.11804971098899841
1701982222401877800,16.526877685546875,-0.08216137439012527,0.14569136500358582,0.05345070734620094
1701982222418875100,16.543875244140626,0.03176499158143997,-0.027030786499381065,0.13820825517177582
1701982222435870700,16.56087060546875,0.09453139454126358,-0.13530665636062622,0.12293662875890732
1701982222452860400,16.5778603515625,0.10644327104091644,-0.14905111491680145,0.08628471940755844
1701982222469856300,16.594856201171876,0.06811147183179855,-0.01664607785642147,0.2454151064157486
1701982222486847700,16.61184765625,-0.022449297830462456,-0.3142901659011841,-0.019547687843441963
1701982222503842300,16.62884228515625,0.02229658141732216,-0.20845776796340942,-0.2571742534637451
1701982222520834800,16.645834716796877,-0.04642575979232788,0.13988813757896423,-0.27000242471694946
1701982222537820400,16.6628203125,-0.1492038369178772,0.31673362851142883,-0.18829920887947083
1701982222554822400,16.679822509765625,-0.1817324161529541,0.23411411046981812,-0.18509216606616974
1701982222571816700,16.696816650390623,-0.12461651116609573,0.21059578657150269,-0.15974126756191254
1701982222588809500,16.7138095703125,-0.02015855349600315,0.30741792917251587,-0.34605515003204346
1701982222605805000,16.73080517578125,0.14752395451068878,0.521984338760376,-0.4772384762763977
1701982222622796800,16.747796875,0.23854288458824158,0.5467243790626526,-0.3787364661693573
1701982222639788800,16.764788818359374,0.2713768780231476,0.2652682363986969,-0.14340060949325562
1701982222656786400,16.781786376953125,0.2741257846355438,0.01924225501716137,0.04077525436878204
1701982222673779500,16.798779541015627,0.2070833146572113,-0.02321287989616394,0.1281289905309677
1701982222690771000,16.81577099609375,0.0705549344420433,0.06291911751031876,0.2025018334388733
1701982222707755000,16.832755126953124,0.019089538604021072,-0.19975294172763824,0.10995574295520782
1701982222724758300,16.84975830078125,0.07742717117071152,-0.09040805697441101,-0.08674286305904388
1701982222741754000,16.866754150390626,-0.039706241339445114,0.3701843321323395,-0.16890424489974976
1701982222758734800,16.88373486328125,-0.18967366218566895,0.38667771220207214,-0.14523321390151978
1701982222775740200,16.900740234375,-0.19089539349079132,0.09682214260101318,-0.06963863968849182
1701982222792732700,16.917732666015624,-0.1313360333442688,-0.16829337179660797,0.05543602257966995
1701982222809728500,16.934728515625,-0.09941831976175308,-0.28680121898651123,0.2002110779285431
1701982222826720000,16.951719970703124,-0.06627888232469559,-0.20631973445415497,0.2866485118865967
1701982222843714600,16.968714599609374,-0.005039638374000788,0.024434609338641167,0.2941316068172455
1701982222860707000,16.98570703125,0.026419922709465027,0.2528982162475586,0.49098294973373413
1701982222877703000,17.002702880859374,-0.0025961773935705423,-0.038637228310108185,0.22571471333503723
1701982222894696000,17.019696044921876,0.08277224004268646,0.1189660057425499,-0.056810468435287476
1701982222911687200,17.036687255859373,0.16325373947620392,0.4196644127368927,-0.18738290667533875
1701982222928681500,17.053681396484375,0.14523321390151978,0.5152648091316223,-0.0884227454662323
1701982222945675800,17.07067578125,0.16050484776496887,0.3966042697429657,0.12324206531047821
1701982222962670300,17.08767041015625,0.18448130786418915,0.21930062770843506,0.26481008529663086
1701982222979663400,17.104663330078125,0.18188512325286865,0.08002334833145142,0.31154128909111023
1701982222996655900,17.12165576171875,0.16783522069454193,-0.012828170321881771,0.3553708493709564
1701982223013651700,17.138651611328125,0.14004085958003998,-0.1036943718791008,0.35292738676071167
1701982223030643000,17.155642822265627,0.07269296050071716,-0.12110403180122375,0.23121249675750732
1701982223047637800,17.1726376953125,0.05054909735918045,-0.17119498550891876,0.12308934330940247
1701982223064630300,17.18963037109375,0.02168571576476097,-0.3191770911216736,-0.050243668258190155
1701982223081625900,17.2066259765625,0.001832595793530345,-0.20326541364192963,-0.2373211532831192
1701982223098617600,17.22361767578125,-0.044135015457868576,-0.0682641938328743,-0.24724771082401276
1701982223115612000,17.24061181640625,-0.14676037430763245,-0.12400564551353455,-0.21502456068992615
1701982223132604700,17.257604736328126,-0.20570887625217438,-0.28680121898651123,-0.22449298202991486
1701982223149599700,17.274599853515625,-0.19303341209888458,-0.711963415145874,-0.06169738993048668
1701982223166589400,17.29158935546875,-0.15882496535778046,-0.5291619896888733,0.06719517707824707
1701982223183589000,17.308589111328125,-0.16294831037521362,-0.43707409501075745,0.07742717117071152
1701982223200579300,17.325579345703126,-0.12217304855585098,-0.45692721009254456,0.07971791177988052
1701982223217575000,17.342574951171876,-0.052839845418930054,-0.4619668424129486,0.1495092660188675
1701982223234566400,17.35956640625,-0.04001167416572571,-0.4992296099662781,0.14905111491680145
1701982223251558100,17.37655810546875,-0.06948592513799667,-0.5258022546768188,0.06551529467105865
1701982223268553500,17.393553466796874,-0.096211276948452,-0.3776674270629883,-0.05910121276974678
1701982223285549300,17.41054931640625,-0.09834930300712585,-0.10522153973579407,-0.1647808998823166
1701982223302533000,17.427533203125,-0.07452555745840073,0.040622539818286896,-0.260992169380188
1701982223319535400,17.444535400390624,-0.061391957104206085,-0.0006108652451075613,-0.24572055041790009
1701982223336525300,17.461525390625,-0.05925392732024193,0.08124507963657379,-0.12461651116609573
1701982223353515800,17.478515869140626,0.0064140851609408855,0.25076019763946533,-0.1592831164598465
1701982223370515200,17.49551513671875,0.047189339995384216,0.3149010241031647,-0.12217304855585098
1701982223387509800,17.512509765625,0.07513642311096191,0.1921171247959137,-0.015118914656341076
1701982223404494000,17.529494140625,0.07635815441608429,0.03329215571284294,0.28909197449684143
1701982223421498000,17.546498046875,0.0835358202457428,-0.3176499307155609,0.1443169116973877
1701982223438489600,17.563489501953125,0.09117163717746735,-0.1085812970995903,-0.03985895588994026
1701982223455484200,17.580484130859375,0.05421429127454758,0.1866193264722824,-0.15729780495166779
1701982223472476700,17.5974765625,0.026114489883184433,0.5693264007568359,-0.1313360333442688
1701982223489472500,17.614472412109375,-0.062460970133543015,0.6772968173027039,-0.14767667651176453
1701982223506464300,17.63146435546875,-0.029626963660120964,0.5088507533073425,-0.23411411046981812
1701982223523458600,17.64845849609375,0.08261952549219131,0.2941316068172455,-0.23182335495948792
1701982223540462000,17.665462158203123,0.14355333149433136,0.17256943881511688,-0.08002334833145142
1701982223557447200,17.682447265625,0.1414152979850769,0.05619960278272629,0.1443169116973877
1701982223574438100,17.699438232421876,0.1362229436635971,0.02229658141732216,0.3013092875480652
1701982223591433200,17.71643310546875,0.13286319375038147,0.05803219974040985,0.3098613917827606
1701982223608425700,17.73342578125,0.07147123664617538,0.09926560521125793,0.2672535479068756
1701982223625411000,17.7504111328125,-0.003359758760780096,-0.16844609379768372,0.02367102913558483
1701982223642402600,17.767402587890626,0.0009162978967651725,-0.04734205827116966,-0.1849394589662552
1701982223659407600,17.78440771484375,-0.035124752670526505,0.1814269721508026,-0.1797471046447754
1701982223676399900,17.80139990234375,-0.08674286305904388,0.25732699036598206,-0.09376781433820724
1701982223693395700,17.818395751953126,-0.05375614017248154,0.24159720540046692,-0.13271047174930573
1701982223710387500,17.835387451171876,0.07956519722938538,0.3039054572582245,-0.2857322096824646
1701982223727382000,17.852382080078126,0.19578230381011963,0.34208452701568604,-0.4053090810775757
1701982223744374500,17.86937451171875,0.22143864631652832,0.2617557644844055,-0.3436116874217987
1701982223761367600,17.886367431640625,0.15943582355976105,0.16050484776496887,-0.08994990587234497
1701982223778364200,17.9033642578125,0.06185010448098183,0.19868391752243042,0.21395555138587952
1701982223795359000,17.92035888671875,-0.06429356336593628,-0.13729196786880493,0.33169981837272644
1701982223812347000,17.937346923828127,-0.029626963660120964,-0.566119372844696,0.2243402600288391
1701982223829346600,17.9543466796875,0.00045814894838258624,-0.26343563199043274,0.021991148591041565
1701982223846336300,17.971336181640623,-0.09285151958465576,0.2721404731273651,-0.11957687139511108
1701982223863330800,17.988330810546874,-0.19394971430301666,0.3010038435459137,-0.182648703455925
1701982223880323300,18.0053232421875,-0.21930062770843506,0.1293507218360901,-0.2064724564552307
1701982223897319200,18.022319091796874,-0.1267545372247696,0.05451972410082817,-0.16539175808429718
1701982223914310700,18.039310546875,-0.041233405470848083,-0.06108652427792549,-0.09483683109283447
1701982223931305200,18.05630517578125,0.011453723534941673,-0.1215621829032898,0.005650503560900688
1701982223948297700,18.073297607421875,0.055283304303884506,-0.09239336848258972,0.12186761945486069
1701982223965293600,18.09029345703125,0.02535090781748295,-0.22602014243602753,0.33475416898727417
1701982223982282500,18.107282470703126,-0.01664607785642147,-0.4815145432949066,0.16310101747512817
1701982223999265300,18.124265380859374,-0.01466076634824276,-0.20555615425109863,-0.02519819140434265
1701982224016272100,18.141272216796875,-0.09697485715150833,0.06062837690114975,0.02626720629632473
1701982224033257700,18.1582578125,-0.18280142545700073,-0.03680463135242462,0.166460782289505
1701982224050255400,18.17525537109375,-0.21807889640331268,-0.16890424489974976,0.13668109476566315
1701982224067254000,18.19225390625,-0.16050484776496887,-0.22846360504627228,0.06505715101957321
1701982224084246800,18.209246826171874,-0.09682214260101318,-0.2496911734342575,0.06551529467105865
1701982224101242400,18.226242431640625,-0.056810468435287476,-0.20662516355514526,0.08445212244987488
1701982224118233900,18.24323388671875,0.009162978269159794,-0.1540907621383667,0.08903361111879349
1701982224135228400,18.260228515625,0.07910704612731934,-0.12202033400535583,0.11071932315826416
1701982224152221000,18.277220947265626,0.06780604273080826,-0.09269879758358002,0.26969701051712036
1701982224169216800,18.294216796875,-0.009468411095440388,-0.15821409225463867,0.0832303911447525
1701982224186210000,18.3112099609375,0.031001411378383636,0.04948008432984352,-0.09514226019382477
1701982224203201300,18.328201171875,0.014355333521962166,0.2574796974658966,-0.13958270847797394
1701982224220195300,18.3451953125,-0.04841107130050659,0.36590829491615295,-0.17562375962734222
1701982224237188600,18.362188720703124,-0.02825251780450344,0.3911064863204956,-0.275958389043808
1701982224254185500,18.379185546875,0.05467243865132332,0.38117989897727966,-0.3462078869342804
1701982224271177500,18.396177490234376,0.12599095702171326,0.36224308609962463,-0.2525927722454071
1701982224288170200,18.413170166015625,0.1537853181362152,0.289702832698822,0.003817907767370343
1701982224305165600,18.43016552734375,0.16630806028842926,0.20005837082862854,0.24923302233219147
1701982224322157000,18.447156982421873,0.18035796284675598,0.23839016258716583,0.46853363513946533
1701982224339152000,18.46415185546875,0.08888089656829834,-0.025961773470044136,0.36819902062416077
1701982224356143400,18.481143310546877,0.05726861581206322,0.03191770985722542,0.10216721147298813
1701982224373141200,18.498141357421876,0.1310305893421173,0.3937026560306549,0.033139441162347794
1701982224390131500,18.51513134765625,0.1365283876657486,0.43799036741256714,0.10781771689653397
1701982224407126300,18.532126220703127,0.043218716979026794,0.2509129047393799,0.0887281745672226
1701982224424108000,18.54910791015625,0.014049900695681572,0.19333885610103607,0.018478672951459885
1701982224441104000,18.566103759765625,0.1036943718791008,0.36163222789764404,0.0032070425804704428
1701982224458106000,18.583106201171876,0.16310101747512817,0.40301835536956787,0.02977968007326126
1701982224475090400,18.60009033203125,0.1563815027475357,0.2626720666885376,0.14340060949325562
1701982224492093200,18.61709326171875,0.126143679022789,0.0913243517279625,0.31902438402175903
1701982224509089000,18.634089111328127,0.05054909735918045,-0.15577064454555511,0.42867469787597656
1701982224526080300,18.651080322265624,0.03756821155548096,-0.3686571717262268,0.266184538602829
1701982224543075300,18.668075439453126,0.11178833991289139,0.12308934330940247,0.058948494493961334
1701982224560067600,18.685067626953124,0.14492778480052948,0.2669481039047241,-0.06872233748435974
1701982224577063400,18.7020634765625,0.14233160018920898,0.2064724564552307,-0.1014036312699318
1701982224594054700,18.7190546875,0.15271630883216858,0.16249015927314758,-0.0809396430850029
1701982224611049500,18.736049560546874,0.15195272862911224,0.0988074541091919,-0.02626720629632473
1701982224628041200,18.753041259765624,0.1258382350206375,0.037110064178705215,0.059864792972803116
1701982224645038600,18.77003857421875,0.07208210229873657,-0.047800205647945404,0.166460782289505
1701982224662029300,18.787029296875,0.01863138936460018,-0.2612976133823395,0.2477058619260788
1701982224679023900,18.80402392578125,-0.06582073122262955,-0.4954117238521576,0.1722639948129654
1701982224696006400,18.82100634765625,-0.15302173793315887,-0.355981707572937,-0.025961773470044136
1701982224713012200,18.83801220703125,-0.22159136831760406,-0.22388210892677307,-0.08506298810243607
1701982224730004200,18.855004150390624,-0.31612277030944824,-0.40882155299186707,-0.1010981947183609
1701982224747001600,18.872001708984374,-0.4115704596042633,-0.5100724697113037,-0.17867808043956757
1701982224763987700,18.88898779296875,-0.3927863538265228,-0.5404630303382874,-0.26679539680480957
1701982224780987000,18.90598681640625,-0.30375275015830994,-0.5393940210342407,-0.3147483170032501
1701982224797978600,18.922978515625,-0.19578230381011963,-0.43799036741256714,-0.3527746796607971
1701982224814962400,18.93996240234375,-0.08735372871160507,-0.2513710558414459,-0.3617849349975586
1701982224831965400,18.95696533203125,0.009621127508580685,-0.06444628536701202,-0.2785545587539673
1701982224848961000,18.9739609375,0.07498370856046677,0.01618792861700058,0.03573561832308769
1701982224865942300,18.9909423828125,-0.0003054326225537807,-0.346818745136261,0.33429601788520813
1701982224882947300,19.007947265625,-0.01664607785642147,-0.5484042763710022,0.2638937830924988
1701982224899939800,19.02493994140625,0.012522737495601177,-0.3591887652873993,0.055894169956445694
1701982224916925000,19.041925048828126,-0.011301007121801376,-0.09483683109283447,-0.15485434234142303
1701982224933927200,19.05892724609375,-0.055283304303884506,0.11178833991289139,-0.20830504596233368
1701982224950921700,19.075921630859376,-0.11835514008998871,0.007024950347840786,-0.1973094791173935
1701982224967914200,19.092914306640626,-0.12996158003807068,-0.1342376321554184,-0.18478673696517944
1701982224984910000,19.10991015625,-0.12247848510742188,-0.11621711403131485,-0.09453139454126358
1701982225001901600,19.126901611328126,-0.11927144229412079,-0.11010845750570297,0.1082758679986
1701982225018896100,19.143896240234376,-0.024892758578062057,0.13255776464939117,0.013286318629980087
1701982225035888600,19.160888671875,0.04902193695306778,0.5051855444908142,-0.12797626852989197
1701982225052884500,19.177884521484376,0.08903361111879349,0.6890559792518616,-0.16814066469669342
1701982225069875700,19.194875732421874,0.1797471046447754,0.3878994286060333,-0.10277807712554932
1701982225086870800,19.211870849609376,0.26374107599258423,0.06582073122262955,-0.021991148591041565
1701982225103863000,19.228863037109374,0.28069257736206055,-0.014508049935102463,0.14782938361167908
1701982225120859000,19.24585888671875,0.15974126756191254,-0.3471241891384125,0.13041973114013672
1701982225137847800,19.262847900390625,0.07773260027170181,-0.3627012372016907,-0.03375030308961868
1701982225154847500,19.279847412109376,0.04917465150356293,-0.09728029370307922,-0.2275473028421402
1701982225171837700,19.296837646484374,-0.021074850112199783,0.3058907687664032,-0.3052799105644226
1701982225188833300,19.313833251953124,-0.15241087973117828,0.37400224804878235,-0.26221391558647156
1701982225205824800,19.33082470703125,-0.21700987219810486,0.14737124741077423,-0.24297164380550385
1701982225222819600,19.347819580078124,-0.2246456891298294,-0.02321287989616394,-0.20372356474399567
1701982225239812000,19.36481201171875,-0.19379699230194092,-0.36529740691185,0.048716504126787186
1701982225256807700,19.3818076171875,-0.13316862285137177,-0.27870726585388184,0.23289237916469574
1701982225273801500,19.398801513671874,-0.06169738993048668,-0.15393804013729095,0.192422553896904
1701982225290791700,19.415791748046875,0.020922135561704636,0.029016099870204926,0.1310305893421173
1701982225307776300,19.4327763671875,0.05360342562198639,0.11362093687057495,0.08918632566928864
1701982225324779500,19.449779541015626,0.08032877743244171,0.029016099870204926,0.06505715101957321
1701982225341776600,19.466776611328125,0.07864890247583389,-0.05115996301174164,0.3448334336280823
1701982225358768400,19.483768310546875,0.004123340360820293,-0.37171149253845215,0.22800545394420624
1701982225375761000,19.500760986328125,0.021074850112199783,-0.1667662113904953,0.00015271631127689034
1701982225392756500,19.517756591796875,0.004886921960860491,0.22831088304519653,-0.1719585657119751
1701982225409738200,19.53473828125,-0.021532999351620674,0.5022839307785034,-0.14004085958003998
1701982225426743300,19.551743408203127,-0.05054909735918045,0.39736783504486084,-0.09941831976175308
1701982225443735600,19.568735595703124,-0.039248090237379074,0.13209961354732513,-0.11652254313230515
1701982225460731100,19.585731201171875,0.00045814894838258624,-0.026114489883184433,-0.08521570265293121
1701982225477722600,19.60272265625,0.006261368747800589,-0.02932153269648552,-0.02535090781748295
1701982225494717200,19.61971728515625,0.017867809161543846,0.05009094998240471,0.030543262138962746
1701982225511709700,19.636709716796876,0.0064140851609408855,0.019394971430301666,0.07513642311096191
1701982225528703000,19.653702880859374,-0.01191187184303999,-0.02428189292550087,0.11484266817569733
1701982225545699800,19.670699951171876,-0.0024434609804302454,-0.0027488935738801956,0.09300423413515091
1701982225562681300,19.687681396484376,0.005650503560900688,-0.02168571576476097,0.007635815534740686
1701982225579684400,19.704684326171876,-0.01114829070866108,-0.08261952549219131,-0.05619960278272629
1701982225596680000,19.721679931640626,-0.02733621932566166,-0.384845107793808,0.09193521738052368
1701982225613671400,19.73867138671875,0.015882495790719986,-0.1336267739534378,0.27580565214157104
1701982225630666200,19.755666259765626,0.013744467869400978,0.05925392732024193,0.1872301995754242
1701982225647658800,19.77265869140625,0.06887505948543549,0.18707747757434845,-0.051312681287527084
1701982225664654300,19.789654296875,0.1440114825963974,0.2802344262599945,-0.14737124741077423
1701982225681646000,19.80664599609375,0.2028072625398636,0.22907446324825287,-0.08445212244987488
1701982225698640400,19.823640380859374,0.19074267148971558,0.08414668589830399,-0.010842857882380486
1701982225715634000,19.840634033203123,0.17027868330478668,0.008246680721640587,0.05146539583802223
1701982225732628000,19.8576279296875,0.08170322328805923,0.1270599663257599,0.16172657907009125
1701982225749620200,19.8746201171875,0.04841107130050659,-0.18967366218566895,0.1872301995754242
1701982225766612700,19.89161279296875,0.07192938029766083,-0.46364670991897583,0.11988230794668198
1701982225783610000,19.908610107421875,0.04642575979232788,-0.5189300179481506,-0.04245513305068016
1701982225800603400,19.925603271484373,-0.013133603148162365,-0.20555615425109863,-0.1846340149641037
1701982225817605600,19.942605712890625,-0.12064588814973831,-0.09193521738052368,-0.2695443034172058
1701982225834582000,19.95958203125,-0.1440114825963974,-0.15790866315364838,-0.2816088795661926
1701982225851582000,19.97658203125,-0.14905111491680145,-0.2713768780231476,-0.18417587876319885
1701982225868577800,19.993577880859377,-0.15347988903522491,-0.3459024429321289,0.08246681094169617
1701982225885569300,20.0105693359375,-0.12370020896196365,-0.07788532227277756,0.07254024595022202
1701982225902563800,20.027563720703125,-0.07391469180583954,0.08643743395805359,-0.12110403180122375
1701982225919556000,20.04455615234375,-0.031001411378383636,0.25106561183929443,-0.2324342280626297
1701982225936552400,20.061552490234376,-0.004428773187100887,0.23319780826568604,-0.1944078654050827
1701982225953543700,20.078543701171874,0.0009162978967651725,0.09315694868564606,-0.09178250283002853
1701982225970538500,20.09553857421875,0.018478672951459885,0.02015855349600315,0.003512475173920393
1701982225987531000,20.112531005859374,0.02122756652534008,0.05360342562198639,0.0685696229338646
1701982226004526800,20.12952685546875,0.003359758760780096,0.14324790239334106,0.10033461451530457
1701982226021518000,20.14651806640625,0.013897184282541275,0.1774563491344452,0.08643743395805359
1701982226038513000,20.163512939453124,0.03222314268350601,0.18829920887947083,0.05742133408784866
1701982226055505400,20.18050537109375,0.015577063895761967,0.16539175808429718,0.006261368747800589
1701982226072501200,20.197501220703124,-0.008857546374201775,0.11133018881082535,-0.02076941914856434
1701982226089492700,20.21449267578125,-0.08521570265293121,-0.3323107063770294,0.22052235901355743
1701982226106487300,20.2314873046875,-0.09162978827953339,-0.26740625500679016,0.3920227587223053
1701982226123479800,20.248479736328125,-0.07895433157682419,-0.043218716979026794,0.29168814420700073
1701982226140473300,20.265473388671875,-0.06383541971445084,0.14737124741077423,0.05421429127454758
1701982226157469400,20.282469482421874,-0.052839845418930054,0.16294831037521362,-0.10567969083786011
1701982226174461000,20.2994609375,-0.021074850112199783,-0.08491026610136032,-0.06658431142568588
1701982226191450600,20.31645068359375,-0.0024434609804302454,-0.33796119689941406,0.01191187184303999
1701982226208453600,20.33345361328125,-0.039706241339445114,-0.5251913666725159,0.04184427112340927
1701982226225441500,20.350441650390625,-0.09392052888870239,-0.5279402732849121,0.05772676691412926
1701982226242424300,20.36742431640625,-0.1281289905309677,-0.4335615932941437,0.058795779943466187
1701982226259430100,20.38443017578125,-0.1469130963087082,-0.3877467215061188,0.05696318298578262
1701982226276424400,20.401424560546875,-0.12003502249717712,-0.3116939961910248,0.030237829312682152
1701982226293416000,20.418416015625,-0.08246681094169617,-0.2269364446401596,0.006719517521560192
1701982226310407400,20.435407470703126,-0.13668109476566315,-0.19058994948863983,0.24556782841682434
1701982226327406600,20.452406494140625,-0.1595885455608368,-0.014202617108821869,0.15806138515472412
1701982226344399000,20.469399169921875,-0.036041051149368286,0.35934147238731384,-0.15286903083324432
1701982226361390300,20.486390380859376,0.052228979766368866,0.3908010423183441,-0.3234531581401825
1701982226378376000,20.5033759765625,0.11255192011594772,0.30482175946235657,-0.24434609711170197
1701982226395377700,20.520377685546876,0.19318613409996033,0.20601430535316467,-0.10064005106687546
1701982226412376600,20.53737646484375,0.1609629988670349,0.15012013912200928,0.3271183371543884
1701982226429351700,20.5543515625,0.04260785132646561,-0.266642689704895,0.28817567229270935
1701982226446359800,20.57135986328125,0.06933320313692093,-0.21074850857257843,0.048716504126787186
1701982226463352300,20.588352294921876,-0.006719517521560192,0.09789115190505981,-0.20876319706439972
1701982226480348000,20.605347900390626,-0.07269296050071716,0.44654250144958496,-0.2532036304473877
