time,seconds_elapsed,z,y,x
1701981646290731800,0.059731689453125,0.0887281745672226,0.5929974317550659,-0.15424346923828125
1701981646307278000,0.076278076171875,0.13805554807186127,0.5135849714279175,-0.03527746722102165
1701981646324258300,0.09325830078125,0.17470745742321014,0.38117989897727966,0.1108720451593399
1701981646341253600,0.110253662109375,0.1869247704744339,0.2278527319431305,0.2168571650981903
1701981646358243300,0.127243408203125,0.18738290667533875,0.17409659922122955,0.17302757501602173
1701981646375240400,0.144240478515625,0.15286903083324432,0.12965615093708038,0.12965615093708038
1701981646392235000,0.161235107421875,0.1618792861700058,0.11850785464048386,0.06215553730726242
1701981646409224400,0.178224365234375,0.1889100819826126,0.06673702597618103,0.08246681094169617
1701981646426221300,0.19522119140625,0.20112738013267517,-0.05650503560900688,0.15851953625679016
1701981646443205000,0.212205078125,0.19394971430301666,0.0027488935738801956,0.17669276893138885
1701981646460211700,0.229211669921875,0.204487144947052,0.1586722433567047,0.06261368840932846
1701981646477197600,0.246197509765625,0.23197607696056366,0.2626720666885376,-0.1699732542037964
1701981646494195500,0.263195556640625,0.21594086289405823,0.22128593921661377,-0.3830125033855438
1701981646511191800,0.28019189453125,0.1963931769132614,0.1238529309630394,-0.5575672388076782
1701981646528180500,0.297180419921875,0.25854870676994324,0.23350323736667633,-0.4616613984107971
1701981646545176600,0.314176513671875,0.19257527589797974,0.1609629988670349,-0.2721404731273651
1701981646562162000,0.331161865234375,0.08659014850854874,-0.14614951610565186,-0.05604688450694084
1701981646579162600,0.34816259765625,0.03237585723400116,-0.2477058619260788,0.11743884533643723
1701981646596158500,0.365158447265625,-0.019089538604021072,-0.34162637591362,0.1368338167667389
1701981646613151500,0.3821513671875,-0.01466076634824276,-0.4155410826206207,0.08429940044879913
1701981646630146800,0.399146728515625,-0.024587325751781464,-0.3234531581401825,0.04184427112340927
1701981646647137500,0.416137451171875,-0.021380282938480377,-0.2480112910270691,0.030237829312682152
1701981646664132600,0.433132568359375,0.0010690141934901476,-0.23777928948402405,0.03894266113638878
1701981646681117400,0.450117431640625,0.005497787147760391,-0.2710714638233185,0.047189339995384216
1701981646698121200,0.467121337890625,0.012522737495601177,-0.20311269164085388,0.02275473065674305
1701981646715111000,0.48411083984375,0.023365596309304237,-0.096211276948452,-0.06612616032361984
1701981646732109300,0.501109375,0.05207626149058342,0.036041051149368286,-0.17898350954055786
1701981646749098800,0.5180986328125,0.06108652427792549,0.19043724238872528,-0.24144448339939117
1701981646766095600,0.535095703125,0.06429356336593628,0.23136521875858307,-0.24465152621269226
1701981646783089700,0.552089599609375,0.08261952549219131,0.2580905556678772,-0.16035212576389313
1701981646800083700,0.569083740234375,0.06811147183179855,0.21212296187877655,-0.035582900047302246
1701981646817073400,0.586073486328125,0.07009678333997726,0.06185010448098183,0.07284568250179291
1701981646834070000,0.603070068359375,0.07620543986558914,-0.030543262138962746,0.168751522898674
1701981646851066400,0.62006640625,0.08139779418706894,-0.031154127791523933,0.22586742043495178
1701981646868057000,0.63705712890625,0.08338310569524765,0.050243668258190155,0.17760907113552094
1701981646885048300,0.65404833984375,0.0835358202457428,0.19043724238872528,0.054367005825042725
1701981646902046200,0.671046142578125,0.08048149943351746,0.25076019763946533,-0.059864792972803116
1701981646919037200,0.688037109375,0.09865473955869675,0.22861631214618683,-0.1511891484260559
1701981646936031700,0.70503173828125,0.10644327104091644,0.18570303916931152,-0.19593502581119537
1701981646953015800,0.722015869140625,0.07880161702632904,0.11957687139511108,-0.17287486791610718
1701981646970005800,0.739005859375,0.044745877385139465,0.06154467165470123,-0.1485929638147354
1701981646987005200,0.756005126953125,0.029626963660120964,-0.014355333521962166,-0.13087788224220276
1701981647004009200,0.77300927734375,0.014202617108821869,-0.07284568250179291,-0.08338310569524765
1701981647021006300,0.79000634765625,-0.04657847434282303,-0.18157969415187836,0.014508049935102463
1701981647037994800,0.806994873046875,-0.1088867336511612,-0.304210901260376,0.13668109476566315
1701981647054992600,0.82399267578125,-0.13454307615756989,-0.3397938013076782,0.22327125072479248
1701981647071981800,0.84098193359375,-0.10445795953273773,-0.28680121898651123,0.20876319706439972
1701981647088973000,0.85797314453125,-0.04535674303770065,-0.1417207419872284,0.1010981947183609
1701981647105970000,0.874969970703125,-0.003054326167330146,0.098502017557621,0.032681290060281754
1701981647122950700,0.89195068359375,0.028557950630784035,0.38347065448760986,0.07024950534105301
1701981647139955700,0.908955810546875,0.06154467165470123,0.5287038683891296,0.15790866315364838
1701981647156951600,0.92595166015625,0.07269296050071716,0.6453791260719299,0.20143280923366547
1701981647173944000,0.942944091796875,0.06368270516395569,0.7512115240097046,0.2681698501110077
1701981647190940400,0.9599404296875,0.11102475970983505,0.854905903339386,0.3399465084075928
1701981647207929000,0.97692919921875,0.20906862616539001,0.9706648588180542,0.3908010423183441
1701981647224925000,0.993925048828125,0.304210901260376,1.088409185409546,0.38988474011421204
1701981647241920300,1.010920166015625,0.36621370911598206,1.2015719413757324,0.4288274049758911
1701981647258911200,1.0279111328125,0.28878653049468994,0.6589708924293518,0.8480336666107178
1701981647275907000,1.044906982421875,0.06963863968849182,-0.20433442294597626,0.7089090943336487
1701981647292906200,1.06190625,-0.10018189996480942,-0.29596421122550964,0.1869247704744339
1701981647309895200,1.078895263671875,-0.19853121042251587,-0.10705413669347763,-0.13148874044418335
1701981647326888000,1.095887939453125,-0.2719877362251282,-0.06887505948543549,-0.2203696370124817
1701981647343871000,1.11287109375,-0.2952006161212921,-0.17837265133857727,-0.25564709305763245
1701981647360874200,1.129874267578125,-0.22831088304519653,-0.4424191415309906,-0.24953845143318176
1701981647377868300,1.146868408203125,-0.19058994948863983,-0.7313584089279175,-0.07666359096765518
1701981647394862300,1.1638623046875,-0.1459967941045761,-0.9451612234115601,0.11698069423437119
1701981647411857400,1.180857421875,-0.09300423413515091,-1.0389291048049927,0.21930062770843506
1701981647428847000,1.19784716796875,-0.061391957104206085,-0.9796751141548157,0.19715675711631775
1701981647445844200,1.21484423828125,-0.051312681287527084,-0.8072584271430969,0.12370020896196365
1701981647462838300,1.23183837890625,-0.010231993161141872,-0.6207917928695679,-0.003512475173920393
1701981647479832300,1.248832275390625,0.009926560334861279,-0.38026362657546997,-0.11148291081190109
1701981647496819500,1.2658193359375,0.008704829961061478,-0.24602597951889038,-0.15042556822299957
1701981647513821000,1.282821044921875,0.005039638374000788,-0.18845193088054657,-0.1235474944114685
1701981647530814500,1.299814453125,-0.001527163083665073,-0.16798794269561768,-0.07528914511203766
1701981647547803100,1.31680322265625,0.013744467869400978,-0.128434419631958,-0.06933320313692093
1701981647564788700,1.333788818359375,0.02687807008624077,-0.041233405470848083,-0.1082758679986
1701981647581795800,1.3507958984375,0.022602014243602753,0.0806342139840126,-0.16279558837413788
1701981647598783700,1.36778369140625,-0.0012217304902151227,0.15836681425571442,-0.16630806028842926
1701981647615782700,1.38478271484375,-0.03481931984424591,0.16065755486488342,-0.13255776464939117
1701981647632774100,1.401774169921875,-0.06001751124858856,0.1371392458677292,-0.10705413669347763
1701981647649780000,1.418780029296875,-0.07788532227277756,0.09376781433820724,-0.0685696229338646
1701981647666765800,1.435765869140625,-0.08796459436416626,0.03878994286060333,-0.00427605677396059
1701981647683756000,1.452756103515625,-0.07254024595022202,-0.06551529467105865,0.04886921867728233
1701981647700750000,1.46975,-0.046273041516542435,-0.10674870014190674,0.060475658625364304
1701981647717740000,1.486739990234375,-0.020922135561704636,-0.020616702735424042,0.035582900047302246
1701981647734740200,1.503740234375,0.0064140851609408855,0.09514226019382477,-0.020922135561704636
1701981647751741400,1.520741455078125,0.029474247246980667,0.1713477075099945,-0.08567385375499725
1701981647768722700,1.53772265625,0.018325956538319588,0.17256943881511688,-0.09758572280406952
1701981647785720800,1.554720947265625,-0.01466076634824276,0.12919799983501434,0.01664607785642147
1701981647802709500,1.57170947265625,-0.02825251780450344,0.06780604273080826,0.16050484776496887
1701981647819705600,1.58870556640625,0.013591751456260681,0.08002334833145142,0.21395555138587952
1701981647836697600,1.605697509765625,0.08491026610136032,0.2770273983478546,0.2269364446401596
1701981647853695000,1.622695068359375,0.15424346923828125,0.432645320892334,0.2116648107767105
1701981647870690800,1.63969091796875,0.21181751787662506,0.4746423065662384,0.28130343556404114
1701981647887678200,1.65667822265625,0.23273965716362,0.34773504734039307,0.4106541574001312
1701981647904673800,1.673673828125,0.2252565622329712,0.3591887652873993,0.5061018466949463
1701981647921668900,1.6906689453125,0.1621847152709961,0.299476683139801,0.6837109327316284
1701981647938652200,1.707652099609375,-0.014355333521962166,-0.20173825323581696,0.36071592569351196
1701981647955655200,1.7246552734375,-0.07498370856046677,-0.3651446998119354,-0.0913243517279625
1701981647972648700,1.741648681640625,-0.1014036312699318,-0.21792617440223694,-0.34055736660957336
1701981647989640400,1.758640380859375,-0.13958270847797394,-0.1872301995754242,-0.32940909266471863
1701981648006637600,1.775637451171875,-0.1791362315416336,-0.17501288652420044,-0.20570887625217438
1701981648023629300,1.79262939453125,-0.13316862285137177,-0.26404649019241333,-0.1362229436635971
1701981648040624600,1.809624755859375,-0.07696902006864548,-0.3257438838481903,-0.14905111491680145
1701981648057614300,1.8266142578125,-0.04398229718208313,-0.44089198112487793,-0.0354301854968071
1701981648074611500,1.843611572265625,0.020616702735424042,-0.5427537560462952,0.3078760802745819
1701981648091606000,1.86060595703125,0.03695734590291977,-0.2600758671760559,0.3448334336280823
1701981648108595500,1.877595458984375,0.03145955875515938,0.010995574295520782,0.2249511331319809
1701981648125585700,1.894585693359375,0.06994406878948212,0.37400224804878235,0.09682214260101318
1701981648142586400,1.91158642578125,0.10399980843067169,0.5360342264175415,0.03084869496524334
1701981648159577300,1.928577392578125,0.14676037430763245,0.5429064631462097,0.07895433157682419
1701981648176568600,1.945568603515625,0.15027284622192383,0.39965859055519104,0.12400564551353455
1701981648193566500,1.96256640625,0.1010981947183609,0.15393804013729095,0.04337143152952194
1701981648210562800,1.979562744140625,0.06520986557006836,0.09162978827953339,-0.08429940044879913
1701981648227551700,1.9965517578125,-0.021838432177901268,0.13377949595451355,-0.18967366218566895
1701981648244549600,2.013549560546875,-0.08414668589830399,0.22143864631652832,-0.13240504264831543
1701981648261540600,2.03054052734375,-0.11010845750570297,0.14019356667995453,-0.04153883829712868
1701981648278533600,2.04753369140625,-0.07024950534105301,-0.018478672951459885,0.013744467869400978
1701981648295530800,2.06453076171875,-0.003359758760780096,-0.058795779943466187,0.06505715101957321
1701981648312522200,2.081522216796875,0.02687807008624077,0.02382374368607998,0.10751228034496307
1701981648329513500,2.098513427734375,0.030695978552103043,0.04581489413976669,0.10674870014190674
1701981648346511400,2.115511474609375,0.039248090237379074,0.02886338345706463,0.0656680166721344
1701981648363496700,2.13249658203125,0.011301007121801376,0.01466076634824276,0.02886338345706463
1701981648380499000,2.1494990234375,-0.03833179548382759,0.002138028386980295,0.07910704612731934
1701981648397488400,2.16648828125,-0.058795779943466187,0.07727445662021637,0.1258382350206375
1701981648414487600,2.183487548828125,-0.05772676691412926,0.11530081182718277,0.166460782289505
1701981648431479600,2.2004794921875,-0.054825156927108765,0.09987647086381912,0.19013181328773499
1701981648448469500,2.217469482421875,-0.06582073122262955,-0.09285151958465576,0.18417587876319885
1701981648465466000,2.234466064453125,-0.10155634582042694,-0.34758231043815613,0.16982053220272064
1701981648482459000,2.251458984375,-0.12140946835279465,-0.551305890083313,0.13607023656368256
1701981648499452700,2.26845263671875,-0.12370020896196365,-0.6811147332191467,0.12110403180122375
1701981648516448500,2.285448486328125,-0.11972958594560623,-0.6698137521743774,0.1036943718791008
1701981648533440500,2.3024404296875,-0.13744467496871948,-0.6375905871391296,0.07101308554410934
1701981648550436900,2.319436767578125,-0.19257527589797974,-0.5520694851875305,0.04138612002134323
1701981648567429400,2.336429443359375,-0.2554943859577179,-0.42348232865333557,0.014966198243200779
1701981648584420600,2.353420654296875,-0.2744311988353729,-0.3399465084075928,0.0032070425804704428
1701981648601417200,2.370417236328125,-0.25473082065582275,-0.164170041680336,-0.039095375686883926
1701981648618407700,2.38740771484375,-0.1592831164598465,-0.06352998316287994,-0.14095716178417206
1701981648635402800,2.40440283203125,-0.04749477282166481,-0.04917465150356293,-0.24037547409534454
1701981648652398000,2.421398193359375,-0.007788531947880983,0.01664607785642147,-0.2652682363986969
1701981648669384000,2.438384033203125,-0.008246680721640587,0.04566217586398125,-0.2353358417749405
1701981648686389800,2.4553896484375,-0.005650503560900688,0.07437284290790558,-0.2220495194196701
1701981648703377700,2.472377685546875,0.0009162978967651725,0.17531833052635193,-0.26083946228027344
1701981648720373000,2.489373046875,0.01237002108246088,0.294895201921463,-0.31612277030944824
1701981648737362700,2.50636279296875,0.03787364438176155,0.2503020465373993,-0.3677408695220947
1701981648754359600,2.523359619140625,0.05268712714314461,0.1713477075099945,-0.37048977613449097
1701981648771351800,2.540351806640625,-0.030085112899541855,0.2600758671760559,-0.2102903574705124
1701981648788344600,2.557344482421875,-0.06017022579908371,0.046273041516542435,-0.1267545372247696
1701981648805342000,2.574342041015625,-0.05757404863834381,-0.07956519722938538,-0.04764748737215996
1701981648822336300,2.591336181640625,-0.07910704612731934,-0.09346238523721695,0.04993823543190956
1701981648839322400,2.608322265625,-0.08949175477027893,-0.07712173461914062,0.13515393435955048
1701981648856324400,2.625324462890625,-0.07987063378095627,-0.08460483700037003,0.1618792861700058
1701981648873314600,2.642314453125,-0.05406157299876213,-0.0936150997877121,0.16325373947620392
1701981648890311200,2.659311279296875,-0.0403171069920063,-0.10613783448934555,0.15974126756191254
1701981648907299600,2.676299560546875,-0.039095375686883926,-0.13836097717285156,0.15622878074645996
1701981648924296200,2.693296142578125,-0.03084869496524334,-0.15592335164546967,0.12247848510742188
1701981648941291000,2.710291015625,-0.02168571576476097,-0.08796459436416626,0.06627888232469559
1701981648958282000,2.727281982421875,-0.014355333521962166,0.021074850112199783,0.015577063895761967
1701981648975276800,2.74427685546875,-0.0064140851609408855,0.07727445662021637,-0.007635815534740686
1701981648992272400,2.7612724609375,0.012980886735022068,0.02275473065674305,0.003054326167330146
1701981649009265000,2.778264892578125,0.020922135561704636,-0.09712757170200348,0.033597588539123535
1701981649026257000,2.7952568359375,0.01160643994808197,-0.20586158335208893,0.06704246252775192
1701981649043245800,2.812245849609375,0.0012217304902151227,-0.26251932978630066,0.08277224004268646
1701981649060243700,2.82924365234375,-0.00015271631127689034,-0.22540926933288574,0.10949759185314178
1701981649077240300,2.846240234375,-0.010690141469240189,-0.16142113506793976,0.14996741712093353
1701981649094233900,2.86323388671875,-0.02122756652534008,-0.12095131725072861,0.154396191239357
1701981649111228200,2.880228271484375,-0.016340645030140877,-0.11148291081190109,0.12171489745378494
1701981649128217900,2.8972177734375,-0.011759156361222267,-0.10094548016786575,0.07101308554410934
1701981649145214000,2.9142138671875,-0.02229658141732216,-0.1059851199388504,-0.0074830991216003895
1701981649162210600,2.93121044921875,-0.048258353024721146,-0.04581489413976669,-0.08765916526317596
1701981649179199000,2.948198974609375,-0.06963863968849182,0.04963280260562897,-0.13377949595451355
1701981649196195800,2.96519580078125,-0.07284568250179291,0.07269296050071716,-0.1440114825963974
1701981649213188900,2.98218896484375,-0.06291911751031876,0.06429356336593628,-0.12522737681865692
1701981649230185500,2.999185546875,-0.042760565876960754,0.010995574295520782,-0.09575312584638596
1701981649247174000,3.016173828125,-0.01466076634824276,-0.05955936014652252,-0.07712173461914062
1701981649264170000,3.033169921875,-0.002138028386980295,-0.08139779418706894,-0.06169738993048668
1701981649281165300,3.050165283203125,-0.003054326167330146,-0.043218716979026794,-0.047800205647945404
1701981649298156300,3.06715625,-0.011453723534941673,-0.0039706239476799965,-0.03390302136540413
1701981649315151000,3.084151123046875,-0.022143865004181862,0.020463986322283745,-0.003817907767370343
1701981649332146200,3.101146240234375,-0.020311269909143448,0.026419922709465027,-0.00045814894838258624
1701981649349136100,3.11813623046875,-0.012522737495601177,0.014508049935102463,-0.001679879380390048
1701981649366134000,3.135134033203125,0.004734205547720194,-0.0377209298312664,-0.0022907445672899485
1701981649383126000,3.1521259765625,0.022907447069883347,-0.054367005825042725,0.004886921960860491
1701981649400121300,3.169121337890625,0.02229658141732216,-0.021074850112199783,0.02474004216492176
1701981649417111000,3.186111083984375,-0.00366519158706069,0.0027488935738801956,0.013591751456260681
1701981649434108000,3.20310791015625,-0.023976460099220276,0.057879481464624405,-0.022143865004181862
1701981649451102500,3.2201025390625,-0.01725694350898266,0.12507465481758118,-0.037110064178705215
1701981649468092200,3.237092041015625,-0.011759156361222267,0.17776179313659668,-0.023976460099220276
1701981649485086500,3.25408642578125,-0.005803219974040985,0.1667662113904953,0.018325956538319588
1701981649502077000,3.271076904296875,0.003054326167330146,0.0887281745672226,0.07712173461914062
1701981649519075000,3.288074951171875,0.028405234217643738,0.02474004216492176,0.13729196786880493
1701981649536070100,3.305070068359375,0.07437284290790558,0.052381694316864014,0.18799377977848053
1701981649553063000,3.32206298828125,0.09254608303308487,0.08811730891466141,0.2200642079114914
1701981649570059500,3.3390595703125,0.05803219974040985,0.1007927656173706,0.18081611394882202
1701981649587048200,3.356048095703125,0.03436116874217987,0.15317445993423462,0.09346238523721695
1701981649604044000,3.3730439453125,0.02229658141732216,0.18616119027137756,0.021532999351620674
1701981649621033200,3.390033203125,0.023365596309304237,0.18829920887947083,0.012980886735022068
1701981649638028800,3.40702880859375,0.050243668258190155,0.18524488806724548,0.06765332818031311
1701981649655030000,3.424030029296875,0.0907134860754013,0.13958270847797394,0.15332718193531036
1701981649672012500,3.441012451171875,0.1287398487329483,0.07742717117071152,0.21135938167572021
1701981649689001200,3.458001220703125,0.13759739696979523,0.01863138936460018,0.1742493063211441
1701981649705998300,3.474998291015625,0.11636982858181,0.005039638374000788,0.07635815441608429
1701981649722992000,3.4919921875,0.10491610318422318,0.047189339995384216,-0.021532999351620674
1701981649739998200,3.508998291015625,0.10094548016786575,0.10231992602348328,-0.08155050873756409
1701981649756983000,3.525983154296875,0.09422596544027328,0.1267545372247696,-0.0705549344420433
1701981649773984800,3.54298486328125,0.07559457421302795,0.08949175477027893,-0.014508049935102463
1701981649790976800,3.559976806640625,0.06505715101957321,-0.017562376335263252,0.024434609338641167
1701981649807966200,3.57696630859375,0.05742133408784866,-0.0685696229338646,0.030543262138962746
1701981649824962300,3.59396240234375,0.05971207842230797,-0.019853120669722557,-0.014049900695681572
1701981649841959000,3.610958984375,0.07208210229873657,-0.00809396430850029,-0.02825251780450344
1701981649858944800,3.62794482421875,0.07849618047475815,0.04489859566092491,-0.003054326167330146
1701981649875944200,3.644944091796875,0.07116580009460449,0.056810468435287476,0.06414084881544113
1701981649892940000,3.66193994140625,0.07024950534105301,0.009773843921720982,0.13515393435955048
1701981649909933600,3.67893359375,0.06200282275676727,-0.06291911751031876,0.15806138515472412
1701981649926922800,3.6959228515625,0.0429132841527462,-0.13209961354732513,0.11148291081190109
1701981649943908000,3.712908203125,0.016798794269561768,-0.15882496535778046,0.01114829070866108
1701981649960913700,3.72991357421875,0.020463986322283745,-0.12370020896196365,-0.06276640295982361
1701981649977904600,3.746904541015625,0.027030786499381065,-0.055283304303884506,-0.0832303911447525
1701981649994899500,3.7638994140625,0.030085112899541855,-0.02076941914856434,-0.024587325751781464
1701981650011894800,3.780894775390625,0.027030786499381065,-0.06750060617923737,0.07437284290790558
1701981650028884500,3.797884521484375,0.022907447069883347,-0.1670716404914856,0.12996158003807068
1701981650045882400,3.81488232421875,0.008399397134780884,-0.20005837082862854,0.12110403180122375
1701981650062874600,3.83187451171875,0.0025961773935705423,-0.14828753471374512,0.05925392732024193
1701981650079869700,3.84886962890625,0.0012217304902151227,-0.03481931984424591,-0.02519819140434265
1701981650096859400,3.865859375,-0.01237002108246088,0.04459316283464432,-0.09896016865968704
1701981650113857500,3.882857421875,-0.03084869496524334,0.05345070734620094,-0.1270599663257599
1701981650130843400,3.899843505859375,-0.03848451003432274,0.050243668258190155,-0.07864890247583389
1701981650147840500,3.916840576171875,-0.04108068719506264,0.006719517521560192,-0.013897184282541275
1701981650164836600,3.933836669921875,-0.025503624230623245,0.01160643994808197,0.018020525574684143
1701981650181833000,3.9508330078125,-0.018020525574684143,0.04444044828414917,0.011301007121801376
1701981650198814500,3.967814453125,-0.030543262138962746,0.07635815441608429,-0.038026362657547
1701981650215818500,3.984818603515625,-0.05421429127454758,0.12751811742782593,-0.09529497474431992
1701981650232811300,4.001811279296875,-0.05910121276974678,0.14340060949325562,-0.1088867336511612
1701981650249808000,4.018807861328125,-0.04993823543190956,0.14156801998615265,-0.07712173461914062
1701981650266794800,4.035794677734375,-0.03726277872920036,0.1160643994808197,-0.03726277872920036
1701981650283795500,4.05279541015625,-0.02122756652534008,0.06963863968849182,-0.02626720629632473
1701981650300793900,4.0697939453125,-0.007941247895359993,0.029932396486401558,-0.04459316283464432
1701981650317778700,4.08677880859375,-0.006261368747800589,0.018020525574684143,-0.052839845418930054
1701981650334776600,4.103776611328125,-0.02580905705690384,0.014508049935102463,-0.06383541971445084
1701981650351750700,4.120750732421875,-0.04108068719506264,0.05161811411380768,-0.07773260027170181
1701981650368757800,4.1377578125,-0.03191770985722542,0.06734789162874222,-0.0705549344420433
1701981650385767700,4.154767578125,-0.009468411095440388,0.03176499158143997,-0.04948008432984352
1701981650402748200,4.171748046875,0.015577063895761967,-0.029168816283345222,-0.021074850112199783
1701981650419742200,4.1887421875,0.02428189292550087,-0.07620543986558914,0.010842857882380486
1701981650436734200,4.205734130859375,0.01863138936460018,-0.07513642311096191,0.013897184282541275
1701981650453736000,4.22273583984375,0.02076941914856434,-0.05467243865132332,-0.010690141469240189
1701981650470727000,4.239726806640625,0.016798794269561768,-0.0354301854968071,-0.029016099870204926
1701981650487718400,4.256718505859375,0.011301007121801376,-0.05268712714314461,-0.022907447069883347
1701981650504711700,4.273711669921875,0.016798794269561768,-0.08429940044879913,0.003054326167330146
1701981650521696000,4.290696044921875,0.027641652151942253,-0.09743300825357437,0.028405234217643738
1701981650538696400,4.307696533203125,0.027488935738801956,-0.06276640295982361,0.0328340083360672
1701981650555695400,4.3246953125,0.013897184282541275,-0.010842857882380486,0.01618792861700058
1701981650572686600,4.3416865234375,0.003359758760780096,0.0012217304902151227,-0.0064140851609408855
1701981650589681700,4.358681640625,0.00931569468230009,-0.009926560334861279,-0.016798794269561768
1701981650606674000,4.375673828125,0.009926560334861279,-0.036651913076639175,-0.004886921960860491
1701981650623667700,4.392667724609375,0.005955935921519995,-0.06704246252775192,0.018478672951459885
1701981650640661500,4.40966162109375,0.011759156361222267,-0.05604688450694084,0.02687807008624077
1701981650657653500,4.426653564453125,0.007941247895359993,-0.04505131021142006,0.007788531947880983
1701981650674651400,4.4436513671875,0.0009162978967651725,-0.023518312722444534,-0.02275473065674305
1701981650691642400,4.460642333984375,0.002138028386980295,-0.013591751456260681,-0.04245513305068016
1701981650708636400,4.477636474609375,0.003512475173920393,-0.009926560334861279,-0.04306599870324135
1701981650725631000,4.494630859375,-0.0019853119738399982,-0.012064588256180286,-0.01664607785642147
1701981650742623700,4.511623779296875,-0.00015271631127689034,-0.009010262787342072,0.014813481830060482
1701981650759617500,4.528617431640625,0.004734205547720194,0.0039706239476799965,0.030543262138962746
1701981650776618500,4.545618408203125,0.012522737495601177,0.027488935738801956,0.03436116874217987
1701981650793604400,4.562604248046875,0.007788531947880983,0.025961773470044136,0.02367102913558483
1701981650810600000,4.579599853515625,-0.0006108652451075613,-0.003512475173920393,0.020311269909143448
1701981650827592200,4.59659228515625,0.001679879380390048,-0.029168816283345222,0.02275473065674305
1701981650844586000,4.6135859375,0.016493361443281174,-0.05543602257966995,0.04932736977934837
1701981650861580800,4.630580810546875,0.024587325751781464,-0.11133018881082535,0.08536841720342636
1701981650878573600,4.647573486328125,0.018936822190880775,-0.21135938167572021,0.09529497474431992
1701981650895567000,4.664567138671875,-0.03481931984424591,-0.35262197256088257,0.07284568250179291
1701981650912561000,4.681560791015625,-0.05803219974040985,-0.24984388053417206,0.12171489745378494
1701981650929555500,4.698555419921875,-0.03833179548382759,-0.09666942805051804,0.21960605680942535
1701981650946548200,4.71554833984375,-0.012675453908741474,-0.17150041460990906,0.15454891324043274
1701981650963542000,4.7325419921875,-0.0027488935738801956,-0.14477506279945374,0.05146539583802223
1701981650980525000,4.749525146484375,-0.013591751456260681,-0.13301590085029602,-0.001832595793530345
1701981650997530400,4.7665302734375,0.00855211354792118,-0.2200642079114914,-0.02535090781748295
1701981651014523100,4.783523193359375,0.006719517521560192,-0.2571742534637451,-0.012675453908741474
1701981651031505400,4.80050537109375,0.00366519158706069,-0.2580905556678772,0.023365596309304237
1701981651048510500,4.817510498046875,0.01878410577774048,-0.2194533348083496,0.06352998316287994
1701981651065505500,4.834505615234375,0.018020525574684143,-0.1742493063211441,0.09025534242391586
1701981651082495500,4.85149560546875,-0.0022907445672899485,-0.08185594528913498,0.09926560521125793
1701981651099494100,4.868494140625,-0.032528575509786606,-0.13897185027599335,0.05955936014652252
1701981651116485400,4.8854853515625,-0.052381694316864014,-0.08597928285598755,0.033139441162347794
1701981651133480200,4.902480224609375,-0.03940080851316452,-0.042760565876960754,0.013286318629980087
1701981651150473000,4.919472900390625,-0.020616702735424042,0.018936822190880775,0.01191187184303999
1701981651167466500,4.936466552734375,0.004734205547720194,0.05711590126156807,0.043676864355802536
1701981651184460300,4.953460205078125,0.01863138936460018,0.04337143152952194,0.07147123664617538
1701981651201468000,4.970468017578125,0.014966198243200779,-0.016493361443281174,0.08429940044879913
1701981651218443800,4.98744384765625,0.01160643994808197,-0.10522153973579407,0.052381694316864014
1701981651235445200,5.0044453125,0.031612277030944824,-0.0705549344420433,0.023518312722444534
1701981651252435000,5.02143505859375,0.03344487398862839,-0.05406157299876213,0.01664607785642147
1701981651269430000,5.038429931640625,0.01618792861700058,-0.001527163083665073,0.03329215571284294
1701981651286421500,5.05542138671875,-0.0024434609804302454,0.029016099870204926,0.03497203439474106
1701981651303417000,5.0724169921875,-0.011759156361222267,0.010537425056099892,0.014966198243200779
1701981651320406500,5.089406494140625,-0.022449297830462456,-0.1368338167667389,-0.01466076634824276
1701981651337403600,5.106403564453125,-0.03756821155548096,-0.24190263450145721,-0.04046982154250145
1701981651354398000,5.12339794921875,-0.003054326167330146,-0.001527163083665073,0.011759156361222267
1701981651371387600,5.1403876953125,-0.001832595793530345,0.029932396486401558,0.056810468435287476
1701981651388384000,5.157384033203125,-0.01970040425658226,-0.05146539583802223,0.10934487730264664
1701981651405369900,5.174369873046875,-0.013286318629980087,-0.14095716178417206,0.10155634582042694
1701981651422368800,5.19136865234375,-0.003359758760780096,-0.10125091671943665,0.04382958263158798
1701981651439364400,5.2083642578125,-0.008399397134780884,-0.01771509274840355,-0.01191187184303999
1701981651456349700,5.225349609375,-0.005497787147760391,0.09056077152490616,-0.012064588256180286
1701981651473355000,5.24235498046875,0.007788531947880983,0.044135015457868576,0.010690141469240189
1701981651490344000,5.259343994140625,0.0025961773935705423,-0.11194105446338654,0.024129176512360573
1701981651507340000,5.276340087890625,-0.02229658141732216,-0.14645494520664215,0.026419922709465027
1701981651524335000,5.293335205078125,-0.021074850112199783,0.12431107461452484,0.05360342562198639
1701981651541325800,5.310325927734375,-0.016798794269561768,0.1492038369178772,0.047189339995384216
1701981651558321000,5.32732080078125,-0.020922135561704636,0.039706241339445114,0.05497787147760391
1701981651575316200,5.344316162109375,-0.016035212203860283,-0.007024950347840786,0.036651913076639175
1701981651592306200,5.36130615234375,-0.012064588256180286,0.10476338863372803,-0.01725694350898266
1701981651609304000,5.378303955078125,-0.007788531947880983,0.15775595605373383,-0.07192938029766083
1701981651626295800,5.3952958984375,-0.0025961773935705423,0.15195272862911224,-0.08032877743244171
1701981651643291400,5.41229150390625,0.0027488935738801956,0.11560624837875366,-0.04352414980530739
1701981651660280600,5.429280517578125,0.006261368747800589,0.01817324012517929,0.003512475173920393
1701981651677278000,5.44627783203125,0.010690141469240189,-0.0708603709936142,0.035582900047302246
1701981651694271000,5.46327099609375,0.0019853119738399982,-0.07681630551815033,0.030695978552103043
1701981651711263200,5.48026318359375,-0.015118914656341076,-0.015271631069481373,-0.006719517521560192
1701981651728258000,5.497258056640625,-0.02886338345706463,0.04260785132646561,-0.04932736977934837
1701981651745254700,5.514254638671875,-0.027183502912521362,0.06017022579908371,-0.07162395119667053
1701981651762243000,5.5312431640625,-0.010842857882380486,0.010537425056099892,-0.05375614017248154
1701981651779240000,5.548239990234375,-0.009621127508580685,-0.076052725315094,-0.0003054326225537807
1701981651796233000,5.56523291015625,-0.006872233934700489,-0.11331550031900406,0.05543602257966995
1701981651813229300,5.582229248046875,-0.0012217304902151227,-0.09269879758358002,0.08399397134780884
1701981651830214100,5.599214111328125,0.0013744467869400978,-0.07681630551815033,0.06398813426494598
1701981651847214000,5.616214111328125,0.005650503560900688,-0.02580905705690384,0.005497787147760391
1701981651864209400,5.63320947265625,0.009162978269159794,0.031001411378383636,-0.05054909735918045
1701981651881200000,5.6502001953125,0.01237002108246088,0.035124752670526505,-0.05955936014652252
1701981651898195500,5.667195556640625,0.00855211354792118,-0.005497787147760391,-0.018020525574684143
1701981651915190500,5.6841904296875,0.0012217304902151227,-0.03130684420466423,0.042760565876960754
1701981651932180200,5.70118017578125,0.004886921960860491,-0.06368270516395569,0.07040221989154816
1701981651949178000,5.71817822265625,0.009162978269159794,-0.07681630551815033,0.04886921867728233
1701981651966170000,5.735170166015625,0.010995574295520782,-0.05619960278272629,0.0022907445672899485
1701981651983165700,5.752165771484375,0.006261368747800589,-0.01572977937757969,-0.032070424407720566
1701981652000155100,5.769155029296875,-0.0024434609804302454,0.02977968007326126,-0.03894266113638878
1701981652017150200,5.786150146484375,0.006261368747800589,0.016340645030140877,-0.029474247246980667
1701981652034147600,5.803147705078125,0.01466076634824276,-0.052839845418930054,-0.010690141469240189
1701981652051133200,5.82013330078125,0.00809396430850029,-0.0685696229338646,0.009773843921720982
1701981652068124700,5.837124755859375,-0.008399397134780884,-0.02519819140434265,0.039248090237379074
1701981652085119000,5.854118896484375,0.013133603148162365,-0.03130684420466423,0.04917465150356293
1701981652102113000,5.871113037109375,0.01970040425658226,-0.0354301854968071,0.041233405470848083
1701981652119113700,5.88811376953125,0.007635815534740686,-0.018325956538319588,0.018325956538319588
1701981652136108000,5.90510791015625,0.007635815534740686,-0.019547687843441963,-0.01924225501716137
1701981652153094100,5.92209423828125,0.022143865004181862,-0.03756821155548096,-0.04489859566092491
1701981652170093000,5.939093017578125,0.03329215571284294,-0.062460970133543015,-0.03833179548382759
1701981652187089700,5.956089599609375,0.032070424407720566,-0.07254024595022202,0
1701981652204084000,5.973083984375,0.021074850112199783,-0.11545353382825851,0.030237829312682152
1701981652221074400,5.990074462890625,0.00045814894838258624,-0.1137736514210701,0.02733621932566166
1701981652238069500,6.007069580078125,-0.016340645030140877,-0.08307767659425735,-0.002138028386980295
1701981652255065000,6.024065185546875,-0.012980886735022068,-0.08918632566928864,-0.048716504126787186
1701981652272051200,6.04105126953125,-0.0012217304902151227,-0.13087788224220276,-0.09437867999076843
1701981652289060400,6.058060302734375,-0.040164388716220856,-0.20876319706439972,-0.1595885455608368
1701981652306044400,6.07504443359375,-0.013133603148162365,0.18829920887947083,-0.08552113175392151
1701981652323030800,6.09203076171875,-0.010842857882380486,0.18081611394882202,-0.012675453908741474
1701981652340022800,6.109022705078125,-0.04245513305068016,0.076052725315094,0.0907134860754013
1701981652357026600,6.126026611328125,-0.017562376335263252,-0.15302173793315887,0.11728613078594208
1701981652374021000,6.143021240234375,0.02932153269648552,-0.18188512325286865,0.0529925599694252
1701981652391010600,6.160010498046875,0.044287730008363724,-0.01970040425658226,-0.04612032696604729
1701981652408007000,6.1770068359375,0.04444044828414917,0.17837265133857727,-0.08796459436416626
1701981652425003000,6.1940029296875,0.03176499158143997,0.128434419631958,-0.060933809727430344
1701981652441991700,6.21099169921875,0.012980886735022068,-0.05268712714314461,-0.006719517521560192
1701981652458988800,6.22798876953125,-0.0022907445672899485,-0.22388210892677307,0.006719517521560192
1701981652475982000,6.244982177734375,-0.030237829312682152,-0.27947086095809937,-0.03573561832308769
1701981652492977400,6.261977294921875,-0.03985895588994026,0.12889257073402405,-0.01160643994808197
1701981652509966800,6.278966796875,-0.020616702735424042,0.1241583600640297,-0.003359758760780096
1701981652526962700,6.295962646484375,-0.015882495790719986,-0.009926560334861279,0.05543602257966995
1701981652543958300,6.312958251953125,-0.005650503560900688,-0.17730364203453064,0.078343465924263
1701981652560949000,6.329948974609375,-0.007941247895359993,-0.09346238523721695,0.051312681287527084
1701981652577944000,6.346944091796875,-0.005650503560900688,-0.007635815534740686,-0.03130684420466423
1701981652594939400,6.363939453125,0,0.033139441162347794,-0.09605856239795685
1701981652611928800,6.3809287109375,0.0065668015740811825,0.07330382615327835,-0.09392052888870239
1701981652628927000,6.397927001953125,0.008399397134780884,0.03634648025035858,-0.0403171069920063
1701981652645918700,6.414918701171875,0.006261368747800589,-0.046731192618608475,0.021380282938480377
1701981652662914000,6.4319140625,0.0013744467869400978,-0.08491026610136032,0.059864792972803116
1701981652679896600,6.448896484375,0.00045814894838258624,-0.09957103431224823,0.039248090237379074
1701981652696902100,6.465902099609375,0.004886921960860491,-0.09865473955869675,-0.02168571576476097
1701981652713890800,6.482890869140625,0.016951510682702065,-0.08292495459318161,-0.08002334833145142
1701981652730886400,6.499886474609375,0.028405234217643738,-0.06230825558304787,-0.09392052888870239
1701981652747884300,6.51688427734375,0.029626963660120964,-0.04306599870324135,-0.05910121276974678
1701981652764877000,6.533876953125,0.022907447069883347,-0.052839845418930054,-0.011759156361222267
1701981652781866200,6.5508662109375,0.010231993161141872,-0.05421429127454758,0.02580905705690384
1701981652798863400,6.56786328125,-0.0006108652451075613,-0.03848451003432274,0.042760565876960754
1701981652815855900,6.58485595703125,0.004581489134579897,-0.04260785132646561,0.01863138936460018
1701981652832851500,6.6018515625,0.007177666760981083,-0.024434609338641167,-0.030237829312682152
1701981652849837300,6.61883740234375,0.006872233934700489,0.012522737495601177,-0.06291911751031876
1701981652866839800,6.63583984375,0.0025961773935705423,0.03481931984424591,-0.048716504126787186
1701981652883829500,6.65282958984375,0.0027488935738801956,0.017409659922122955,-0.0013744467869400978
1701981652900823600,6.669823486328125,0.014813481830060482,-0.057879481464624405,0.03573561832308769
1701981652917817600,6.686817626953125,0.021532999351620674,-0.09804387390613556,0.04306599870324135
1701981652934817000,6.703817138671875,0.018936822190880775,-0.07788532227277756,0.024129176512360573
1701981652951804200,6.72080419921875,0.007941247895359993,-0.05711590126156807,-0.00045814894838258624
1701981652968802000,6.737802001953125,-0.003512475173920393,-0.04734205827116966,-0.02275473065674305
1701981652985788400,6.754788330078125,-0.0009162978967651725,-0.061391957104206085,-0.04092797264456749
1701981653002785000,6.771784912109375,0.019089538604021072,-0.08292495459318161,-0.037110064178705215
1701981653019771100,6.788771240234375,0.03527746722102165,-0.17027868330478668,-0.007941247895359993
1701981653036775400,6.805775390625,0.03130684420466423,-0.3706424832344055,0.06383541971445084
1701981653053770000,6.82277001953125,-0.0003054326225537807,-0.5674937963485718,0.16600263118743896
1701981653070752300,6.839752197265625,-0.031612277030944824,-0.6907358765602112,0.23136521875858307
1701981653087755800,6.856755859375,-0.0328340083360672,-0.7082982659339905,0.2122756689786911
1701981653104751900,6.873751953125,0,-0.6766859889030457,0.13484850525856018
1701981653121740500,6.890740478515625,0.014202617108821869,-0.6068946123123169,0.08720101416110992
1701981653138737400,6.9077373046875,-0.015882495790719986,-0.6247624158859253,0.06979135423898697
1701981653155728000,6.924727783203125,-0.036041051149368286,-0.6443101167678833,0.08765916526317596
1701981653172726300,6.941726318359375,-0.05451972410082817,-0.6400340795516968,0.13775011897087097
1701981653189718500,6.958718505859375,-0.0757472887635231,-0.6224716901779175,0.19028452038764954
1701981653206711600,6.975711669921875,-0.09056077152490616,-0.564592182636261,0.20036379992961884
1701981653223706000,6.9927060546875,-0.07880161702632904,-0.3110831379890442,0.031001411378383636
1701981653240695300,7.0096953125,-0.05467243865132332,0.096211276948452,-0.14782938361167908
1701981653257695200,7.0266953125,0.010079276748001575,0.3972151279449463,-0.13866640627384186
1701981653274687700,7.043687744140625,0.017409659922122955,0.48426342010498047,-0.10201449692249298
1701981653291677700,7.060677734375,-0.02626720629632473,0.5293147563934326,-0.12140946835279465
1701981653308675800,7.07767578125,-0.05726861581206322,0.7568620443344116,-0.22571471333503723
1701981653325667800,7.094667724609375,-0.04444044828414917,0.8709411025047302,-0.43447789549827576
1701981653342659600,7.11165966796875,-0.01572977937757969,1.1023063659667969,-0.5656611919403076
1701981653359656000,7.128656005859375,0.021380282938480377,1.2220358848571777,-0.5942191481590271
1701981653376649700,7.145649658203125,0.06108652427792549,1.244943380355835,-0.5366451144218445
1701981653393632800,7.1626328125,0.06322455406188965,1.1264355182647705,-0.45066583156585693
1701981653410632200,7.179632080078125,0.04184427112340927,0.8477282524108887,-0.4066835343837738
1701981653427632600,7.196632568359375,-0.018478672951459885,0.5826127529144287,-0.365755558013916
1701981653444626400,7.21362646484375,-0.05726861581206322,0.5206099152565002,-0.2765692472457886
1701981653461608000,7.23060791015625,-0.07895433157682419,0.4616613984107971,-0.25335636734962463
1701981653478611200,7.247611083984375,-0.059406645596027374,0.45494189858436584,-0.3029891550540924
1701981653495605500,7.26460546875,-0.030237829312682152,0.49846604466438293,-0.32559117674827576
1701981653512597000,7.281596923828125,0.006108652334660292,0.5564982295036316,-0.24434609711170197
1701981653529592800,7.2985927734375,-0.07376197725534439,0.6960809230804443,0.03237585723400116
1701981653546587000,7.3155869140625,-0.1437060534954071,0.1921171247959137,0.12308934330940247
1701981653563570000,7.33256982421875,-0.10064005106687546,-0.20754146575927734,0.13637566566467285
1701981653580572200,7.349572265625,-0.09224065393209457,-0.3917173445224762,0.09743300825357437
1701981653597568000,7.366568115234375,-0.07559457421302795,-0.13668109476566315,0.04795292019844055
1701981653614552600,7.383552490234375,-0.06475171446800232,0.2877175211906433,-0.022602014243602753
1701981653631548700,7.400548583984375,-0.021380282938480377,0.3920227587223053,-0.15393804013729095
1701981653648552000,7.417552001953125,-0.019547687843441963,0.3419318199157715,-0.24297164380550385
1701981653665543700,7.434543701171875,-0.026114489883184433,0.30024027824401855,-0.21884247660636902
1701981653682533000,7.451533203125,-0.01618792861700058,0.27977627515792847,-0.08460483700037003
1701981653699530200,7.4685302734375,-0.01664607785642147,0.21349740028381348,0.08949175477027893
1701981653716524300,7.485524169921875,-0.02382374368607998,0.11545353382825851,0.22937989234924316
1701981653733518600,7.5025185546875,-0.020311269909143448,0.005803219974040985,0.2551889419555664
1701981653750508000,7.519508056640625,0.003054326167330146,-0.021074850112199783,0.18967366218566895
1701981653767504100,7.536504150390625,0.026419922709465027,-0.014355333521962166,0.10231992602348328
1701981653784488000,7.553488037109375,0.06780604273080826,-0.0555887371301651,0.09376781433820724
1701981653801492000,7.570491943359375,0.08002334833145142,-0.144622340798378,0.2028072625398636
1701981653818485500,7.587485595703125,0.040164388716220856,-0.21319197118282318,0.3149010241031647
1701981653835481300,7.6044814453125,-0.006261368747800589,-0.2379320114850998,0.3530801236629486
1701981653852471300,7.62147119140625,-0.016493361443281174,-0.1736384481191635,0.33108896017074585
1701981653869469200,7.63846923828125,0.00045814894838258624,-0.07925976812839508,0.29397889971733093
1701981653886451000,7.655450927734375,0.038179077208042145,-0.006872233934700489,0.24724771082401276
1701981653903455700,7.672455810546875,0.0708603709936142,0.098502017557621,0.14340060949325562
1701981653920446500,7.689446533203125,0.09040805697441101,0.28466320037841797,0.02474004216492176
1701981653937441500,7.706441650390625,0.05497787147760391,0.38148534297943115,0.0007635815418325365
1701981653954436900,7.723436767578125,0.06062837690114975,0.542142927646637,0.055741455405950546
1701981653971426600,7.740426513671875,0.059864792972803116,0.8810204267501831,0.0806342139840126
1701981653988424000,7.757423828125,0.08597928285598755,1.0560332536697388,0.1281289905309677
1701981654005418000,7.77441796875,0.19028452038764954,1.0279334783554077,0.23625212907791138
1701981654022407700,7.79140771484375,0.25014930963516235,0.8617781400680542,0.31932979822158813
1701981654039405300,7.8084052734375,0.22876903414726257,0.5943718552589417,0.3107776939868927
1701981654056396800,7.825396728515625,0.21288654208183289,0.20983220636844635,0.22846360504627228
1701981654073394700,7.842394775390625,0.11224649101495743,-0.14187344908714294,-0.01924225501716137
1701981654090376000,7.8593759765625,0.08704829961061478,-0.0858265683054924,-0.18829920887947083
1701981654107378700,7.876378662109375,0.03222314268350601,0.10293079167604446,-0.21303924918174744
1701981654124375000,7.893375,-0.05345070734620094,0.1365283876657486,-0.194713294506073
1701981654141363700,7.91036376953125,-0.03878994286060333,0.2672535479068756,-0.2064724564552307
1701981654158359800,7.92735986328125,0.015882495790719986,0.5400048494338989,-0.2483167201280594
1701981654175352600,7.9443525390625,0.1281289905309677,0.8462010622024536,-0.3049744665622711
1701981654192349000,7.961348876953125,0.2165517359972,0.9932668805122375,-0.1846340149641037
1701981654209341700,7.978341796875,0.17928895354270935,0.7950411438941956,0.11239920556545258
1701981654226334700,7.995334716796875,0.11942415684461594,0.5091561675071716,0.4086688458919525
1701981654243330300,8.012330322265624,0.043676864355802536,-0.2932153046131134,0.37308594584465027
1701981654260315400,8.0293154296875,-0.0027488935738801956,-0.8437576293945312,0.1966986060142517
1701981654277316000,8.046316162109376,-0.04749477282166481,-0.6948592066764832,0.035582900047302246
1701981654294311200,8.063311279296874,-0.10064005106687546,-0.18600846827030182,-0.03695734590291977
1701981654311297300,8.08029736328125,-0.18738290667533875,-0.22540926933288574,-0.10720685124397278
1701981654328298200,8.09729833984375,-0.26022860407829285,-0.5389358401298523,-0.09453139454126358
1701981654345292500,8.11429248046875,-0.28848111629486084,-1.0708467960357666,0.26221391558647156
1701981654362282000,8.131281982421875,-0.22021691501140594,-0.8213083148002625,0.2961169183254242
1701981654379279000,8.148279052734376,-0.1849394589662552,-0.36392298340797424,0.11209376901388168
1701981654396273200,8.165273193359376,-0.08949175477027893,0.0907134860754013,-0.10094548016786575
1701981654413267500,8.182267333984376,0.026419922709465027,0.35842517018318176,-0.2370157092809677
1701981654430259700,8.199259765625,0.10522153973579407,0.3300199508666992,-0.2565633952617645
1701981654447253200,8.216253173828125,0.1160643994808197,0.14782938361167908,0.032681290060281754
1701981654464249600,8.23324951171875,0.08827003091573715,-0.3871358633041382,0.15546520054340363
1701981654481231400,8.2502314453125,0.06276640295982361,-0.5016731023788452,0.16065755486488342
1701981654498234000,8.267234130859375,-0.002138028386980295,-0.19898934662342072,0.07742717117071152
1701981654515229700,8.284229736328125,-0.027183502912521362,0.14492778480052948,0.009926560334861279
1701981654532220400,8.301220458984375,-0.052228979766368866,0.24419337511062622,-0.13836097717285156
1701981654549216300,8.31821630859375,-0.03420845419168472,0.22220222651958466,-0.26969701051712036
1701981654566207500,8.33520751953125,0.006872233934700489,0.2154827117919922,-0.28848111629486084
1701981654583206400,8.352206298828126,0.08521570265293121,0.20112738013267517,-0.23945917189121246
1701981654600195300,8.3691953125,0.15561792254447937,0.266642689704895,-0.10537425428628922
1701981654617190400,8.3861904296875,0.1739438772201538,0.2945897579193115,0.07422012835741043
1701981654634183400,8.403183349609375,0.13973543047904968,0.3352122902870178,0.23487769067287445
1701981654651176000,8.420176025390624,0.08735372871160507,0.4080579876899719,0.3090978264808655
1701981654668172500,8.437172607421875,0.02779436856508255,0.2750420868396759,0.24113905429840088
1701981654685167000,8.4541669921875,0.018020525574684143,-0.18325957655906677,0.0659734457731247
1701981654702149400,8.4711494140625,0.016340645030140877,-0.34697145223617554,-0.054825156927108765
1701981654719151900,8.48815185546875,0.006108652334660292,-0.1843285858631134,-0.10949759185314178
1701981654736150300,8.505150390625,-0.048258353024721146,0.021838432177901268,-0.1368338167667389
1701981654753152000,8.522152099609375,-0.15531249344348907,-0.11850785464048386,-0.19517144560813904
1701981654770124300,8.539124267578124,-0.25671613216400146,-0.2825251817703247,-0.1915062516927719
1701981654787125000,8.556125,-0.2900082767009735,-0.8290968537330627,0.19975294172763824
1701981654804123100,8.573123046875,-0.18478673696517944,-0.679740309715271,0.31459560990333557
1701981654821116200,8.5901162109375,-0.1511891484260559,-0.24877487123012543,0.20082195103168488
1701981654838111000,8.607111083984375,-0.09056077152490616,0.12324206531047821,0.07956519722938538
1701981654855107600,8.624107666015625,0.009162978269159794,0.289702832698822,-0.055283304303884506
1701981654872095700,8.641095703125,0.10064005106687546,0.2278527319431305,-0.16737708449363708
1701981654889092900,8.6580927734375,0.14614951610565186,0.08659014850854874,0.011759156361222267
1701981654906083300,8.675083251953126,0.08200865983963013,-0.28695395588874817,0.15073099732398987
1701981654923079200,8.6920791015625,0.06582073122262955,-0.34284812211990356,0.14034628868103027
1701981654940067000,8.709067138671875,0.01664607785642147,-0.1359175145626068,0.11621711403131485
1701981654957065700,8.726065673828124,-0.005497787147760391,0.1082758679986,0.1270599663257599
1701981654974062000,8.74306201171875,-0.017867809161543846,0.19135354459285736,0.08964447677135468
1701981654991049700,8.7600498046875,-0.060322944074869156,0.10995574295520782,-0.08200865983963013
1701981655008047000,8.777047119140626,-0.031001411378383636,0.029626963660120964,-0.19288070499897003
1701981655025041700,8.794041748046874,-0.022143865004181862,-0.027183502912521362,-0.15821409225463867
1701981655042031000,8.811031005859375,-0.029168816283345222,-0.10399980843067169,-0.018020525574684143
1701981655059028000,8.828028076171876,-0.02886338345706463,-0.15317445993423462,0.15882496535778046
1701981655076022000,8.84502197265625,-0.052839845418930054,-0.44852781295776367,0.4063780903816223
1701981655093027300,8.86202734375,-0.031154127791523933,-0.3286454975605011,0.5418374538421631
1701981655110006000,8.879006103515625,-0.03741549700498581,-0.09972374886274338,0.42210787534713745
1701981655127004000,8.89600390625,0.012828170321881771,0.06505715101957321,0.21792617440223694
1701981655143998700,8.912998779296874,0.06627888232469559,0.11499538272619247,0.012522737495601177
1701981655160987100,8.929987060546875,0.09178250283002853,0.1371392458677292,-0.17409659922122955
1701981655177983500,8.9469833984375,0.10018189996480942,0.265573650598526,-0.24404066801071167
1701981655194978800,8.963978759765626,0.024587325751781464,0.34345898032188416,-0.14676037430763245
1701981655211969800,8.9809697265625,0.03191770985722542,-0.0025961773935705423,-0.04734205827116966
1701981655228965400,8.99796533203125,0.013439035043120384,-0.25305092334747314,0.06276640295982361
1701981655245958400,9.01495849609375,-0.048258353024721146,-0.16310101747512817,0.10064005106687546
1701981655262954000,9.0319541015625,-0.06658431142568588,-0.09804387390613556,-0.04902193695306778
1701981655279944400,9.0489443359375,-0.01771509274840355,-0.07208210229873657,-0.28817567229270935
1701981655296930300,9.065930419921875,0.0377209298312664,0.07360926270484924,-0.3556762933731079
1701981655313934800,9.082934814453125,0.05772676691412926,0.19486601650714874,-0.1895209401845932
1701981655330924300,9.09992431640625,0.050243668258190155,0.11530081182718277,0.058184914290905
1701981655347915300,9.116915283203125,0.04841107130050659,0.025045474991202354,0.26083946228027344
1701981655364913400,9.133913330078125,0.00931569468230009,0.0065668015740811825,0.3474296033382416
1701981655381906200,9.15090625,-0.0027488935738801956,-0.29504790902137756,0.197004035115242
1701981655398902300,9.16790234375,-0.01878410577774048,-0.40256020426750183,-0.0913243517279625
1701981655415897000,9.18489697265625,-0.07269296050071716,0.006108652334660292,-0.32330042123794556
1701981655432901600,9.201901611328125,-0.13179416954517365,0.35643985867500305,-0.43386703729629517
1701981655449885700,9.2188857421875,-0.1537853181362152,0.3897320330142975,-0.5106833577156067
1701981655466878700,9.235878662109375,-0.15363261103630066,0.2428189367055893,-0.4057672321796417
1701981655483872500,9.25287255859375,-0.1287398487329483,0.021991148591041565,-0.17989981174468994
1701981655500859100,9.269859130859375,-0.09346238523721695,-0.1547016203403473,0.018478672951459885
1701981655517860900,9.28686083984375,-0.07437284290790558,-0.17669276893138885,0.10720685124397278
1701981655534858800,9.303858642578126,-0.014355333521962166,-0.10018189996480942,0.09239336848258972
1701981655551846700,9.3208466796875,0.0503963828086853,0.051312681287527084,0.1820378452539444
1701981655568836900,9.3378369140625,0.0074830991216003895,-0.13775011897087097,0.2243402600288391
1701981655585822700,9.35482275390625,0.02275473065674305,-0.27229318022727966,0.01542434748262167
1701981655602827300,9.3718271484375,-0.006108652334660292,-0.11957687139511108,-0.12018773704767227
1701981655619819500,9.388819580078126,-0.021380282938480377,0.04214970022439957,-0.058795779943466187
1701981655636814600,9.405814697265624,-0.02474004216492176,-0.003359758760780096,0.014202617108821869
1701981655653812500,9.4228125,-0.01878410577774048,-0.021991148591041565,-0.0074830991216003895
1701981655670800000,9.4397998046875,0.022602014243602753,0.05406157299876213,-0.06215553730726242
1701981655687797200,9.45679736328125,0.07757988572120667,0.09208793938159943,-0.08246681094169617
1701981655704790800,9.473790771484374,0.12217304855585098,0.1699732542037964,0.0006108652451075613
1701981655721780000,9.490780029296875,0.13454307615756989,0.20234911143779755,0.13408492505550385
1701981655738768100,9.50776806640625,0.09987647086381912,0.3972151279449463,0.34926220774650574
1701981655755771400,9.524771484375,0.04764748737215996,0.20051652193069458,0.26343563199043274
1701981655772765400,9.541765380859376,0.01710422709584236,0.1823432743549347,0.003054326167330146
1701981655789758700,9.5587587890625,0.052228979766368866,0.607200026512146,-0.11453723162412643
1701981655806749000,9.5757490234375,0.09911288321018219,0.9295842051506042,0.044745877385139465
1701981655823750100,9.592750244140625,0.1368338167667389,0.7530441284179688,0.15714508295059204
1701981655840736500,9.609736572265625,0.1598939746618271,0.7063129544258118,0.19608774781227112
1701981655857730800,9.626730712890625,0.12599095702171326,0.7451028823852539,0.14340060949325562
1701981655874721300,9.64372119140625,0.06627888232469559,0.6194173693656921,0.05696318298578262
1701981655891721000,9.660720947265625,0.05742133408784866,0.3306308090686798,0.040164388716220856
1701981655908714500,9.677714599609375,0.036193765699863434,-0.05207626149058342,0.11010845750570297
1701981655925708800,9.694708740234375,0.029474247246980667,-0.3425426781177521,0.2773328125476837
1701981655942708700,9.711708740234375,0.010995574295520782,-0.675616979598999,0.16462817788124084
1701981655959696600,9.728696533203125,0.017409659922122955,-0.531758189201355,-0.060933809727430344
1701981655976688600,9.745688720703125,-0.024587325751781464,-0.3254384696483612,-0.14416420459747314
1701981655993684000,9.76268408203125,-0.11820242553949356,-0.4363104999065399,-0.07360926270484924
1701981656010673700,9.779673583984374,-0.26053401827812195,-0.5942191481590271,-0.025961773470044136
1701981656027670800,9.7966708984375,-0.3439171314239502,-0.698066234588623,-0.007941247895359993
1701981656044665000,9.8136650390625,-0.31444287300109863,-0.6696610450744629,0.0065668015740811825
1701981656061655300,9.8306552734375,-0.23976461589336395,-0.42959097027778625,-0.07437284290790558
1701981656078653000,9.84765283203125,-0.1589776873588562,-0.14828753471374512,-0.14874568581581116
1701981656095645700,9.864645751953125,-0.08368854224681854,0.0003054326225537807,-0.07101308554410934
1701981656112635600,9.8816357421875,0.023518312722444534,-0.007024950347840786,0.2330450862646103
1701981656129630200,9.898630126953124,-0.015118914656341076,-0.5085453391075134,0.3701843321323395
1701981656146628400,9.91562841796875,-0.008246680721640587,-0.7619016766548157,0.19898934662342072
1701981656163622400,9.932622314453125,-0.05360342562198639,-0.5259549617767334,-0.009468411095440388
1701981656180610800,9.94961083984375,-0.08750644326210022,-0.1310305893421173,-0.09056077152490616
1701981656197605600,9.966605712890624,-0.10293079167604446,-0.030543262138962746,-0.049785517156124115
1701981656214601700,9.983601806640625,-0.09315694868564606,-0.16294831037521362,-0.07788532227277756
1701981656231593000,10.000593017578124,-0.06459899991750717,-0.206777885556221,-0.1514945775270462
1701981656248592400,10.01759228515625,-0.035582900047302246,-0.2252565622329712,-0.039706241339445114
1701981656265579500,10.03457958984375,0.020311269909143448,-0.23625212907791138,0.09392052888870239
1701981656282573600,10.051573486328126,0.05100724846124649,0.16752979159355164,-0.03222314268350601
1701981656299571200,10.0685712890625,0.046273041516542435,0.5148066878318787,-0.12568552792072296
1701981656316564500,10.085564453125,0.13805554807186127,0.5177083015441895,-0.11530081182718277
1701981656333558300,10.102558349609374,0.206777885556221,0.3217732608318329,-0.08216137439012527
1701981656350550800,10.11955078125,0.18768835067749023,0.21334469318389893,-0.07712173461914062
1701981656367543600,10.13654345703125,0.11423180252313614,0.23396138846874237,-0.08109235763549805
1701981656384541700,10.153541748046875,0.05803219974040985,0.192422553896904,-0.03940080851316452
1701981656401529300,10.170529296875,0.020463986322283745,0.18860463798046112,0.032528575509786606
1701981656418525400,10.187525390625,0.008399397134780884,0.22388210892677307,0.11056660860776901
1701981656435522000,10.20452197265625,0.02535090781748295,0.14065171778202057,0.18570303916931152
1701981656452511700,10.22151171875,0.01878410577774048,-0.3295617997646332,0.5267185568809509
1701981656469507600,10.238507568359376,0.0010690141934901476,0.13484850525856018,0.3732386529445648
1701981656486491100,10.2554912109375,0.025045474991202354,0.4444044530391693,-0.002138028386980295
1701981656503497200,10.272497314453124,0.05207626149058342,0.531147301197052,-0.20387627184391022
1701981656520489000,10.289489013671876,0.07880161702632904,0.37369680404663086,-0.27519479393959045
1701981656537482800,10.306482666015626,0.11148291081190109,0.21762074530124664,-0.24877487123012543
1701981656554476300,10.323476318359376,0.13820825517177582,0.19578230381011963,-0.1440114825963974
1701981656571471000,10.34047119140625,0.14813482761383057,0.154396191239357,-0.006719517521560192
1701981656588476700,10.3574765625,0.14798210561275482,0.06398813426494598,0.08536841720342636
1701981656605444400,10.3744443359375,0.10277807712554932,0.06291911751031876,0.060475658625364304
1701981656622448600,10.39144873046875,0.032528575509786606,0.15577064454555511,-0.02733621932566166
1701981656639448600,10.408448486328124,0.011453723534941673,0.10415252298116684,-0.0936150997877121
1701981656656438800,10.425438720703125,0.019853120669722557,0.03344487398862839,-0.08002334833145142
1701981656673433600,10.44243359375,0.02428189292550087,-0.02474004216492176,-0.008246680721640587
1701981656690425600,10.459425537109375,0.02367102913558483,-0.023365596309304237,0.04505131021142006
1701981656707421000,10.4764208984375,0.01160643994808197,-0.005345070734620094,0.036041051149368286
1701981656724413700,10.49341357421875,0.013133603148162365,-0.018936822190880775,-0.02229658141732216
1701981656741407500,10.510407470703125,0.031001411378383636,0.0024434609804302454,-0.052381694316864014
1701981656758401000,10.527401123046875,0.06276640295982361,0.08048149943351746,-0.04230241850018501
1701981656775395800,10.544395751953125,0.08078692853450775,0.14737124741077423,0.009010262787342072
1701981656792388600,10.561388671875,0.06459899991750717,0.11927144229412079,0.08827003091573715
1701981656809382100,10.578382080078125,0.023365596309304237,0.004581489134579897,0.1088867336511612
1701981656826376200,10.595376220703125,-0.005497787147760391,-0.05360342562198639,0.06948592513799667
1701981656843368200,10.6123681640625,-0.01237002108246088,-0.056352317333221436,-0.005039638374000788
1701981656860366000,10.629365966796875,-0.001679879380390048,-0.013591751456260681,-0.09789115190505981
1701981656877357300,10.646357421875,-0.003817907767370343,0.027030786499381065,-0.154396191239357
1701981656894351000,10.66335107421875,-0.014508049935102463,0.036651913076639175,-0.1342376321554184
1701981656911345700,10.680345703125,-0.02076941914856434,-0.028557950630784035,-0.058795779943466187
1701981656928338400,10.69733837890625,-0.0328340083360672,-0.13041973114013672,-0.025503624230623245
1701981656945332200,10.714332275390625,-0.03695734590291977,-0.20784689486026764,-0.027030786499381065
1701981656962326000,10.731325927734375,-0.05100724846124649,-0.24205535650253296,-0.03130684420466423
1701981656979310300,10.748310302734374,-0.04489859566092491,-0.24068090319633484,0.001679879380390048
1701981656996313300,10.765313232421875,-0.03329215571284294,-0.10934487730264664,0.05146539583802223
1701981657013296600,10.782296630859374,-0.013744467869400978,0.03894266113638878,0.07467827945947647
1701981657030301000,10.799301025390625,0.030695978552103043,0.06459899991750717,0.09773843735456467
1701981657047292700,10.816292724609376,0.05207626149058342,0.033139441162347794,0.14844025671482086
1701981657064291300,10.833291259765625,0.004428773187100887,-0.042760565876960754,0.19074267148971558
1701981657081282000,10.850281982421874,-0.031612277030944824,-0.21303924918174744,0.11957687139511108
1701981657098275600,10.867275634765624,-0.04612032696604729,-0.13836097717285156,0.07101308554410934
1701981657115271000,10.88427099609375,-0.08765916526317596,-0.20845776796340942,0.09468411654233932
1701981657132263400,10.901263427734374,-0.1010981947183609,-0.5403103232383728,0.10995574295520782
1701981657149257000,10.918257080078124,-0.12293662875890732,-0.9903652667999268,0.182648703455925
1701981657166250800,10.935250732421874,-0.1290452778339386,-1.2880094051361084,0.3878994286060333
1701981657183243800,10.952243896484376,-0.15317445993423462,-1.4144585132598877,0.5389358401298523
1701981657200238300,10.96923828125,-0.14874568581581116,-1.2985467910766602,0.5059491395950317
1701981657217232000,10.98623193359375,-0.1270599663257599,-1.1203268766403198,0.35094207525253296
1701981657234225700,11.0032255859375,-0.07192938029766083,-0.9387471675872803,0.18875735998153687
1701981657251220200,11.02022021484375,-0.031001411378383636,-0.7695375084877014,0.10613783448934555
1701981657268213200,11.037213134765626,-0.028099801391363144,-0.5458080768585205,0.02474004216492176
1701981657285196800,11.05419677734375,-0.05803219974040985,-0.2528982162475586,-0.06368270516395569
1701981657302200600,11.07120068359375,-0.06291911751031876,0.048105638474226,-0.11194105446338654
1701981657319195600,11.088195556640626,-0.036193765699863434,0.1895209401845932,-0.08933904021978378
1701981657336188200,11.105188232421876,0.024129176512360573,0.3013092875480652,-0.11285735666751862
1701981657353181700,11.122181640625,0.04932736977934837,0.4905247986316681,-0.20433442294597626
1701981657370165000,11.1391650390625,0.05192354694008827,0.5002986192703247,-0.2565633952617645
1701981657387170800,11.1561708984375,0.058337632566690445,0.49754974246025085,-0.2503020465373993
1701981657404163000,11.1731630859375,0.08552113175392151,0.4489859640598297,-0.21563543379306793
1701981657421156900,11.190156982421875,0.10247264802455902,0.3804163336753845,-0.15561792254447937
1701981657438147800,11.20714794921875,0.08292495459318161,0.2912299931049347,-0.08155050873756409
1701981657455147800,11.224147705078124,0.044745877385139465,0.28298333287239075,-0.042760565876960754
1701981657472138000,11.241137939453125,0.027183502912521362,0.30543261766433716,-0.058184914290905
1701981657489132000,11.258132080078125,0.02382374368607998,0.327271044254303,-0.06734789162874222
1701981657506115800,11.27511572265625,0.0377209298312664,0.45005497336387634,-0.05406157299876213
1701981657523120400,11.292120361328125,0.050854530185461044,0.5416847467422485,-0.08155050873756409
1701981657540113200,11.309113037109375,0.04642575979232788,0.6007859706878662,-0.08933904021978378
1701981657557106700,11.326106689453125,0.024587325751781464,0.5326744914054871,-0.04688390716910362
1701981657574100500,11.3431005859375,0.029474247246980667,0.49693888425827026,0.013439035043120384
1701981657591095300,11.36009521484375,0.08567385375499725,0.49846604466438293,0.016340645030140877
1701981657608087800,11.377087890625,0.15073099732398987,0.49128836393356323,-0.020005837082862854
1701981657625071000,11.394071044921875,0.16279558837413788,0.49327367544174194,-0.03222314268350601
1701981657642075400,11.411075439453125,0.16951510310173035,0.5303837656974792,0.035124752670526505
1701981657659070000,11.428070068359375,0.17058411240577698,0.48945578932762146,0.13209961354732513
1701981657676074800,11.44507470703125,0.12202033400535583,0.23136521875858307,0.18967366218566895
1701981657693056500,11.462056396484375,0.09865473955869675,-0.34147366881370544,0.10216721147298813
1701981657710050300,11.47905029296875,0.04337143152952194,-0.4963280260562897,-0.030237829312682152
1701981657727045000,11.496045166015625,-0.035124752670526505,-0.23777928948402405,-0.1411098688840866
1701981657744038000,11.513037841796875,-0.09804387390613556,-0.19883663952350616,-0.21731531620025635
1701981657761019000,11.530018798828126,-0.13836097717285156,-0.23197607696056366,-0.14187344908714294
1701981657778027800,11.54702783203125,-0.2177734673023224,-0.27550023794174194,0.11224649101495743
1701981657795020000,11.56402001953125,-0.260992169380188,-0.4196644127368927,0.3660610020160675
1701981657812012800,11.5810126953125,-0.23273965716362,-0.3358231782913208,0.34636059403419495
1701981657829006300,11.59800634765625,-0.14813482761383057,-0.032528575509786606,0.04505131021142006
1701981657846000000,11.615000244140624,-0.05451972410082817,0.3292563557624817,-0.2119702398777008
1701981657862995200,11.6319951171875,0.01542434748262167,0.4518875777721405,-0.2971859276294708
1701981657879985200,11.648985107421876,0.03848451003432274,0.32391130924224854,-0.009162978269159794
1701981657896984000,11.665984130859375,0.028557950630784035,-0.18417587876319885,0.003054326167330146
1701981657913975000,11.68297509765625,0.03695734590291977,-0.2733621895313263,-0.034666601568460464
1701981657930969900,11.699969970703124,-0.018325956538319588,-0.05314527451992035,-0.02168571576476097
1701981657947962600,11.716962646484374,-0.0780380368232727,0.11041389405727386,0.04444044828414917
1701981657964956400,11.733956298828126,-0.08368854224681854,0.04077525436878204,-0.012828170321881771
1701981657981950200,11.7509501953125,-0.026114489883184433,-0.039095375686883926,-0.12079860270023346
1701981657998945000,11.767945068359374,0.019089538604021072,-0.260992169380188,0.12308934330940247
1701981658015937500,11.7849375,0.07559457421302795,0.2819143235683441,0.0809396430850029
1701981658032931300,11.801931396484376,0.09453139454126358,0.6064364910125732,-0.03222314268350601
1701981658049925000,11.818925048828126,0.14385876059532166,0.546571671962738,-0.01725694350898266
1701981658066920000,11.835919921875,0.22449298202991486,0.29397889971733093,0.060475658625364304
1701981658083912700,11.85291259765625,0.17791450023651123,-0.13118331134319305,0.020616702735424042
1701981658100906200,11.86990625,0.04612032696604729,-0.31444287300109863,-0.17470745742321014
1701981658117910300,11.88691015625,-0.04230241850018501,-0.022907447069883347,-0.2587014436721802
1701981658134894300,11.903894287109376,-0.13148874044418335,0.11911872029304504,-0.17516560852527618
1701981658151892200,11.920892333984375,-0.164170041680336,0.010537425056099892,-0.12782354652881622
1701981658168881700,11.937881591796875,-0.06459899991750717,0.006108652334660292,-0.1440114825963974
1701981658185864000,11.954864013671875,0.05161811411380768,0.07360926270484924,-0.18051068484783173
1701981658202870800,11.971870849609376,0.1359175145626068,0.14905111491680145,-0.12858712673187256
1701981658219862500,11.988862548828125,0.11514809727668762,0.18616119027137756,0.03695734590291977
1701981658236856300,12.005856201171875,0.07559457421302795,0.2025018334388733,0.16951510310173035
1701981658253850000,12.02285009765625,0.07422012835741043,0.2733621895313263,0.2405281960964203
1701981658270844700,12.0398447265625,0.03344487398862839,0.055741455405950546,0.24068090319633484
1701981658287837700,12.056837646484375,0.03940080851316452,-0.26282477378845215,0.11255192011594772
1701981658304831200,12.073831298828125,0.03985895588994026,-0.007941247895359993,-0.05711590126156807
1701981658321821000,12.090821044921874,0.012064588256180286,0.31871894001960754,-0.20845776796340942
1701981658338819600,12.107819580078125,-0.0013744467869400978,0.27091872692108154,-0.3520110845565796
1701981658355812400,12.124812255859375,-0.006872233934700489,0.20601430535316467,-0.36972618103027344
1701981658372806400,12.141806396484375,0.0024434609804302454,0.0685696229338646,-0.2324342280626297
1701981658389800000,12.158800048828125,0.008246680721640587,-0.0780380368232727,-0.031001411378383636
1701981658406794800,12.175794677734375,-0.016798794269561768,-0.24327708780765533,0.11621711403131485
1701981658423787300,12.192787353515625,-0.06948592513799667,-0.4960225820541382,0.10674870014190674
1701981658440781000,12.209781005859375,-0.10995574295520782,-0.3484986126422882,0.11209376901388168
1701981658457774800,12.22677490234375,-0.19394971430301666,-0.2721404731273651,0.13347405195236206
1701981658474767000,12.24376708984375,-0.2122756689786911,-0.2539672255516052,0.1287398487329483
1701981658491765000,12.260764892578125,-0.1976149082183838,-0.2649627923965454,0.08155050873756409
1701981658508756000,12.277755859375,-0.13271047174930573,-0.2817615866661072,-0.00427605677396059
1701981658525749800,12.294749755859375,-0.041691552847623825,-0.15851953625679016,-0.007635815534740686
1701981658542727200,12.31172705078125,0.006261368747800589,-0.096211276948452,0.07452555745840073
1701981658559740000,12.328739990234375,0.051312681287527084,-0.1420261710882187,0.144622340798378
1701981658576728600,12.345728515625,0.0780380368232727,-0.020616702735424042,0.1895209401845932
1701981658593724700,12.362724609375,0.02428189292550087,-0.11071932315826416,0.16340644657611847
1701981658610719500,12.379719482421875,0.04489859566092491,-0.3602577745914459,-0.0705549344420433
1701981658627712300,12.396712158203124,0.003359758760780096,-0.3081815242767334,-0.2912299931049347
1701981658644706000,12.4137060546875,-0.06887505948543549,0.12186761945486069,-0.27748554944992065
1701981658661699800,12.430699951171874,-0.09498954564332962,0.20128010213375092,-0.14034628868103027
1701981658678694700,12.447694580078124,-0.07620543986558914,0.1310305893421173,-0.03787364438176155
1701981658695687200,12.464687255859374,-0.12446379661560059,0.010690141469240189,0.019853120669722557
1701981658712681000,12.481680908203124,-0.11530081182718277,-0.10216721147298813,0.19944749772548676
1701981658729675000,12.498675048828124,-0.0659734457731247,0.144622340798378,0.10934487730264664
1701981658746659800,12.515659912109374,-0.005955935921519995,0.44806966185569763,-0.05192354694008827
1701981658763662000,12.532662109375,0.07376197725534439,0.5013676285743713,-0.08521570265293121
1701981658780655900,12.54965576171875,0.1417207419872284,0.3776674270629883,0.1898263692855835
1701981658797640000,12.566639892578126,0.09239336848258972,-0.050854530185461044,0.1391245573759079
1701981658814644500,12.58364453125,0.04795292019844055,-0.023518312722444534,-0.07391469180583954
1701981658831637200,12.60063720703125,-0.02474004216492176,0.2718350291252136,-0.15302173793315887
1701981658848630800,12.617630859375,-0.055283304303884506,0.484416127204895,-0.09056077152490616
1701981658865624600,12.63462451171875,-0.039248090237379074,0.4836525619029999,-0.1716531366109848
1701981658882616800,12.651616943359375,0.03955352306365967,0.6003278493881226,-0.375529408454895
1701981658899614700,12.66861474609375,0.12553280591964722,0.7635815739631653,-0.4801400899887085
1701981658916606000,12.68560595703125,0.164170041680336,0.7159340381622314,-0.3419318199157715
1701981658933597000,12.702596923828125,0.16844609379768372,0.3439171314239502,0.038179077208042145
1701981658950597000,12.71959716796875,0.16035212576389313,-0.06811147183179855,0.3474296033382416
1701981658967586300,12.73658642578125,0.13408492505550385,-0.2344195395708084,0.3627012372016907
1701981658984577300,12.753577392578125,0.10537425428628922,-0.15271630883216858,0.1872301995754242
1701981659001578200,12.770578125,0.05421429127454758,-0.16661348938941956,-0.022602014243602753
1701981659018569500,12.787569580078125,0.026572637259960175,-0.1267545372247696,-0.23655757308006287
1701981659035563000,12.80456298828125,0.005039638374000788,0.07009678333997726,-0.36331209540367126
1701981659052545300,12.821545166015625,-0.07635815441608429,0.1823432743549347,-0.3390302062034607
1701981659069539000,12.8385390625,-0.12034045159816742,0.047189339995384216,-0.2119702398777008
1701981659086531800,12.85553173828125,-0.11698069423437119,-0.1033889427781105,-0.0708603709936142
1701981659103537200,12.872537109375,-0.08659014850854874,-0.1690569519996643,0.05161811411380768
1701981659120530700,12.88953076171875,-0.04856378585100174,-0.17287486791610718,0.10064005106687546
1701981659137524500,12.9065244140625,-0.0429132841527462,-0.18417587876319885,0.11255192011594772
1701981659154517200,12.923517333984375,-0.06398813426494598,-0.16035212576389313,0.08506298810243607
1701981659171500300,12.940500244140624,-0.060322944074869156,-0.12324206531047821,0.033597588539123535
1701981659188505900,12.957505859375,-0.04077525436878204,-0.1082758679986,-0.0009162978967651725
1701981659205499400,12.97449951171875,-0.02275473065674305,-0.13377949595451355,0.005039638374000788
1701981659222489900,12.99148974609375,-0.01572977937757969,-0.1511891484260559,0.02519819140434265
1701981659239487000,13.008487060546875,-0.024434609338641167,-0.14798210561275482,0.03741549700498581
1701981659256480800,13.025480712890625,-0.037110064178705215,-0.18738290667533875,0.07681630551815033
1701981659273474600,13.042474609375,-0.03329215571284294,-0.21594086289405823,0.11988230794668198
1701981659290469400,13.059469482421875,-0.032528575509786606,-0.2093740701675415,0.11209376901388168
1701981659307462000,13.0764619140625,-0.04306599870324135,-0.11270463466644287,0.048105638474226
1701981659324455700,13.09345556640625,-0.052381694316864014,0.06017022579908371,-0.05665775015950203
1701981659341449500,13.110449462890625,-0.03726277872920036,0.09147707372903824,-0.1699732542037964
1701981659358443300,13.127443359375,-0.008399397134780884,0.021074850112199783,-0.17928895354270935
1701981659375438000,13.14443798828125,-0.023365596309304237,-0.07208210229873657,-0.05146539583802223
1701981659392430600,13.1614306640625,-0.07208210229873657,-0.17073683440685272,0.07177666574716568
1701981659409427200,13.17842724609375,-0.11316278576850891,-0.25961771607398987,0.14233160018920898
1701981659426416600,13.195416748046876,-0.12690725922584534,-0.44226643443107605,0.1999056488275528
1701981659443409200,13.2124091796875,-0.10384709388017654,-0.660192608833313,0.2987131178379059
1701981659460407800,13.22940771484375,-0.1010981947183609,-0.836885392665863,0.4103487432003021
1701981659477399600,13.246399658203124,-0.09254608303308487,-0.9014843702316284,0.423329621553421
1701981659494394400,13.263394287109374,-0.043218716979026794,-0.7544185519218445,0.24205535650253296
1701981659511387000,13.280386962890624,0.03985895588994026,-0.4027129113674164,0.02733621932566166
1701981659528380700,13.297380615234376,0.07238753139972687,-0.06459899991750717,-0.1111774742603302
1701981659545374200,13.314374267578126,0.10277807712554932,0.22296582162380219,-0.21090123057365417
1701981659562369000,13.331369140625,0.12171489745378494,0.49464812874794006,-0.16142113506793976
1701981659579362000,13.348362060546876,0.05406157299876213,0.44516804814338684,0.039248090237379074
1701981659596355300,13.365355224609376,0.13148874044418335,0.12767083942890167,0.015118914656341076
1701981659613362200,13.382362060546875,0.1485929638147354,0.32131510972976685,-0.07406741380691528
1701981659630341600,13.399341552734375,0.10980302840471268,0.8958339095115662,-0.10995574295520782
1701981659647339300,13.41633935546875,0.11774427443742752,1.244943380355835,-0.29107728600502014
1701981659664330800,13.433330810546876,0.09911288321018219,1.309084177017212,-0.49724429845809937
1701981659681321700,13.45032177734375,0.053297992795705795,1.0212140083312988,-0.45692721009254456
1701981659698321700,13.46732177734375,0.01191187184303999,0.5177083015441895,-0.13988813757896423
1701981659715311900,13.484311767578125,0.029016099870204926,0.2715296149253845,0.2226603776216507
1701981659732302800,13.501302734375,0.07024950534105301,-0.058337632566690445,0.40851613879203796
1701981659749302000,13.518302001953124,0.11698069423437119,-0.2811507284641266,0.5763513445854187
1701981659766294000,13.5352939453125,0.06612616032361984,-0.6180428862571716,0.48426342010498047
1701981659783286800,13.552286865234375,0.04077525436878204,-0.4112650156021118,0.14828753471374512
1701981659800280000,13.569280029296875,0.030543262138962746,0.16814066469669342,-0.2292271852493286
1701981659817275000,13.58627490234375,-0.018325956538319588,0.38927388191223145,-0.35873061418533325
1701981659834269200,13.603269287109375,-0.05696318298578262,0.18005253374576569,-0.25014930963516235
1701981659851261700,13.62026171875,-0.14095716178417206,-0.6747006773948669,0.28527405858039856
1701981659868245200,13.637245361328125,-0.12446379661560059,-0.4668537676334381,0.470060795545578
1701981659885249300,13.654249267578125,-0.11148291081190109,-0.13301590085029602,0.2799290120601654
1701981659902244400,13.671244384765625,-0.047800205647945404,0.17867808043956757,0.025503624230623245
1701981659919236900,13.68823681640625,0.016340645030140877,0.24434609711170197,-0.2047925740480423
1701981659936230400,13.70523046875,0.09666942805051804,0.039706241339445114,-0.19333885610103607
1701981659953224200,13.72222412109375,0.06261368840932846,-0.41951170563697815,-0.058795779943466187
1701981659970219000,13.739218994140625,0.048258353024721146,-0.6085745096206665,-0.0933096632361412
1701981659987212000,13.7562119140625,-0.016035212203860283,-0.3173444867134094,-0.08994990587234497
1701981660004205600,13.77320556640625,-0.11591167747974396,-0.09560041129589081,-0.0884227454662323
1701981660021196000,13.790196044921874,-0.15592335164546967,-0.1693623960018158,-0.05726861581206322
1701981660038197200,13.807197265625,-0.16584990918636322,-0.27320948243141174,-0.08017606288194656
1701981660055187000,13.82418701171875,-0.15424346923828125,-0.3127630054950714,-0.11972958594560623
1701981660072180500,13.841180419921875,-0.1111774742603302,-0.3352122902870178,-0.09514226019382477
1701981660089174300,13.85817431640625,-0.0705549344420433,-0.6238461136817932,0.10002918541431427
1701981660106169000,13.875169189453125,0.02168571576476097,-0.39675697684288025,0.23136521875858307
1701981660123161900,13.892161865234375,0.03237585723400116,0.004886921960860491,0.14034628868103027
1701981660140155600,13.90915576171875,0.046273041516542435,0.15821409225463867,-0.015577063895761967
1701981660157149200,13.926149169921874,0.09193521738052368,0.0809396430850029,-0.03573561832308769
1701981660174144000,13.94314404296875,0.0910189226269722,-0.13225232064723969,0.18051068484783173
1701981660191136800,13.96013671875,0.08139779418706894,-0.41004329919815063,0.12278391420841217
1701981660208130600,13.977130615234374,0.07284568250179291,-0.3223841190338135,-0.006872233934700489
1701981660225126100,13.994126220703125,0.019547687843441963,-0.019089538604021072,-0.1235474944114685
1701981660242117000,14.0111171875,-0.008399397134780884,0.2047925740480423,-0.09407325088977814
1701981660259094800,14.0280947265625,-0.07864890247583389,0.15012013912200928,-0.00427605677396059
1701981660276102000,14.045101806640625,-0.07070764899253845,-0.014049900695681572,0.019089538604021072
1701981660293104000,14.062104248046875,-0.05314527451992035,-0.144622340798378,0.014049900695681572
1701981660310092800,14.0790927734375,-0.05925392732024193,-0.20311269164085388,0.02168571576476097
1701981660327086800,14.0960869140625,-0.03894266113638878,-0.1609629988670349,0.03756821155548096
1701981660344080600,14.11308056640625,-0.009621127508580685,-0.0607810914516449,0.017867809161543846
1701981660361074200,14.13007421875,-0.014813481830060482,0.015577063895761967,-0.011453723534941673
1701981660378069000,14.147069091796874,-0.04917465150356293,0.003359758760780096,-0.021532999351620674
1701981660395061800,14.164061767578126,-0.07162395119667053,-0.09911288321018219,0.028405234217643738
1701981660412055600,14.1810556640625,-0.06520986557006836,-0.2220495194196701,0.0780380368232727
1701981660429049000,14.198049072265626,-0.08597928285598755,-0.2571742534637451,0.0354301854968071
1701981660446046200,14.215046142578124,-0.06887505948543549,-0.14049901068210602,-0.060475658625364304
1701981660463031600,14.232031494140625,-0.06612616032361984,0.0012217304902151227,-0.1362229436635971
1701981660480030500,14.249030517578126,-0.08979719132184982,0.08628471940755844,-0.10262536257505417
1701981660497024300,14.266024169921875,-0.09453139454126358,0.042760565876960754,-0.040622539818286896
1701981660514019000,14.28301904296875,-0.07864890247583389,-0.09239336848258972,0.23029619455337524
1701981660531011600,14.300011474609375,-0.011759156361222267,0.09025534242391586,0.11133018881082535
1701981660548005000,14.317005126953125,0.04886921867728233,0.6695083379745483,-0.10674870014190674
1701981660564997000,14.3339970703125,0.09605856239795685,0.9361509680747986,-0.19807305932044983
1701981660581994000,14.350993896484376,0.17852537333965302,0.8597928285598755,-0.17776179313659668
1701981660598986800,14.36798681640625,0.1837177276611328,0.6433938145637512,-0.1010981947183609
1701981660615980300,14.384980224609375,0.19853121042251587,0.3407101035118103,0.013133603148162365
1701981660632974600,14.401974609375,0.14752395451068878,-0.14416420459747314,0.1941024363040924
1701981660649969000,14.418968994140625,0.08567385375499725,-0.41340306401252747,0.14385876059532166
1701981660666959000,14.435958984375,0.0010690141934901476,-0.21319197118282318,0.04077525436878204
1701981660683956000,14.4529560546875,-0.07498370856046677,-0.07131851464509964,-0.009162978269159794
1701981660700944000,14.46994384765625,-0.12034045159816742,-0.13607023656368256,-0.0659734457731247
1701981660717941500,14.48694140625,-0.13148874044418335,-0.23273965716362,-0.15577064454555511
1701981660734939400,14.503939453125,-0.07910704612731934,-0.2474004179239273,-0.23060162365436554
1701981660751930400,14.520930419921875,0.002138028386980295,-0.15653422474861145,-0.2200642079114914
1701981660768921600,14.537921630859374,0.06780604273080826,0.009773843921720982,-0.09957103431224823
1701981660785911000,14.5549111328125,0.07437284290790558,0.1696678251028061,0.06520986557006836
1701981660802911700,14.571911865234375,0.0679587572813034,0.15729780495166779,0.1563815027475357
1701981660819889700,14.5888896484375,0.07162395119667053,0.06704246252775192,0.17806722223758698
1701981660836896300,14.605896240234374,0.03176499158143997,0.08048149943351746,0.18509216606616974
1701981660853894000,14.622893798828125,-0.019089538604021072,-0.128434419631958,0.13469578325748444
1701981660870876200,14.639876220703124,0.03145955875515938,-0.23350323736667633,0.016340645030140877
1701981660887876900,14.656876953125,0.04566217586398125,-0.0503963828086853,-0.005955935921519995
1701981660904878000,14.673878173828125,0.013897184282541275,0.1814269721508026,0.09086620807647705
1701981660921864400,14.690864501953126,0.01817324012517929,0.1316414624452591,0.07284568250179291
1701981660938861800,14.70786181640625,0.04077525436878204,0.0858265683054924,-0.06872233748435974
1701981660955855600,14.724855712890625,0.06261368840932846,0.15195272862911224,-0.15363261103630066
1701981660972849200,14.74184912109375,0.06169738993048668,0.21059578657150269,-0.1293507218360901
1701981660989844000,14.758843994140625,0.052228979766368866,0.12751811742782593,-0.06459899991750717
1701981661006836700,14.775836669921874,0.03955352306365967,0.054825156927108765,0.060933809727430344
1701981661023830500,14.79283056640625,-0.026114489883184433,-0.11499538272619247,0.17241671681404114
1701981661040824300,14.80982421875,-0.00045814894838258624,-0.2562579810619354,0.15271630883216858
1701981661057819000,14.82681884765625,-0.03481931984424591,-0.266184538602829,0.0734565481543541
1701981661074809000,14.84380908203125,-0.08170322328805923,-0.154396191239357,0.034666601568460464
1701981661091795200,14.860795166015626,-0.13866640627384186,-0.39736783504486084,0.2171625941991806
1701981661108799200,14.87779931640625,-0.09636399149894714,-0.2275473028421402,0.12247848510742188
1701981661125791700,14.894791748046876,-0.1088867336511612,-0.06520986557006836,-0.10033461451530457
1701981661142772700,14.911772705078125,-0.07360926270484924,-0.08521570265293121,-0.15577064454555511
1701981661159778000,14.928778076171875,-0.03833179548382759,-0.26374107599258423,-0.0429132841527462
1701981661176776700,14.945776611328125,-0.03848451003432274,-0.35353827476501465,0.03756821155548096
1701981661193759000,14.962759033203126,-0.05849034711718559,-0.32818734645843506,0.00809396430850029
1701981661210761700,14.97976171875,-0.059864792972803116,-0.18325957655906677,-0.08368854224681854
1701981661227755500,14.996755615234376,-0.04948008432984352,-0.02382374368607998,-0.15164729952812195
1701981661244749300,15.013749267578126,-0.03375030308961868,-0.03222314268350601,-0.14874568581581116
1701981661261744000,15.030744140625,-0.009621127508580685,-0.06459899991750717,-0.06734789162874222
1701981661278736600,15.047736572265626,-0.003359758760780096,-0.1973094791173935,0.06185010448098183
1701981661295727900,15.064727783203125,-0.01878410577774048,-0.1820378452539444,0.2050980031490326
1701981661312719000,15.081718994140624,-0.02382374368607998,0.10720685124397278,0.05604688450694084
1701981661329718800,15.09871875,-0.0009162978967651725,0.25564709305763245,-0.1889100819826126
1701981661346711800,15.1157119140625,0.03726277872920036,0.28267788887023926,-0.2577851414680481
1701981661363695000,15.132695068359375,0.08338310569524765,0.21288654208183289,-0.18387043476104736
1701981661380699100,15.14969921875,0.10980302840471268,0.23121249675750732,-0.07467827945947647
1701981661397694000,15.16669384765625,0.09117163717746735,0.18035796284675598,0.025961773470044136
1701981661414680800,15.183680908203126,0.06368270516395569,0.12140946835279465,0.10812314599752426
1701981661431680500,15.200680419921875,0.016035212203860283,0.08429940044879913,0.14004085958003998
1701981661448674300,15.21767431640625,-0.0328340083360672,0.044287730008363724,0.11942415684461594
1701981661465666800,15.234666748046875,-0.06368270516395569,-0.029626963660120964,0.048716504126787186
1701981661482664200,15.251664306640626,-0.07620543986558914,-0.337044894695282,0.12370020896196365
1701981661499655400,15.268655517578125,-0.05268712714314461,-0.19303341209888458,0.08827003091573715
1701981661516649200,15.285649169921875,-0.03833179548382759,0.11927144229412079,-0.028557950630784035
1701981661533644000,15.30264404296875,0.004581489134579897,0.24174992740154266,-0.0377209298312664
1701981661550636800,15.31963671875,0.05314527451992035,0.19257527589797974,0.03940080851316452
1701981661567634000,15.336634033203126,0.09193521738052368,0.08017606288194656,0.08445212244987488
1701981661584621000,15.35362109375,0.11591167747974396,-0.06062837690114975,0.24205535650253296
1701981661601619000,15.370618896484375,0.04642575979232788,-0.32879820466041565,0.46273043751716614
1701981661618612200,15.3876123046875,0.03955352306365967,-0.5345070958137512,0.2538145184516907
1701981661635605500,15.40460546875,0.027641652151942253,-0.43279802799224854,-0.04001167416572571
1701981661652599300,15.421599365234375,0.03634648025035858,-0.17562375962734222,-0.21914790570735931
1701981661669594000,15.438593994140625,0.012217304669320583,-0.016493361443281174,-0.1950187236070633
1701981661686575900,15.455575927734374,-0.057879481464624405,0.044287730008363724,-0.12721268832683563
1701981661703580400,15.472580322265625,-0.05192354694008827,0.10980302840471268,-0.07009678333997726
1701981661720574200,15.48957421875,-0.030085112899541855,0.07330382615327835,0.025656340643763542
1701981661737566500,15.50656640625,-0.02168571576476097,-0.006261368747800589,0.18081611394882202
1701981661754564400,15.523564453125,0.03420845419168472,0.27382034063339233,0.019394971430301666
1701981661771555800,15.540555908203125,0.0607810914516449,0.6200281977653503,-0.17348572611808777
1701981661788549400,15.55754931640625,0.14538592100143433,0.722959041595459,-0.23335053026676178
1701981661805544200,15.574544189453125,0.24602597951889038,0.5978843569755554,-0.20693060755729675
1701981661822536700,15.59153662109375,0.2782491147518158,0.3627012372016907,-0.08231408894062042
1701981661839530800,15.60853076171875,0.19822576642036438,-0.0065668015740811825,0.11560624837875366
1701981661856520200,15.625520263671875,0.12797626852989197,-0.29306259751319885,0.07956519722938538
1701981661873523500,15.6425234375,0.058948494493961334,-0.192422553896904,-0.060322944074869156
1701981661890512000,15.659511962890624,-0.04092797264456749,0.010995574295520782,-0.14569136500358582
1701981661907505700,15.676505615234374,-0.128434419631958,0.14019356667995453,-0.16722436249256134
1701981661924499500,15.69349951171875,-0.1837177276611328,0.07330382615327835,-0.22479841113090515
1701981661941494000,15.710493896484374,-0.1797471046447754,-0.036193765699863434,-0.29596421122550964
1701981661958486800,15.72748681640625,-0.18188512325286865,-0.4150829315185547,-0.0754418596625328
1701981661975470300,15.74447021484375,-0.1459967941045761,-0.29168814420700073,0.05009094998240471
1701981661992471000,15.761470947265625,-0.1313360333442688,-0.07925976812839508,0.02977968007326126
1701981662009472300,15.77847216796875,-0.07528914511203766,0.12324206531047821,0.010079276748001575
1701981662026462000,15.7954619140625,0.00366519158706069,0.09834930300712585,0.03573561832308769
1701981662043453000,15.812452880859375,0.09010262042284012,0.033139441162347794,0.0377209298312664
1701981662060452000,15.8294521484375,0.16432274878025055,0.06948592513799667,0.02626720629632473
1701981662077444000,15.846444091796876,0.17150041460990906,0.10216721147298813,0.29306259751319885
1701981662094436900,15.863436767578126,0.14767667651176453,-0.24083362519741058,0.19898934662342072
1701981662111431000,15.880430908203126,0.1336267739534378,-0.2603813111782074,-0.03497203439474106
1701981662128424400,15.897424560546876,0.05910121276974678,0.05421429127454758,-0.17256943881511688
1701981662145419000,15.9144189453125,-0.010231993161141872,0.3430008292198181,-0.2278527319431305
1701981662162412000,15.931412109375,-0.05650503560900688,0.313373863697052,-0.28359419107437134
1701981662179395000,15.94839501953125,-0.04489859566092491,0.304669052362442,-0.22999076545238495
1701981662196399400,15.9653994140625,-0.06001751124858856,0.23900102078914642,-0.11316278576850891
1701981662213394200,15.982394287109376,-0.04138612002134323,0.12064588814973831,-0.03130684420466423
1701981662230374000,15.999373779296874,-0.003512475173920393,-0.0009162978967651725,0.0633772686123848
1701981662247374800,16.016374755859374,0.04184427112340927,-0.096211276948452,0.13958270847797394
1701981662264375300,16.033375244140625,0.06383541971445084,-0.12140946835279465,0.18127426505088806
1701981662281369300,16.050369384765624,0.04764748737215996,-0.09697485715150833,0.1696678251028061
1701981662298361900,16.06736181640625,0.012522737495601177,-0.09911288321018219,0.06459899991750717
1701981662315345200,16.08434521484375,-0.021074850112199783,-0.10781771689653397,-0.015118914656341076
1701981662332349700,16.101349609375,-0.0507018156349659,-0.13118331134319305,-0.017409659922122955
1701981662349344300,16.11834423828125,-0.05543602257966995,-0.13866640627384186,0.00015271631127689034
1701981662366337000,16.1353369140625,-0.03176499158143997,-0.11514809727668762,-0.015882495790719986
1701981662383330800,16.152330810546875,-0.012064588256180286,-0.07513642311096191,-0.03833179548382759
1701981662400324600,16.16932470703125,-0.01664607785642147,-0.0734565481543541,-0.03451388701796532
1701981662417319200,16.186319091796875,-0.04001167416572571,-0.09040805697441101,-0.019853120669722557
1701981662434312000,16.20331201171875,-0.06933320313692093,-0.08903361111879349,0.0003054326225537807
1701981662451305700,16.2203056640625,-0.07162395119667053,-0.11041389405727386,0.016340645030140877
1701981662468299500,16.237299560546877,-0.0555887371301651,-0.04642575979232788,0.01924225501716137
1701981662485294300,16.25429443359375,-0.03390302136540413,0.017562376335263252,-0.026114489883184433
1701981662502276900,16.27127685546875,-0.010690141469240189,0.05421429127454758,-0.06169738993048668
1701981662519281000,16.288281005859375,0.0012217304902151227,0.02275473065674305,-0.09453139454126358
1701981662536274400,16.3052744140625,0.0012217304902151227,-0.008704829961061478,-0.14446963369846344
1701981662553269200,16.322269287109375,-0.017867809161543846,0.012522737495601177,-0.12507465481758118
1701981662570262000,16.339261962890625,-0.04917465150356293,0.00931569468230009,-0.02626720629632473
1701981662587257900,16.3562578125,-0.06551529467105865,0.00015271631127689034,0.0708603709936142
1701981662604248000,16.373248046875,-0.04382958263158798,0.03741549700498581,0.11224649101495743
1701981662621244400,16.390244384765627,0.01618792861700058,0.06490442901849747,0.08338310569524765
1701981662638237200,16.4072373046875,0.05971207842230797,0.056810468435287476,-0.027488935738801956
1701981662655220200,16.42422021484375,0.09239336848258972,0.1385136991739273,-0.11255192011594772
1701981662672224500,16.441224609375,0.0780380368232727,0.10980302840471268,-0.07910704612731934
1701981662689219600,16.458219482421875,0.03222314268350601,-0.14553864300251007,0.07376197725534439
1701981662706212400,16.47521240234375,-0.033139441162347794,-0.45234572887420654,0.2996293902397156
1701981662723206000,16.492205810546874,-0.0832303911447525,-0.5574145317077637,0.4876231849193573
1701981662740181500,16.509181396484376,-0.10354165732860565,-0.5792529582977295,0.5111414790153503
1701981662757194200,16.5261943359375,-0.05726861581206322,-0.5236642360687256,0.36713001132011414
1701981662774187300,16.543187255859376,-0.020311269909143448,-0.34544429183006287,0.1537853181362152
1701981662791181000,16.56018115234375,-0.0065668015740811825,-0.07223481684923172,-0.015577063895761967
1701981662808168400,16.57716845703125,0.004123340360820293,0.0757472887635231,-0.04993823543190956
1701981662825169400,16.59416943359375,-0.0039706239476799965,0.08552113175392151,0.23976461589336395
1701981662842158300,16.611158447265623,0.013286318629980087,0.36972618103027344,0.1670716404914856
1701981662859145500,16.6281455078125,0.018020525574684143,0.5734497308731079,0.00733038317412138
1701981662876139300,16.64513916015625,0.02474004216492176,0.6562219858169556,-0.023976460099220276
1701981662893144600,16.66214453125,0.07330382615327835,0.5277875661849976,-0.03955352306365967
1701981662910137300,16.679137451171876,0.13209961354732513,0.30146199464797974,-0.13041973114013672
1701981662927123500,16.69612353515625,0.04306599870324135,0.19379699230194092,-0.06582073122262955
1701981662944124700,16.713124755859376,-0.00427605677396059,-0.35246923565864563,-0.05925392732024193
1701981662961119500,16.730119384765626,0.03145955875515938,-0.4473060667514801,-0.09422596544027328
1701981662978112300,16.7471123046875,0.0019853119738399982,-0.33307427167892456,-0.10537425428628922
1701981662995106000,16.76410595703125,-0.04932736977934837,-0.15653422474861145,-0.06719517707824707
1701981663012099800,16.781099853515624,-0.09651670604944229,-0.20372356474399567,-0.08659014850854874
1701981663029094700,16.7980947265625,-0.10018189996480942,-0.2571742534637451,-0.1745547503232956
1701981663046087200,16.815087158203124,-0.09376781433820724,-0.3315471112728119,-0.07956519722938538
1701981663063081200,16.832081298828125,-0.05604688450694084,-0.06887505948543549,-0.1186605766415596
1701981663080074800,16.84907470703125,-0.03084869496524334,0.2611449062824249,-0.23777928948402405
1701981663097059300,16.866059326171875,0.01878410577774048,0.41340306401252747,-0.2298380434513092
1701981663114062300,16.883062255859375,0.07299839705228806,0.3908010423183441,-0.1362229436635971
1701981663131056000,16.90005615234375,0.11178833991289139,0.2171625941991806,-0.04566217586398125
1701981663148050000,16.9170498046875,0.09086620807647705,0.0630718395113945,0.054367005825042725
1701981663165042000,16.9340419921875,0.03955352306365967,-0.040622539818286896,0.10247264802455902
1701981663182040000,16.9510400390625,-0.016493361443281174,-0.10354165732860565,0.1134682223200798
1701981663199031000,16.968031005859373,-0.08002334833145142,-0.03527746722102165,0.14278975129127502
1701981663216024800,16.98502490234375,-0.12064588814973831,-0.011453723534941673,0.18219055235385895
1701981663233019600,17.00201953125,-0.13790282607078552,-0.46379944682121277,0.4069889783859253
1701981663250013200,17.01901318359375,-0.1722639948129654,-0.7188356518745422,0.6792821288108826
1701981663266995500,17.035995361328126,-0.17562375962734222,-0.4671591818332672,0.43967026472091675
1701981663284000000,17.053,-0.11591167747974396,-0.03940080851316452,-0.014966198243200779
1701981663300997400,17.069997314453126,-0.0780380368232727,0.08949175477027893,-0.28038713335990906
1701981663317984800,17.08698486328125,-0.05849034711718559,-0.11759155988693237,-0.3016147017478943
1701981663334981000,17.103981201171877,-0.0705549344420433,-0.2597704529762268,-0.23380866646766663
1701981663351972400,17.120972412109374,-0.10903944820165634,-0.2669481039047241,-0.15943582355976105
1701981663368972500,17.13797265625,-0.11407908797264099,-0.19135354459285736,-0.11530081182718277
1701981663385962500,17.15496240234375,-0.06811147183179855,-0.08994990587234497,-0.144622340798378
1701981663402956300,17.171956298828125,-0.023365596309304237,0.019089538604021072,-0.23900102078914642
1701981663419950000,17.1889501953125,-0.012064588256180286,0.06475171446800232,-0.17180584371089935
1701981663436944600,17.205944580078125,0.021991148591041565,0.1287398487329483,-0.11178833991289139
1701981663453937400,17.2229375,0.02321287989616394,0.24678955972194672,-0.11530081182718277
1701981663470929000,17.239928955078124,0.07070764899253845,0.266184538602829,-0.061391957104206085
1701981663487927600,17.256927490234375,0.1414152979850769,0.19394971430301666,0.030543262138962746
1701981663504919800,17.273919921875,0.15943582355976105,-0.02229658141732216,0.20402899384498596
1701981663521910300,17.29091015625,0.1540907621383667,-0.1647808998823166,0.18005253374576569
1701981663538908700,17.30790869140625,0.1212567538022995,-0.0656680166721344,0.060322944074869156
1701981663555900200,17.324900146484374,0.05604688450694084,0.126143679022789,-0.10354165732860565
1701981663572895000,17.34189501953125,0.02519819140434265,0.32910364866256714,-0.1667662113904953
1701981663589888000,17.358887939453126,-0.06750060617923737,0.4086688458919525,-0.15714508295059204
1701981663606881300,17.37588134765625,-0.07895433157682419,0.20922134816646576,-0.2054034322500229
1701981663623875000,17.392875,-0.03130684420466423,0.06291911751031876,-0.23915374279022217
1701981663640870000,17.409869873046876,-0.0027488935738801956,-0.019547687843441963,-0.2373211532831192
1701981663657862700,17.426862548828126,0.021838432177901268,-0.06551529467105865,-0.18219055235385895
1701981663674848500,17.4438486328125,0.03039054572582245,-0.02825251780450344,-0.05543602257966995
1701981663691850200,17.460850341796874,0.01572977937757969,-0.009773843921720982,0.0529925599694252
1701981663708845000,17.477844970703124,-0.00733038317412138,0.0024434609804302454,0.08017606288194656
1701981663725837600,17.494837646484374,-0.02168571576476097,0.00045814894838258624,0.03222314268350601
1701981663742831400,17.511831298828124,-0.02168571576476097,0.030085112899541855,-0.03451388701796532
1701981663759826400,17.528826416015626,-0.02672535367310047,0.04703662544488907,-0.06643159687519073
1701981663776820000,17.545820068359376,-0.039706241339445114,0.06780604273080826,-0.023060163483023643
1701981663793812700,17.562812744140626,-0.04505131021142006,0.08277224004268646,0.04902193695306778
1701981663810806500,17.579806640625,-0.02977968007326126,0.12110403180122375,0.1036943718791008
1701981663827800300,17.59680029296875,0.0027488935738801956,0.15134187042713165,0.09453139454126358
1701981663844795100,17.613795166015624,0.058795779943466187,0.23197607696056366,0.020311269909143448
1701981663861788000,17.630787841796874,0.12308934330940247,0.3335324227809906,-0.0039706239476799965
1701981663878771000,17.64777099609375,0.1621847152709961,0.38347065448760986,0.0959058403968811
1701981663895771400,17.664771484375,0.10995574295520782,0.4075998365879059,0.33735033869743347
1701981663912774100,17.681774169921876,0.07422012835741043,-0.0682641938328743,0.252287358045578
1701981663929762800,17.6987626953125,0.0757472887635231,-0.2028072625398636,0.08643743395805359
1701981663946756600,17.715756591796875,0.015271631069481373,-0.07559457421302795,0.010690141469240189
1701981663963750400,17.73275048828125,-0.020616702735424042,0.07452555745840073,0.0074830991216003895
1701981663980745200,17.7497451171875,-0.033139441162347794,0.018325956538319588,-0.062460970133543015
1701981663997738000,17.766738037109373,-0.022602014243602753,-0.02672535367310047,-0.13897185027599335
1701981664014731800,17.783731689453123,-0.03451388701796532,-0.1010981947183609,-0.16035212576389313
1701981664031725300,17.800725341796873,-0.038179077208042145,-0.4786129295825958,-0.0065668015740811825
1701981664048720100,17.81772021484375,-0.01237002108246088,-0.247094988822937,0.11331550031900406
1701981664065713000,17.834712890625,-0.014508049935102463,0.14905111491680145,0.027030786499381065
1701981664082707200,17.851707275390623,0.021991148591041565,0.2756529450416565,-0.041233405470848083
1701981664099700500,17.868700439453125,0.024892758578062057,0.08903361111879349,-0.055894169956445694
1701981664116697300,17.885697265625,0.024129176512360573,-0.05207626149058342,-0.047189339995384216
1701981664133686000,17.90268603515625,0.011453723534941673,-0.08750644326210022,-0.004581489134579897
1701981664150676500,17.919676513671874,0.0024434609804302454,-0.09865473955869675,0.043218716979026794
1701981664167671300,17.93667138671875,0.012980886735022068,-0.035582900047302246,0.0630718395113945
1701981664184674600,17.953674560546876,0.023518312722444534,-0.011453723534941673,0.050854530185461044
1701981664201663000,17.9706630859375,0.025961773470044136,-0.05665775015950203,0.05253441259264946
1701981664218656800,17.98765673828125,0.007788531947880983,-0.1362229436635971,0.04902193695306778
1701981664235650600,18.004650634765625,-0.009162978269159794,-0.1508837193250656,0.01572977937757969
1701981664252645400,18.021645263671875,-0.02015855349600315,-0.13775011897087097,-0.01038470957428217
1701981664269627600,18.038627685546874,-0.029474247246980667,-0.08506298810243607,-0.006108652334660292
1701981664286621400,18.055621337890624,-0.01664607785642147,-0.02932153269648552,0.006261368747800589
1701981664303625700,18.072625732421876,-0.0003054326225537807,-0.051312681287527084,0.02122756652534008
1701981664320620500,18.08962060546875,-0.0025961773935705423,-0.058184914290905,0.035124752670526505
1701981664337612000,18.106612060546876,0.0022907445672899485,-0.013897184282541275,0.05100724846124649
1701981664354608000,18.123608154296875,-0.006108652334660292,0.003512475173920393,0.06750060617923737
1701981664371600600,18.1406005859375,-0.00931569468230009,-0.023365596309304237,0.05742133408784866
1701981664388595500,18.157595458984375,-0.0003054326225537807,-0.017409659922122955,0.02015855349600315
1701981664405598200,18.17459814453125,0.012675453908741474,0.017562376335263252,-0.021074850112199783
1701981664422582000,18.19158203125,0.022449297830462456,0.076052725315094,-0.03833179548382759
1701981664439575800,18.208575927734376,0.026114489883184433,0.09468411654233932,-0.0027488935738801956
1701981664456570600,18.225570556640626,0.022449297830462456,0.06108652427792549,0.06062837690114975
1701981664473563400,18.2425634765625,0.038179077208042145,0.04214970022439957,0.0835358202457428
1701981664490557200,18.25955712890625,0.07040221989154816,0.0679587572813034,0.056352317333221436
1701981664507550700,18.27655078125,0.11255192011594772,0.1866193264722824,0.041233405470848083
1701981664524545500,18.293545654296874,0.049785517156124115,0.25671613216400146,0.1336267739534378
1701981664541538800,18.310538818359376,0.04444044828414917,-0.042760565876960754,0.07498370856046677
1701981664558531600,18.327531494140626,0.04153883829712868,-0.2638937830924988,-0.032681290060281754
1701981664575526100,18.344526123046876,0.009162978269159794,-0.2886338233947754,-0.12003502249717712
1701981664592522000,18.36152197265625,-0.009468411095440388,-0.1333213448524475,-0.17760907113552094
1701981664609512200,18.37851220703125,-0.05619960278272629,0.021380282938480377,-0.20204368233680725
1701981664626507300,18.39550732421875,-0.0988074541091919,0.041233405470848083,-0.2857322096824646
1701981664643500800,18.412500732421876,-0.09040805697441101,0.04459316283464432,-0.3101668357849121
1701981664660480000,18.42947998046875,-0.08277224004268646,-0.18860463798046112,-0.05619960278272629
1701981664677488400,18.44648828125,-0.060933809727430344,-0.1950187236070633,0.15622878074645996
1701981664694482200,18.463482177734374,-0.06872233748435974,0.009468411095440388,0.11239920556545258
1701981664711476000,18.48047607421875,-0.040164388716220856,0.16569720208644867,0.0024434609804302454
1701981664728470800,18.497470703125,0.0012217304902151227,0.18845193088054657,-0.1033889427781105
1701981664745463600,18.514463623046876,0.06520986557006836,0.19333885610103607,-0.19578230381011963
1701981664762454800,18.531454833984377,0.11972958594560623,0.2574796974658966,-0.13301590085029602
1701981664779453700,18.54845361328125,0.034666601568460464,0.16279558837413788,0.17562375962734222
1701981664796433700,18.56543359375,0.04749477282166481,-0.1511891484260559,0.1437060534954071
1701981664813439200,18.582439208984376,0.02779436856508255,-0.16310101747512817,-0.00015271631127689034
1701981664830431500,18.599431396484373,-0.03573561832308769,0.06902777403593063,-0.07024950534105301
1701981664847426000,18.616426025390624,-0.07330382615327835,0.2102903574705124,-0.047189339995384216
1701981664864418300,18.633418212890625,-0.0910189226269722,0.07513642311096191,-0.0981965884566307
1701981664881416200,18.650416259765624,-0.04077525436878204,-0.04902193695306778,-0.1235474944114685
1701981664898407400,18.667407470703125,-0.029474247246980667,-0.1082758679986,-0.0731511116027832
1701981664915401200,18.684401123046875,-0.002138028386980295,-0.02672535367310047,-0.01038470957428217
1701981664932396000,18.70139599609375,0.03344487398862839,0.08827003091573715,-0.014202617108821869
1701981664949388800,18.718388916015623,0.06933320313692093,0.12599095702171326,-0.09178250283002853
1701981664966382300,18.73538232421875,0.08491026610136032,0.19807305932044983,-0.17379115521907806
1701981664983376400,18.75237646484375,0.07391469180583954,0.40454551577568054,-0.14263702929019928
1701981665000371000,18.769370849609373,0.08338310569524765,0.47907108068466187,-0.05742133408784866
1701981665017363700,18.78636376953125,0.13927727937698364,0.42012256383895874,0.012522737495601177
1701981665034357500,18.803357421875,0.11820242553949356,0.21762074530124664,0.06811147183179855
1701981665051340800,18.8203408203125,0.07620543986558914,0.024892758578062057,0.12186761945486069
1701981665068346400,18.837346435546873,0.060322944074869156,-0.018936822190880775,0.13454307615756989
1701981665085339000,18.8543388671875,-0.007788531947880983,-0.02825251780450344,0.12965615093708038
1701981665102332700,18.871332763671877,-0.009468411095440388,-0.17501288652420044,0.010995574295520782
1701981665119326500,18.888326416015627,-0.029626963660120964,-0.2866485118865967,-0.11957687139511108
1701981665136321300,18.9053212890625,-0.11407908797264099,-0.20601430535316467,-0.16890424489974976
1701981665153313800,18.922313720703126,-0.21899518370628357,-0.2275473028421402,-0.15943582355976105
1701981665170307600,18.9393076171875,-0.20372356474399567,-0.2431243658065796,-0.1235474944114685
1701981665187301600,18.956301513671875,-0.16310101747512817,-0.1488984078168869,-0.05421429127454758
1701981665204296000,18.9732958984375,-0.11743884533643723,-0.1765400618314743,0.013439035043120384
1701981665221279200,18.990279296875,-0.062460970133543015,-0.25732699036598206,0.05467243865132332
1701981665238282800,19.00728271484375,-0.02672535367310047,-0.3680463135242462,0.15729780495166779
1701981665255276500,19.024276611328126,-0.030695978552103043,-0.36300668120384216,0.3182607889175415
1701981665272260600,19.041260498046874,-0.10812314599752426,-0.44058656692504883,0.27488934993743896
1701981665289264400,19.058264404296875,-0.08506298810243607,-0.42730024456977844,0.041233405470848083
1701981665306258000,19.0752578125,-0.1215621829032898,-0.26022860407829285,-0.08659014850854874
1701981665323251700,19.092251708984374,-0.18738290667533875,-0.08781187981367111,0.01924225501716137
1701981665340246300,19.109246337890625,-0.20051652193069458,-0.19257527589797974,0.1540907621383667
1701981665357239000,19.126239013671874,-0.14065171778202057,-0.40072759985923767,0.13271047174930573
1701981665374230300,19.143230224609376,-0.020922135561704636,-0.40485092997550964,0.01160643994808197
1701981665391229400,19.1602294921875,0.1313360333442688,-0.12446379661560059,-0.09773843735456467
1701981665408219000,19.177218994140624,0.22128593921661377,0.15515977144241333,-0.10308351367712021
1701981665425209300,19.194209228515625,0.19837848842144012,0.2945897579193115,0.05314527451992035
1701981665442197800,19.21119775390625,0.033597588539123535,0.7533495426177979,0.5027421116828918
1701981665459201500,19.228201416015626,-0.04077525436878204,0.19425514340400696,0.5221370458602905
1701981665476196900,19.24519677734375,0.02474004216492176,-0.40454551577568054,0.2246456891298294
1701981665493189400,19.262189453125,-0.005650503560900688,-0.5082398653030396,-0.12293662875890732
1701981665510182400,19.279182373046876,0.032070424407720566,-0.21838432550430298,-0.40225476026535034
1701981665527177500,19.296177490234374,-0.05864306539297104,0.24266621470451355,-0.4541783034801483
1701981665544171500,19.313171630859376,-0.12308934330940247,0.4784601926803589,-0.5245805382728577
1701981665561164500,19.33016455078125,-0.12324206531047821,0.4642575979232788,-0.471129834651947
1701981665578158000,19.347157958984376,-0.07895433157682419,0.3149010241031647,-0.39064833521842957
1701981665595152000,19.36415185546875,-0.10262536257505417,0.34804046154022217,-0.15393804013729095
1701981665612146700,19.381146728515624,-0.09147707372903824,0.2791654169559479,0.13484850525856018
1701981665629139500,19.398139404296874,-0.02932153269648552,0.14034628868103027,0.3159700334072113
1701981665646133200,19.41513330078125,0.09010262042284012,0.09926560521125793,0.285121351480484
1701981665663126800,19.432126708984374,0.22098049521446228,0.16233743727207184,0.20066922903060913
1701981665680121900,19.449121826171876,0.22815817594528198,0.24908030033111572,0.5094616413116455
1701981665697105400,19.46610546875,0.13790282607078552,-0.11988230794668198,0.2796235680580139
1701981665714108200,19.483108154296875,0.15195272862911224,-0.02122756652534008,-0.008704829961061478
1701981665731102200,19.500102294921874,0.09407325088977814,0.26710084080696106,-0.2200642079114914
1701981665748096800,19.5170966796875,0.07941248267889023,0.5688682794570923,-0.22327125072479248
1701981665765087000,19.5340869140625,0.07528914511203766,0.5581781268119812,-0.09178250283002853
1701981665782086100,19.551086181640624,0.10842858254909515,0.3926336467266083,-0.05650503560900688
1701981665799077000,19.5680771484375,0.1495092660188675,0.3202461004257202,-0.06872233748435974
1701981665816072000,19.585072021484375,0.18448130786418915,0.38835757970809937,-0.07269296050071716
1701981665833064700,19.602064697265625,0.182648703455925,0.46990808844566345,0.004428773187100887
1701981665850058000,19.61905810546875,0.15577064454555511,0.4518875777721405,0.09575312584638596
1701981665867042000,19.6360419921875,0.17516560852527618,0.42210787534713745,0.2883284091949463
1701981665884046800,19.653046875,0.08017606288194656,0.007941247895359993,0.21242839097976685
1701981665901039900,19.670039794921873,0.026419922709465027,-0.04596760869026184,0.028557950630784035
1701981665918023200,19.687023193359376,-0.007024950347840786,0.1186605766415596,-0.00855211354792118
1701981665935027200,19.704027099609377,0.009926560334861279,0.17592918872833252,0.09086620807647705
1701981665952022000,19.72102197265625,0.036041051149368286,0.16264286637306213,0.10797043144702911
1701981665969014800,19.738014892578125,0.09453139454126358,0.24098633229732513,-0.006719517521560192
1701981665986008800,19.7550087890625,0.14278975129127502,0.32131510972976685,-0.06841690838336945
1701981666003002400,19.77200244140625,0.18325957655906677,0.3510948121547699,-0.04764748737215996
1701981666019997200,19.7889970703125,0.2041817009449005,0.2070833146572113,0.027030786499381065
1701981666036990000,19.805989990234377,0.19654589891433716,-0.001527163083665073,0.15531249344348907
1701981666053983500,19.8229833984375,0.09056077152490616,-0.2831360399723053,0.3113885521888733
1701981666070977800,19.839977783203125,0.02977968007326126,-0.8546004891395569,0.1569923609495163
1701981666087972000,19.85697216796875,0.03588833287358284,-0.7764097452163696,-0.10461067408323288
1701981666104963800,19.8739638671875,-0.07406741380691528,-0.4303545653820038,-0.33567044138908386
1701981666121960000,19.8909599609375,-0.21151208877563477,-0.1635591685771942,-0.42088615894317627
1701981666138952400,19.907952392578125,-0.3199406862258911,-0.4567744731903076,-0.3982841372489929
1701981666155945000,19.924945068359374,-0.3732386529445648,-0.7699956297874451,-0.3533855378627777
1701981666172942800,19.94194287109375,-0.33047810196876526,-0.7890852093696594,-0.28038713335990906
1701981666189933800,19.958933837890626,-0.27061331272125244,-0.7722864151000977,-0.1866193264722824
1701981666206927600,19.975927734375,-0.2483167201280594,-0.6739370822906494,0.06123924255371094
1701981666223922400,19.99292236328125,-0.17440202832221985,-0.3582724630832672,0.25503623485565186
1701981666240915200,20.009915283203124,-0.04596760869026184,0.12370020896196365,0.1088867336511612
1701981666257909000,20.026908935546874,0.03420845419168472,0.3355177342891693,-0.01970040425658226
1701981666274902800,20.04390283203125,0.03588833287358284,0.3381139039993286,0.4063780903816223
1701981666291899100,20.060899169921875,0.08231408894062042,-0.2151772826910019,0.37888917326927185
1701981666308890400,20.077890380859376,0.15882496535778046,-0.3292563557624817,0.24648413062095642
1701981666325884000,20.0948837890625,0.0780380368232727,-0.08735372871160507,0.029474247246980667
1701981666342867500,20.111867431640626,0.03390302136540413,0.15653422474861145,-0.2021963894367218
1701981666359870000,20.128869873046874,-0.016340645030140877,0.23335053026676178,-0.20845776796340942
1701981666376867800,20.145867919921876,-0.0429132841527462,0.004581489134579897,-0.08155050873756409
1701981666393859000,20.162859130859374,-0.0029016099870204926,-0.18005253374576569,0.017562376335263252
1701981666410852900,20.179852783203124,0.022907447069883347,-0.1394299864768982,0.06582073122262955
1701981666427847700,20.19684765625,0.004886921960860491,-0.04459316283464432,0.04260785132646561
1701981666444840400,20.21384033203125,-0.02168571576476097,-0.05421429127454758,0.13347405195236206
1701981666461834200,20.230834228515626,-0.02122756652534008,0.14844025671482086,0.06200282275676727
1701981666478828000,20.247828125,-0.039706241339445114,0.31642818450927734,0.028557950630784035
1701981666495822000,20.264822021484374,-0.005650503560900688,0.2629774808883667,0.0887281745672226
1701981666512805600,20.2818056640625,0.06505715101957321,0.08338310569524765,0.11316278576850891
1701981666529809400,20.298809326171874,0.10873401165008545,0.03420845419168472,0.06444628536701202
1701981666546805200,20.31580517578125,0.1007927656173706,0.05726861581206322,-0.029932396486401558
1701981666563796200,20.332796142578125,0.06154467165470123,0.02382374368607998,-0.07024950534105301
1701981666580782000,20.349781982421874,0.03084869496524334,-0.04612032696604729,-0.02886338345706463
1701981666597784300,20.366784423828125,0.004734205547720194,-0.0734565481543541,-0.008704829961061478
1701981666614778400,20.3837783203125,-0.0039706239476799965,-0.008399397134780884,0.008246680721640587
1701981666631773000,20.40077294921875,0.017562376335263252,0.033139441162347794,0.02428189292550087
1701981666648765700,20.417765625,0.0503963828086853,0.02122756652534008,0.0074830991216003895
1701981666665759500,20.434759521484374,0.05451972410082817,0.05711590126156807,-0.06185010448098183
1701981666682753300,20.451753173828124,0.0328340083360672,0.1411098688840866,-0.13041973114013672
1701981666699748000,20.468748046875,0.018020525574684143,0.2102903574705124,-0.15821409225463867
1701981666716740900,20.485740966796875,0.005803219974040985,0.24862214922904968,-0.12263119965791702
1701981666733734700,20.502734619140625,-0.006872233934700489,0.20143280923366547,-0.02687807008624077
1701981666750729000,20.51972900390625,-0.01038470957428217,0.13271047174930573,0.09605856239795685
1701981666767722500,20.536722412109373,-0.004123340360820293,0.08032877743244171,0.1443169116973877
1701981666784715800,20.5537158203125,0.009010262787342072,0.001527163083665073,0.09468411654233932
1701981666801709600,20.57070947265625,0.005497787147760391,-0.012522737495601177,0.021991148591041565
1701981666818701300,20.587701416015626,-0.005497787147760391,0.01114829070866108,-0.029626963660120964
1701981666835700500,20.604700439453126,0.001832595793530345,-0.005955935921519995,-0.03756821155548096
1701981666852691000,20.62169091796875,0.004123340360820293,-0.02229658141732216,0.005345070734620094
