time,seconds_elapsed,z,y,x
1701981523622133000,0.061133056640625,-0.18478673696517944,-0.3003929853439331,0.3355177342891693
1701981523639205600,0.07820556640625,-0.16279558837413788,-0.27488934993743896,0.24694228172302246
1701981523656201200,0.095201171875,-0.10919216275215149,-0.20387627184391022,0.10064005106687546
1701981523673203500,0.112203369140625,-0.050243668258190155,-0.1540907621383667,-0.06429356336593628
1701981523690192000,0.12919189453125,-0.03222314268350601,-0.126143679022789,-0.1837177276611328
1701981523707189800,0.146189697265625,-0.022907447069883347,-0.08246681094169617,-0.23380866646766663
1701981523724183800,0.163183837890625,-0.012217304669320583,-0.021838432177901268,-0.22678372263908386
1701981523741172200,0.180172119140625,-0.0027488935738801956,0.031001411378383636,-0.14553864300251007
1701981523758168600,0.19716845703125,-0.014355333521962166,0.06368270516395569,-0.07254024595022202
1701981523775163100,0.2141630859375,-0.052839845418930054,0.05406157299876213,-0.03649919852614403
1701981523792152600,0.231152587890625,-0.05864306539297104,0.056352317333221436,-0.04184427112340927
1701981523809148400,0.2481484375,-0.04382958263158798,0.14538592100143433,-0.03695734590291977
1701981523826141400,0.265141357421875,-0.04352414980530739,0.26022860407829285,-0.021380282938480377
1701981523843135700,0.2821357421875,0.02779436856508255,0.3781255781650543,0.016493361443281174
1701981523860126000,0.2991259765625,0.11102475970983505,0.42271876335144043,0.058337632566690445
1701981523877120500,0.31612060546875,0.15332718193531036,0.3649919927120209,0.14584407210350037
1701981523894113800,0.33311376953125,0.07819075137376785,0.038179077208042145,0.36483925580978394
1701981523911109600,0.350109619140625,0.07070764899253845,-0.13408492505550385,0.461355984210968
1701981523928100600,0.3671005859375,0.07635815441608429,-0.10674870014190674,0.38499781489372253
1701981523945091000,0.384091064453125,0.050854530185461044,0.12431107461452484,0.1866193264722824
1701981523962087000,0.4010869140625,0.041233405470848083,0.38606682419776917,-0.08048149943351746
1701981523979081700,0.418081787109375,0.04764748737215996,0.4683809280395508,-0.35063666105270386
1701981523996074500,0.435074462890625,0.08827003091573715,0.437226802110672,-0.545655369758606
1701981524013066800,0.452066650390625,0.12278391420841217,0.3549126982688904,-0.5630650520324707
1701981524030059500,0.4690595703125,0.16111570596694946,0.3501785099506378,-0.3052799105644226
1701981524047043000,0.48604296875,0.0455094613134861,0.11209376901388168,-0.027488935738801956
1701981524064046300,0.50304638671875,-0.052839845418930054,-0.2444988191127777,0.14538592100143433
1701981524081038000,0.5200380859375,-0.01924225501716137,-0.3113885521888733,0.2935207486152649
1701981524098031000,0.537031005859375,-0.03130684420466423,-0.29733866453170776,0.43829581141471863
1701981524115029200,0.554029296875,-0.12431107461452484,-0.2817615866661072,0.4918992519378662
1701981524132012300,0.57101220703125,-0.20555615425109863,-0.2684752643108368,0.4535674452781677
1701981524149016300,0.588016357421875,-0.23839016258716583,-0.2997821271419525,0.38026362657546997
1701981524166007800,0.6050078125,-0.2096794992685318,-0.3219259977340698,0.26419922709465027
1701981524182995200,0.6219951171875,-0.11988230794668198,-0.19226983189582825,0.0529925599694252
1701981524199996700,0.63899658203125,-0.04657847434282303,0.04688390716910362,-0.18066339194774628
1701981524216986000,0.655986083984375,-0.025961773470044136,0.242513507604599,-0.34376442432403564
1701981524233981200,0.672981201171875,-0.020616702735424042,0.3072652220726013,-0.4105014503002167
1701981524250970400,0.689970458984375,0.012828170321881771,0.23839016258716583,-0.3897320330142975
1701981524267966200,0.70696630859375,0.05253441259264946,0.16203200817108154,-0.31062498688697815
1701981524284960500,0.72396044921875,0.10919216275215149,0.1670716404914856,-0.156686931848526
1701981524301950500,0.740950439453125,0.12721268832683563,0.2837468981742859,0.014508049935102463
1701981524318946300,0.7579462890625,0.15500704944133759,0.28420504927635193,0.14019356667995453
1701981524335937800,0.774937744140625,0.1820378452539444,0.204487144947052,0.21212296187877655
1701981524352932000,0.79193212890625,0.14874568581581116,0.13545936346054077,0.2171625941991806
1701981524369926400,0.808926513671875,0.0682641938328743,0.04398229718208313,0.16065755486488342
1701981524386919000,0.8259189453125,0.02672535367310047,-0.003512475173920393,0.07788532227277756
1701981524403914200,0.842914306640625,0.04535674303770065,0.04108068719506264,-0.00733038317412138
1701981524420902700,0.859902587890625,0.03634648025035858,0.12751811742782593,-0.10094548016786575
1701981524437904400,0.876904296875,0.016493361443281174,0.1950187236070633,-0.19089539349079132
1701981524454893300,0.893893310546875,-0.01817324012517929,0.17058411240577698,-0.24724771082401276
1701981524471882800,0.9108828125,-0.07696902006864548,0.11911872029304504,-0.2376265823841095
1701981524488879000,0.927879150390625,-0.13118331134319305,0.1771509200334549,-0.18188512325286865
1701981524505872100,0.9448720703125,-0.13454307615756989,0.2941316068172455,-0.13729196786880493
1701981524522862800,0.96186279296875,-0.10186178237199783,0.22861631214618683,-0.1466076523065567
1701981524539862500,0.978862548828125,-0.098502017557621,0.11041389405727386,-0.14538592100143433
1701981524556850400,0.995850341796875,-0.12889257073402405,0.035124752670526505,-0.07773260027170181
1701981524573847600,1.01284765625,-0.13927727937698364,-0.0455094613134861,0.020005837082862854
1701981524590835500,1.02983544921875,-0.13118331134319305,-0.06994406878948212,0.08674286305904388
1701981524607831300,1.046831298828125,-0.09315694868564606,-0.05757404863834381,0.08261952549219131
1701981524624815600,1.063815673828125,-0.03405573591589928,-0.025045474991202354,0.02779436856508255
1701981524641815300,1.080815185546875,-0.02275473065674305,0.03084869496524334,-0.016340645030140877
1701981524658810600,1.097810546875,-0.046731192618608475,-0.013133603148162365,-0.051312681287527084
1701981524675805700,1.1148056640625,-0.0679587572813034,-0.1492038369178772,-0.054367005825042725
1701981524692794600,1.131794677734375,-0.09636399149894714,-0.3550654351711273,0.0010690141934901476
1701981524709791700,1.148791748046875,-0.13988813757896423,-0.5629123449325562,0.07941248267889023
1701981524726784300,1.1657841796875,-0.15913039445877075,-0.6229298114776611,0.1518000066280365
1701981524743778300,1.1827783203125,-0.17333301901817322,-0.5117523670196533,0.18341228365898132
1701981524760767700,1.199767822265625,-0.15271630883216858,-0.39477166533470154,0.16019940376281738
1701981524777764900,1.216764892578125,-0.10231992602348328,-0.3827070891857147,0.07590000331401825
1701981524794758100,1.233758056640625,-0.08689557760953903,-0.44837507605552673,-0.025656340643763542
1701981524811750700,1.250750732421875,-0.11560624837875366,-0.4738787114620209,-0.06475171446800232
1701981524828740600,1.26774072265625,-0.13530665636062622,-0.36682456731796265,-0.032681290060281754
1701981524845738800,1.28473876953125,-0.12095131725072861,-0.27320948243141174,0.19074267148971558
1701981524862727400,1.3017275390625,-0.09056077152490616,-0.6000223755836487,0.8637634515762329
1701981524879724300,1.318724365234375,0.002138028386980295,-0.6247624158859253,0.7202101349830627
1701981524896716300,1.33571630859375,0.08155050873756409,0.024892758578062057,0.3243694305419922
1701981524913711900,1.3527119140625,0.08536841720342636,0.4665483236312866,-0.046731192618608475
1701981524930700300,1.3697001953125,0.16310101747512817,0.4427245855331421,-0.35414913296699524
1701981524947696600,1.386696533203125,0.2217440903186798,0.24434609711170197,-0.5222898125648499
1701981524964691000,1.40369091796875,0.22143864631652832,0.1290452778339386,-0.5148066878318787
1701981524981682000,1.420681884765625,0.20173825323581696,0.05207626149058342,-0.3880521357059479
1701981524998674700,1.4376748046875,0.192422553896904,-0.04214970022439957,-0.2018909603357315
1701981525015677700,1.454677734375,0.16630806028842926,-0.1459967941045761,-0.006872233934700489
1701981525032657200,1.4716572265625,0.12324206531047821,-0.25076019763946533,0.12568552792072296
1701981525049659600,1.48865966796875,0.1108720451593399,-0.3104722499847412,0.15103642642498016
1701981525066648800,1.50564892578125,0.10674870014190674,-0.2961169183254242,0.08536841720342636
1701981525083644400,1.52264453125,0.08368854224681854,-0.18005253374576569,0.013133603148162365
1701981525100633000,1.539633056640625,0.04856378585100174,-0.11026117950677872,-0.054367005825042725
1701981525117629200,1.556629150390625,0.04352414980530739,-0.08827003091573715,-0.12171489745378494
1701981525134623700,1.573623779296875,0.040164388716220856,-0.07696902006864548,-0.16737708449363708
1701981525151613200,1.59061328125,0.027641652151942253,-0.0529925599694252,-0.18188512325286865
1701981525168608500,1.6076083984375,0.02275473065674305,-0.03588833287358284,-0.16890424489974976
1701981525185598000,1.624597900390625,0.02229658141732216,-0.016340645030140877,-0.14935655891895294
1701981525202595000,1.641594970703125,0.030237829312682152,0.03375030308961868,-0.16172657907009125
1701981525219572500,1.658572509765625,0.03649919852614403,0.0754418596625328,-0.1996002197265625
1701981525236580000,1.675580078125,0.02733621932566166,0.07727445662021637,-0.22098049521446228
1701981525253578500,1.69257861328125,0.005955935921519995,0.04214970022439957,-0.20357084274291992
1701981525270565600,1.709565673828125,-0.014202617108821869,-0.025503624230623245,-0.16081027686595917
1701981525287563000,1.72656298828125,-0.014966198243200779,-0.038637228310108185,-0.10873401165008545
1701981525304555500,1.743555419921875,0.004886921960860491,-0.005192354787141085,-0.08124507963657379
1701981525321545700,1.760545654296875,0.015271631069481373,0.022602014243602753,-0.0754418596625328
1701981525338541000,1.777541015625,0.009773843921720982,0.02825251780450344,-0.06123924255371094
1701981525355536600,1.79453662109375,-0.011453723534941673,-0.004581489134579897,0.0039706239476799965
1701981525372525000,1.811525146484375,-0.014508049935102463,-0.059406645596027374,0.07452555745840073
1701981525389522400,1.8285224609375,-0.001527163083665073,-0.055894169956445694,0.10048733651638031
1701981525406515700,1.845515625,0.018020525574684143,-0.030085112899541855,0.0679587572813034
1701981525423505400,1.86250537109375,0.02229658141732216,-0.1310305893421173,0.025961773470044136
1701981525440493800,1.879493896484375,0.0377209298312664,-0.2295326143503189,0.04245513305068016
1701981525457494300,1.896494384765625,0.02779436856508255,-0.27947086095809937,0.14905111491680145
1701981525474489000,1.913489013671875,0.0022907445672899485,-0.252287358045578,0.25014930963516235
1701981525491478500,1.930478515625,-0.011453723534941673,-0.23777928948402405,0.2802344262599945
1701981525508473600,1.9474736328125,-0.02229658141732216,-0.24587325751781464,0.26862800121307373
1701981525525472000,1.964471923828125,-0.018325956538319588,-0.25961771607398987,0.22067506611347198
1701981525542454800,1.981454833984375,0.01191187184303999,-0.19058994948863983,0.07925976812839508
1701981525559455000,1.998455078125,0.030695978552103043,0.020005837082862854,-0.09865473955869675
1701981525576446700,2.01544677734375,0.038637228310108185,0.30115658044815063,-0.2356412708759308
1701981525593442300,2.0324423828125,0.0455094613134861,0.5296201705932617,-0.26251932978630066
1701981525610430700,2.0494306640625,0.08261952549219131,0.6293439269065857,-0.24297164380550385
1701981525627427000,2.066427001953125,0.12095131725072861,0.6866125464439392,-0.14523321390151978
1701981525644411400,2.083411376953125,0.1319468915462494,0.6018549799919128,0.02672535367310047
1701981525661411600,2.10041162109375,0.16172657907009125,0.4841107130050659,0.27290403842926025
1701981525678406000,2.117406005859375,0.08689557760953903,0.02535090781748295,0.4859432876110077
1701981525695401700,2.134401611328125,0.01572977937757969,-0.3877467215061188,0.41752639412879944
1701981525712390400,2.151390380859375,0.00809396430850029,-0.3689626157283783,0.2454151064157486
1701981525729387500,2.168387451171875,-0.031001411378383636,-0.19318613409996033,0.16584990918636322
1701981525746379300,2.185379150390625,-0.04917465150356293,-0.08445212244987488,0.15164729952812195
1701981525763374800,2.202374755859375,0.00045814894838258624,-0.01114829070866108,0.08659014850854874
1701981525780363500,2.219363525390625,0.04566217586398125,0.10674870014190674,-0.032681290060281754
1701981525797365000,2.236364990234375,0.06704246252775192,0.2768746614456177,-0.13744467496871948
1701981525814363000,2.25336279296875,0.08811730891466141,0.3859141170978546,-0.11927144229412079
1701981525831352300,2.270352294921875,0.14187344908714294,0.4495968222618103,0.02382374368607998
1701981525848336000,2.2873359375,0.19944749772548676,0.39416080713272095,0.22281309962272644
1701981525865342200,2.30434228515625,0.21151208877563477,0.18035796284675598,0.33399057388305664
1701981525882327300,2.321327392578125,0.1719585657119751,-0.22846360504627228,0.5290092825889587
1701981525899327500,2.338327392578125,0.08460483700037003,-0.5251913666725159,0.484416127204895
1701981525916312800,2.355312744140625,0.01618792861700058,-0.44806966185569763,0.2874121069908142
1701981525933305600,2.3723056640625,-0.09804387390613556,-0.18157969415187836,0.03741549700498581
1701981525950298600,2.389298583984375,-0.18325957655906677,0.0933096632361412,-0.10293079167604446
1701981525967292400,2.40629248046875,-0.21502456068992615,0.08964447677135468,-0.17608191072940826
1701981525984285000,2.423284912109375,-0.16783522069454193,-0.46990808844566345,0.05406157299876213
1701981526001276400,2.4402763671875,-0.08277224004268646,-0.6669121384620667,0.2600758671760559
1701981526018271700,2.457271728515625,-0.05375614017248154,-0.5247332453727722,0.28466320037841797
1701981526035267000,2.47426708984375,-0.0936150997877121,-0.2275473028421402,0.13209961354732513
1701981526052255700,2.491255859375,-0.12980885803699493,0.08918632566928864,-0.06398813426494598
1701981526069252900,2.5082529296875,-0.144622340798378,0.2444988191127777,-0.20876319706439972
1701981526086244900,2.525244873046875,-0.12553280591964722,0.2539672255516052,-0.27000242471694946
1701981526103240200,2.542240234375,-0.07987063378095627,0.19486601650714874,-0.21991148591041565
1701981526120222500,2.559222412109375,-0.005497787147760391,0.18051068484783173,-0.10201449692249298
1701981526137225000,2.576224853515625,0.03634648025035858,0.18157969415187836,-0.016340645030140877
1701981526154219500,2.593219482421875,0.051770828664302826,0.14676037430763245,0.001679879380390048
1701981526171209000,2.610208984375,0.09544769674539566,0.20662516355514526,0.1088867336511612
1701981526188202800,2.62720263671875,0.023518312722444534,-0.11331550031900406,0.3732386529445648
1701981526205201400,2.644201416015625,-0.014508049935102463,-0.5053382515907288,0.2977968156337738
1701981526222188300,2.661188232421875,-0.018936822190880775,-0.4190535545349121,0.06261368840932846
1701981526239185400,2.678185302734375,-0.0682641938328743,-0.04917465150356293,-0.06658431142568588
1701981526256177400,2.695177490234375,-0.11026117950677872,0.16065755486488342,-0.06017022579908371
1701981526273172700,2.7121728515625,-0.14446963369846344,0.03130684420466423,-0.0832303911447525
1701981526290161700,2.72916162109375,-0.13897185027599335,-0.08139779418706894,-0.14752395451068878
1701981526307157800,2.74615771484375,-0.15286903083324432,-0.10659598559141159,-0.17837265133857727
1701981526324154600,2.763154541015625,-0.15851953625679016,-0.11850785464048386,-0.15454891324043274
1701981526341139000,2.780138916015625,-0.11575896292924881,-0.14065171778202057,-0.0884227454662323
1701981526358136800,2.79713671875,-0.07238753139972687,-0.12629638612270355,0.008704829961061478
1701981526375132200,2.814132080078125,-0.040164388716220856,-0.09040805697441101,0.09834930300712585
1701981526392121000,2.83112109375,-0.007177666760981083,-0.010995574295520782,0.14508049190044403
1701981526409118200,2.8481181640625,0.004734205547720194,0.01863138936460018,0.11636982858181
1701981526426109200,2.865109130859375,0.01160643994808197,-0.004581489134579897,0.04734205827116966
1701981526443109600,2.882109619140625,0.01542434748262167,-0.012522737495601177,-0.015577063895761967
1701981526460096800,2.8990966796875,0.003359758760780096,-0.023365596309304237,-0.06154467165470123
1701981526477091800,2.916091796875,-0.007024950347840786,-0.0032070425804704428,-0.0809396430850029
1701981526494083300,2.933083251953125,-0.012675453908741474,0.038179077208042145,-0.07452555745840073
1701981526511072800,2.95007275390625,-0.009162978269159794,0.007024950347840786,-0.05925392732024193
1701981526528071400,2.967071533203125,-0.014202617108821869,-0.08704829961061478,-0.06001751124858856
1701981526545062000,2.984061767578125,-0.02076941914856434,-0.13668109476566315,-0.09926560521125793
1701981526562056400,3.001056396484375,-0.043218716979026794,-0.078343465924263,-0.16325373947620392
1701981526579047200,3.018047119140625,-0.04963280260562897,0.003054326167330146,-0.2070833146572113
1701981526596041700,3.035041748046875,-0.014202617108821869,0.04566217586398125,-0.25595253705978394
1701981526613037300,3.052037353515625,0.04688390716910362,0.06536258012056351,-0.2814561724662781
1701981526630027500,3.069027587890625,0.10873401165008545,0.05971207842230797,-0.2724458873271942
1701981526647021000,3.08602099609375,0.15286903083324432,0.016340645030140877,-0.2793181240558624
1701981526664020500,3.1030205078125,0.18509216606616974,0.021838432177901268,-0.2632829248905182
1701981526681007600,3.120007568359375,0.18585574626922607,0.13958270847797394,-0.18646661937236786
1701981526698011000,3.137010986328125,0.1872301995754242,0.2704605758190155,-0.10903944820165634
1701981526714996200,3.153996337890625,0.21380282938480377,0.2860376536846161,-0.04245513305068016
1701981526731988700,3.17098876953125,0.21380282938480377,0.24938572943210602,0.03481931984424591
1701981526748971300,3.18797119140625,0.1771509200334549,0.20799961686134338,0.09529497474431992
1701981526765974800,3.204974853515625,0.16233743727207184,0.11178833991289139,0.048258353024721146
1701981526782968300,3.22196826171875,0.16401731967926025,0.06627888232469559,-0.008857546374201775
1701981526799948300,3.2389482421875,0.16844609379768372,0.06780604273080826,0.005803219974040985
1701981526816955600,3.25595556640625,0.1615738570690155,0.08078692853450775,0.020922135561704636
1701981526833950000,3.272949951171875,0.14248432219028473,0.1791362315416336,-0.027641652151942253
1701981526850935300,3.289935302734375,0.13484850525856018,0.2710714638233185,-0.07269296050071716
1701981526867928600,3.306928466796875,0.1595885455608368,0.23029619455337524,-0.038179077208042145
1701981526884930800,3.323930908203125,0.16798794269561768,0.16050484776496887,0.054825156927108765
1701981526901919200,3.340919189453125,0.13209961354732513,0.04963280260562897,0.1160643994808197
1701981526918916400,3.357916259765625,0.12782354652881622,0.04917465150356293,0.17104226350784302
1701981526935908000,3.374908203125,0.16371189057826996,0.16630806028842926,0.16371189057826996
1701981526952900000,3.391900146484375,0.21762074530124664,0.23655757308006287,0.08414668589830399
1701981526969898200,3.408898193359375,0.2658790946006775,0.2542726695537567,0.03145955875515938
1701981526986888700,3.425888671875,0.2987131178379059,0.29535335302352905,0.10812314599752426
1701981527003882800,3.4428828125,0.318566232919693,0.2588541507720947,0.3744603991508484
1701981527020872400,3.45987255859375,0.3090978264808655,0.06414084881544113,0.6905831694602966
1701981527037863700,3.47686376953125,0.20494529604911804,-0.1514945775270462,0.8996517658233643
1701981527054863400,3.49386328125,0.09239336848258972,-0.3263547718524933,0.5988006591796875
1701981527071852000,3.51085205078125,0.1010981947183609,-0.13759739696979523,0.052381694316864014
1701981527088851700,3.527851806640625,0.09605856239795685,0.11148291081190109,-0.34437528252601624
1701981527105839000,3.544839111328125,0.02168571576476097,0.2070833146572113,-0.4607451260089874
1701981527122832600,3.56183251953125,-0.054367005825042725,-0.02229658141732216,-0.34834590554237366
1701981527139827700,3.57882763671875,-0.052228979766368866,-0.4300491213798523,0.09315694868564606
1701981527156821000,3.595821044921875,0.01160643994808197,-0.16737708449363708,0.2971859276294708
1701981527173815600,3.612815673828125,0.04566217586398125,0.02733621932566166,0.20693060755729675
1701981527190799400,3.62979931640625,0.054825156927108765,0.34376442432403564,0.021991148591041565
1701981527207799600,3.646799560546875,0.09300423413515091,0.5546656250953674,-0.06414084881544113
1701981527224795100,3.663795166015625,0.15974126756191254,0.631481945514679,-0.041691552847623825
1701981527241777400,3.68077734375,0.2454151064157486,0.5821545720100403,-0.02535090781748295
1701981527258782200,3.6977822265625,0.29107728600502014,0.5491678714752197,-0.009926560334861279
1701981527275774200,3.714774169921875,0.19486601650714874,0.2716823220252991,0.22449298202991486
1701981527292766200,3.73176611328125,0.045204028487205505,-0.3055853247642517,0.18188512325286865
1701981527309760500,3.748760498046875,0.031154127791523933,-0.3338378667831421,0.006261368747800589
1701981527326753800,3.76575390625,-0.0025961773935705423,-0.12110403180122375,-0.13698652386665344
1701981527343747300,3.782747314453125,-0.08765916526317596,0.12599095702171326,-0.17699819803237915
1701981527360738800,3.79973876953125,-0.20876319706439972,0.05314527451992035,-0.12324206531047821
1701981527377733000,3.816733154296875,-0.25992316007614136,-0.21441370248794556,-0.06200282275676727
1701981527394728700,3.833728759765625,-0.24663683772087097,-0.2970332205295563,-0.05497787147760391
1701981527411707600,3.850707763671875,-0.23350323736667633,-0.3208569586277008,-0.07391469180583954
1701981527428703500,3.867703369140625,-0.17837265133857727,-0.856433093547821,0.22999076545238495
1701981527445707800,3.884707763671875,-0.05146539583802223,-0.4593706727027893,0.29825496673583984
1701981527462698000,3.901697998046875,0.01542434748262167,0.030543262138962746,0.11652254313230515
1701981527479693600,3.918693603515625,-0.003512475173920393,0.37461310625076294,-0.08827003091573715
1701981527496686300,3.935686279296875,0.0507018156349659,0.5392413139343262,-0.1915062516927719
1701981527513681200,3.95268115234375,0.1598939746618271,0.3263547718524933,-0.08903361111879349
1701981527530670600,3.969670654296875,0.18249599635601044,-0.20326541364192963,0.3856086730957031
1701981527547666000,3.986666015625,0.1111774742603302,-0.5907067060470581,0.3952298164367676
1701981527564661500,4.00366162109375,0.09834930300712585,-0.3381139039993286,0.16294831037521362
1701981527581647600,4.020647705078125,0.002138028386980295,0.06582073122262955,-0.11530081182718277
1701981527598647000,4.03764697265625,-0.04077525436878204,0.35185837745666504,-0.2580905556678772
1701981527615642400,4.054642333984375,-0.11301007121801376,0.2919935882091522,-0.15363261103630066
1701981527632630300,4.07163037109375,-0.1875356286764145,-0.06459899991750717,-0.014202617108821869
1701981527649626400,4.08862646484375,-0.20311269164085388,-0.26251932978630066,0.02275473065674305
1701981527666619400,4.105619384765625,-0.19425514340400696,-0.3248275816440582,-0.02275473065674305
1701981527683614200,4.1226142578125,-0.17104226350784302,-0.3292563557624817,-0.09208793938159943
1701981527700603400,4.139603271484375,-0.16600263118743896,-0.18997909128665924,-0.06948592513799667
1701981527717598700,4.1565986328125,-0.18051068484783173,-0.06765332818031311,0.03298672288656235
1701981527734594300,4.17359423828125,-0.14340060949325562,-0.14737124741077423,0.18524488806724548
1701981527751582700,4.190582763671875,-0.08429940044879913,-0.04306599870324135,0.15913039445877075
1701981527768577000,4.207576904296875,-0.05054909735918045,0.03833179548382759,0.03237585723400116
1701981527785565200,4.224565185546875,-0.05406157299876213,0.0734565481543541,-0.018478672951459885
1701981527802572500,4.241572509765625,-0.056352317333221436,0.039248090237379074,-0.029168816283345222
1701981527819553300,4.25855322265625,-0.044135015457868576,0.17959438264369965,-0.027183502912521362
1701981527836552000,4.275552001953125,-0.025045474991202354,0.2629774808883667,0.005345070734620094
1701981527853536300,4.292536376953125,0.04153883829712868,0.18768835067749023,0.08674286305904388
1701981527870536400,4.309536376953125,0.09269879758358002,0.030543262138962746,0.12690725922584534
1701981527887531800,4.32653173828125,0.10644327104091644,0.01710422709584236,0.09285151958465576
1701981527904527000,4.343527099609375,0.11911872029304504,0.13775011897087097,0.024434609338641167
1701981527921515500,4.360515625,0.14706580340862274,0.2513710558414459,0.018020525574684143
1701981527938512000,4.377511962890625,0.12064588814973831,0.2695443034172058,0.26572638750076294
1701981527955506200,4.394506103515625,0.048716504126787186,-0.08185594528913498,0.3323107063770294
1701981527972496000,4.411495849609375,-0.007788531947880983,-0.2837468981742859,0.16493362188339233
1701981527989492000,4.428491943359375,-0.01542434748262167,-0.09300423413515091,-0.04245513305068016
1701981528006485000,4.445485107421875,-0.05513058975338936,0.14767667651176453,-0.11194105446338654
1701981528023479300,4.462479248046875,-0.11316278576850891,0.15882496535778046,-0.07406741380691528
1701981528040469000,4.479468994140625,-0.15500704944133759,-0.02382374368607998,-0.11881329119205475
1701981528057455900,4.496455810546875,-0.144622340798378,-0.13026700913906097,-0.19058994948863983
1701981528074459000,4.513458984375,-0.13209961354732513,-0.1797471046447754,-0.20173825323581696
1701981528091451600,4.53045166015625,-0.13209961354732513,-0.2548835277557373,-0.10583240538835526
1701981528108445400,4.547445556640625,-0.12660181522369385,-0.35873061418533325,0.039706241339445114
1701981528125438200,4.564438232421875,-0.12461651116609573,-0.4329507350921631,0.08445212244987488
1701981528142435600,4.581435546875,-0.11835514008998871,-0.4544837474822998,0.04902193695306778
1701981528159421400,4.59842138671875,-0.11743884533643723,-0.4495968222618103,0.010231993161141872
1701981528176418600,4.61541845703125,-0.12217304855585098,-0.3474296033382416,0.007788531947880983
1701981528193411300,4.632411376953125,-0.08857546001672745,-0.19853121042251587,-0.015118914656341076
1701981528210398500,4.6493984375,-0.02321287989616394,-0.05146539583802223,-0.1394299864768982
1701981528227387400,4.666387451171875,-0.012064588256180286,0.04535674303770065,-0.19288070499897003
1701981528244391700,4.6833916015625,-0.044745877385139465,0.013744467869400978,-0.11468994617462158
1701981528261384400,4.700384521484375,-0.03955352306365967,0.004886921960860491,-0.04703662544488907
1701981528278372400,4.717372314453125,-0.02367102913558483,0.05345070734620094,-0.04642575979232788
1701981528295371300,4.734371337890625,-0.035582900047302246,0.10262536257505417,-0.07116580009460449
1701981528312365000,4.751364990234375,-0.01191187184303999,0.14645494520664215,-0.06750060617923737
1701981528329357600,4.768357666015625,0.04352414980530739,0.1540907621383667,0.006719517521560192
1701981528346351400,4.785351318359375,0.10461067408323288,0.14385876059532166,0.051312681287527084
1701981528363344100,4.80234423828125,0.17531833052635193,0.19746218621730804,0.2838996350765228
1701981528380338000,4.819337890625,0.076052725315094,-0.154396191239357,0.40912699699401855
1701981528397330700,4.83633056640625,0.06658431142568588,-0.37690386176109314,0.25961771607398987
1701981528414324700,4.85332470703125,0.05467243865132332,-0.26771169900894165,-0.04948008432984352
1701981528431327200,4.8703271484375,0.00733038317412138,0.009162978269159794,-0.25824329257011414
1701981528448310800,4.887310791015625,0.028405234217643738,0.22296582162380219,-0.3956879675388336
1701981528465304300,4.90430419921875,0.00855211354792118,0.2817615866661072,-0.31612277030944824
1701981528482296600,4.921296630859375,-0.07330382615327835,-0.020005837082862854,-0.08491026610136032
1701981528499291600,4.938291748046875,-0.10674870014190674,-0.31932979822158813,0.12889257073402405
1701981528516284200,4.9552841796875,-0.0861319974064827,-0.4121813178062439,0.2750420868396759
1701981528533274400,4.9722744140625,-0.08048149943351746,-0.2848159074783325,0.3228422701358795
1701981528550273500,4.9892734375,-0.09666942805051804,-0.1621847152709961,0.26022860407829285
1701981528567263500,5.006263427734375,-0.08750644326210022,-0.04734205827116966,0.14767667651176453
1701981528584257500,5.023257568359375,-0.05772676691412926,0.07925976812839508,0.05100724846124649
1701981528601250000,5.04025,-0.02076941914856434,0.17333301901817322,-0.013439035043120384
1701981528618244000,5.057244140625,0.005955935921519995,0.2444988191127777,-0.0809396430850029
1701981528635236600,5.074236572265625,0.04642575979232788,0.3445279896259308,-0.08704829961061478
1701981528652230400,5.09123046875,0.09285151958465576,0.4764748811721802,-0.07528914511203766
1701981528669223200,5.10822314453125,0.10949759185314178,0.5896376967430115,-0.06551529467105865
1701981528686217200,5.12521728515625,0.12492194026708603,0.42959097027778625,-0.07773260027170181
1701981528703205600,5.14220556640625,0.16691893339157104,0.26251932978630066,-0.0679587572813034
1701981528720201000,5.159200927734375,0.23380866646766663,0.2093740701675415,-0.04764748737215996
1701981528737198800,5.17619873046875,0.2548835277557373,0.21700987219810486,-0.04566217586398125
1701981528754190000,5.193190185546875,0.2255619913339615,0.31612277030944824,-0.05100724846124649
1701981528771183000,5.21018310546875,0.16783522069454193,0.3280346393585205,0.022143865004181862
1701981528788177000,5.227177001953125,0.09636399149894714,0.054367005825042725,0.05115996301174164
1701981528805169400,5.24416943359375,0.06475171446800232,-0.09682214260101318,0.022143865004181862
1701981528822163500,5.26116357421875,0.03130684420466423,-0.07131851464509964,-0.03298672288656235
1701981528839156000,5.278156005859375,-0.02428189292550087,0.055741455405950546,-0.062460970133543015
1701981528856150000,5.29514990234375,-0.08827003091573715,0.10064005106687546,-0.06643159687519073
1701981528873150200,5.312150146484375,-0.13805554807186127,0.011301007121801376,-0.09575312584638596
1701981528890136600,5.329136474609375,-0.14782938361167908,-0.003817907767370343,-0.12049316614866257
1701981528907129000,5.346129150390625,-0.12553280591964722,-0.14416420459747314,0.01710422709584236
1701981528924122000,5.3631220703125,-0.11850785464048386,-0.23487769067287445,0.3153591752052307
1701981528941116700,5.38011669921875,-0.03985895588994026,0.09407325088977814,0.3397938013076782
1701981528958109700,5.397109619140625,0.021838432177901268,0.3674354553222656,0.11988230794668198
1701981528975102200,5.414102294921875,0.0959058403968811,0.5975789427757263,-0.08994990587234497
1701981528992096300,5.43109619140625,0.17318029701709747,0.49037206172943115,-0.14233160018920898
1701981529009089000,5.448089111328125,0.15790866315364838,0.09728029370307922,0.19914206862449646
1701981529026082800,5.465082763671875,0.07788532227277756,-0.384845107793808,0.25182920694351196
1701981529043075600,5.48207568359375,0.08857546001672745,-0.35124751925468445,0.17150041460990906
1701981529060069400,5.4990693359375,0.038179077208042145,-0.16279558837413788,-0.056352317333221436
1701981529077062100,5.516062255859375,-0.019394971430301666,-0.002138028386980295,-0.24205535650253296
1701981529094045200,5.533045166015625,-0.09422596544027328,-0.15714508295059204,-0.23976461589336395
1701981529111048400,5.55004833984375,-0.19883663952350616,-0.44974952936172485,-0.20036379992961884
1701981529128042800,5.567042724609375,-0.26542094349861145,-0.5467243790626526,-0.17638733983039856
1701981529145035300,5.58403515625,-0.265573650598526,-0.5203045010566711,-0.1287398487329483
1701981529162029000,5.601029052734375,-0.2376265823841095,-0.46273043751716614,-0.05161811411380768
1701981529179021800,5.618021728515625,-0.2041817009449005,-0.4434881806373596,0.04841107130050659
1701981529196015600,5.635015625,-0.19089539349079132,-0.36972618103027344,0.1440114825963974
1701981529213008400,5.65200830078125,-0.17821992933750153,-0.3176499307155609,0.15745051205158234
1701981529230002200,5.669002197265625,-0.16798794269561768,-0.25931230187416077,0.07131851464509964
1701981529246995200,5.6859951171875,-0.11239920556545258,-0.09376781433820724,-0.06612616032361984
1701981529263988700,5.70298876953125,-0.05192354694008827,0.11026117950677872,-0.22937989234924316
1701981529280981000,5.71998095703125,0.023365596309304237,0.2793181240558624,-0.3617849349975586
1701981529297975800,5.736975830078125,0.08460483700037003,0.31749722361564636,-0.32100969552993774
1701981529314966500,5.753966552734375,0.012675453908741474,0.47219884395599365,0.014813481830060482
1701981529331960800,5.7709609375,-0.05696318298578262,0.07009678333997726,0.1339322030544281
1701981529348957200,5.787957275390625,0.02229658141732216,-0.24388794600963593,0.0019853119738399982
1701981529365948400,5.804948486328125,-0.00427605677396059,-0.2515237629413605,-0.1569923609495163
1701981529382941200,5.821941162109375,-0.04657847434282303,-0.005497787147760391,-0.21807889640331268
1701981529399930400,5.838930419921875,-0.07987063378095627,0.11713340878486633,-0.28588494658470154
1701981529416932400,5.855932373046875,-0.05390885844826698,0.022143865004181862,-0.32681289315223694
1701981529433921500,5.872921630859375,-0.048105638474226,-0.08277224004268646,-0.2503020465373993
1701981529450914300,5.889914306640625,-0.03848451003432274,-0.12049316614866257,-0.10644327104091644
1701981529467908400,5.906908447265625,-0.004581489134579897,-0.08765916526317596,-0.0029016099870204926
1701981529484900900,5.92390087890625,-0.0064140851609408855,0.24602597951889038,0.25305092334747314
1701981529501893400,5.940893310546875,-0.12431107461452484,0.33796119689941406,0.4677700698375702
1701981529518887400,5.957887451171875,-0.025656340643763542,0.029016099870204926,0.3588833212852478
1701981529535881200,5.974881103515625,-0.018936822190880775,-0.09758572280406952,0.13179416954517365
1701981529552874000,5.9918740234375,-0.02871066704392433,-0.039706241339445114,-0.10461067408323288
1701981529569867800,6.00886767578125,-0.008246680721640587,0.057879481464624405,-0.23548854887485504
1701981529586850000,6.02585009765625,-0.003359758760780096,0.08796459436416626,-0.21762074530124664
1701981529603851800,6.042851806640625,-0.021991148591041565,0.08246681094169617,-0.10277807712554932
1701981529620850000,6.059849853515625,-0.01725694350898266,0.015271631069481373,0.025503624230623245
1701981529637841200,6.076841064453125,-0.008704829961061478,-0.048716504126787186,0.07971791177988052
1701981529654833700,6.093833740234375,0.003359758760780096,-0.06383541971445084,0.05390885844826698
1701981529671827700,6.11082763671875,0.016493361443281174,-0.05467243865132332,-0.02687807008624077
1701981529688820500,6.127820556640625,0.01466076634824276,0.004734205547720194,-0.12293662875890732
1701981529705814300,6.144814208984375,0.009621127508580685,0.09575312584638596,-0.16859880089759827
1701981529722806300,6.16180615234375,0.006719517521560192,0.12568552792072296,-0.10659598559141159
1701981529739801600,6.178801513671875,0.0039706239476799965,0.05161811411380768,0.015577063895761967
1701981529756793300,6.19579345703125,0,-0.02580905705690384,0.10735956579446793
1701981529773777400,6.21277734375,-0.00015271631127689034,-0.06551529467105865,0.11911872029304504
1701981529790770000,6.22977001953125,-0.0019853119738399982,-0.04795292019844055,0.04902193695306778
1701981529807774000,6.24677392578125,-0.007635815534740686,0.05268712714314461,-0.04703662544488907
1701981529824766700,6.2637666015625,-0.02321287989616394,0.11178833991289139,-0.09254608303308487
1701981529841760500,6.280760498046875,-0.020005837082862854,0.09743300825357437,-0.0682641938328743
1701981529858753300,6.297753173828125,-0.010842857882380486,0.023518312722444534,0.009468411095440388
1701981529875747000,6.3147470703125,-0.0007635815418325365,-0.05406157299876213,0.10064005106687546
1701981529892739800,6.33173974609375,0.0012217304902151227,-0.08628471940755844,0.12293662875890732
1701981529909733600,6.348733642578125,-0.0007635815418325365,-0.04001167416572571,0.06169738993048668
1701981529926726400,6.365726318359375,-0.005955935921519995,0.041691552847623825,-0.02977968007326126
1701981529943719400,6.382719482421875,-0.01114829070866108,0.08857546001672745,-0.08796459436416626
1701981529960713700,6.399713623046875,-0.005803219974040985,0.05146539583802223,-0.0809396430850029
1701981529977706800,6.416706787109375,0.00045814894838258624,-0.004581489134579897,-0.019853120669722557
1701981529994699500,6.433699462890625,0.004428773187100887,-0.035124752670526505,0.049785517156124115
1701981530011684400,6.450684326171875,0.0032070425804704428,-0.04932736977934837,0.08032877743244171
1701981530028683800,6.467683837890625,0.0012217304902151227,-0.009621127508580685,0.03894266113638878
1701981530045676000,6.484676025390625,0.0003054326225537807,0.07666359096765518,-0.038026362657547
1701981530062664700,6.501664794921875,0.001679879380390048,0.08735372871160507,-0.08643743395805359
1701981530079666700,6.518666748046875,0.01572977937757969,0.041233405470848083,-0.0685696229338646
1701981530096659500,6.535659423828125,0.013286318629980087,0.015118914656341076,0.0003054326225537807
1701981530113653200,6.5526533203125,0.012522737495601177,-0.02321287989616394,0.04642575979232788
1701981530130635300,6.56963525390625,-0.0012217304902151227,-0.005345070734620094,0.04046982154250145
1701981530147639600,6.5866396484375,-0.009621127508580685,0.0377209298312664,0.001527163083665073
1701981530164621800,6.603621826171875,-0.01114829070866108,0.05971207842230797,-0.029016099870204926
1701981530181623800,6.620623779296875,-0.010842857882380486,0.035582900047302246,-0.032681290060281754
1701981530198612000,6.637612060546875,-0.0025961773935705423,0.0012217304902151227,0.004123340360820293
1701981530215610400,6.6546103515625,0.009621127508580685,-0.009773843921720982,0.044745877385139465
1701981530232608300,6.671608154296875,0.013744467869400978,-0.009926560334861279,0.05406157299876213
1701981530249597000,6.688596923828125,0.0074830991216003895,0.014966198243200779,0.04153883829712868
1701981530266592300,6.70559228515625,0.0032070425804704428,0.020005837082862854,0.019089538604021072
1701981530283586000,6.7225859375,0.0024434609804302454,-0.007941247895359993,0.009010262787342072
1701981530300578800,6.739578857421875,0.009468411095440388,-0.009926560334861279,0.0065668015740811825
1701981530317572600,6.756572509765625,0.0064140851609408855,0.013591751456260681,0.001679879380390048
1701981530334565400,6.7735654296875,0.011301007121801376,0.031612277030944824,-0.0025961773935705423
1701981530351559400,6.790559326171875,0.007177666760981083,0.02871066704392433,0.011301007121801376
1701981530368552000,6.807552001953125,-0.0022907445672899485,0.010537425056099892,0.0403171069920063
1701981530385538300,6.824538330078125,-0.003359758760780096,-0.014355333521962166,0.04642575979232788
1701981530402538500,6.84153857421875,-0.003359758760780096,-0.014966198243200779,0.016798794269561768
1701981530419542000,6.8585419921875,0.0006108652451075613,0.022143865004181862,-0.02428189292550087
1701981530436526000,6.875526123046875,0.006108652334660292,0.04352414980530739,-0.04444044828414917
1701981530453518300,6.892518310546875,0.005955935921519995,0.04046982154250145,-0.016340645030140877
1701981530470511900,6.909511962890625,0.001679879380390048,0.020616702735424042,0.03084869496524334
1701981530487505700,6.926505615234375,-0.010231993161141872,0.002138028386980295,0.05345070734620094
1701981530504498400,6.94349853515625,-0.014508049935102463,-0.007024950347840786,0.03481931984424591
1701981530521492200,6.9604921875,-0.016493361443281174,0.01817324012517929,0.001832595793530345
1701981530538485000,6.977485107421875,-0.007788531947880983,0.030085112899541855,-0.02733621932566166
1701981530555479000,6.99447900390625,0.0024434609804302454,0.035124752670526505,-0.03985895588994026
1701981530572473000,7.01147314453125,0.0064140851609408855,0.03894266113638878,-0.03451388701796532
1701981530589470700,7.028470703125,0.010842857882380486,0.029168816283345222,-0.007024950347840786
1701981530606456300,7.045456298828125,0.011301007121801376,0.02122756652534008,0.02367102913558483
1701981530623454000,7.062453857421875,0.001679879380390048,0.01572977937757969,0.036193765699863434
1701981530640434000,7.079433837890625,-0.004886921960860491,0.020463986322283745,0.019853120669722557
1701981530657436200,7.096436279296875,0.00015271631127689034,0.013133603148162365,-0.005803219974040985
1701981530674433800,7.113433837890625,0.00733038317412138,-0.010690141469240189,-0.01817324012517929
1701981530691425000,7.130425048828125,0.012828170321881771,0.01878410577774048,-0.02321287989616394
1701981530708417800,7.147417724609375,0.010995574295520782,0.039248090237379074,-0.020005837082862854
1701981530725411600,7.16441162109375,0.010231993161141872,0.0403171069920063,0.00015271631127689034
1701981530742404400,7.181404296875,0.010690141469240189,0.023060163483023643,0.031612277030944824
1701981530759398100,7.198398193359375,0.00427605677396059,-0.006108652334660292,0.04214970022439957
1701981530776391000,7.215390869140625,0.0019853119738399982,-0.0006108652451075613,0.027641652151942253
1701981530793385200,7.23238525390625,0.009162978269159794,0.043676864355802536,-0.009010262787342072
1701981530810366700,7.24936669921875,0.013133603148162365,0.07651086896657944,-0.03940080851316452
1701981530827371500,7.26637158203125,0.013591751456260681,0.08216137439012527,-0.03634648025035858
1701981530844364300,7.2833642578125,0.009773843921720982,0.05955936014652252,0.002138028386980295
1701981530861347800,7.300347900390625,-0.001832595793530345,0.005650503560900688,0.03588833287358284
1701981530878350800,7.317350830078125,-0.0027488935738801956,-0.010537425056099892,0.05115996301174164
1701981530895345000,7.334344970703125,-0.0029016099870204926,0.02428189292550087,0.035124752670526505
1701981530912337400,7.35133740234375,-0.006261368747800589,0.05650503560900688,0.013897184282541275
1701981530929331200,7.368331298828125,-0.0025961773935705423,0.08765916526317596,0.011453723534941673
1701981530946320100,7.385320068359375,0.003054326167330146,0.059406645596027374,0.015882495790719986
1701981530963317800,7.40231787109375,0.00809396430850029,0.03405573591589928,0.005497787147760391
1701981530980310500,7.419310546875,0.008246680721640587,0.03588833287358284,-0.012522737495601177
1701981530997304300,7.43630419921875,0.01191187184303999,0.030695978552103043,-0.036041051149368286
1701981531014294800,7.453294677734375,0.0025961773935705423,-0.033139441162347794,-0.10812314599752426
1701981531031285200,7.47028515625,-0.004581489134579897,-0.031001411378383636,-0.19043724238872528
1701981531048283600,7.48728369140625,0.03894266113638878,0.05742133408784866,-0.1869247704744339
1701981531065277700,7.504277587890625,0.06062837690114975,0.34055736660957336,-0.0780380368232727
1701981531082257700,7.521257568359375,0.001679879380390048,0.42760565876960754,0.04337143152952194
1701981531099266800,7.538266845703125,0.008246680721640587,0.2838996350765228,0.06429356336593628
1701981531116257000,7.555257080078125,-0.013286318629980087,-0.09697485715150833,0.16050484776496887
1701981531133250800,7.572250732421875,-0.051312681287527084,0.02275473065674305,0.21074850857257843
1701981531150243600,7.58924365234375,-0.03436116874217987,0.23777928948402405,0.14156801998615265
1701981531167237400,7.6062373046875,-0.04596760869026184,0.37048977613449097,0.022449297830462456
1701981531184230100,7.623230224609375,-0.04352414980530739,0.45555275678634644,-0.08017606288194656
1701981531201224000,7.640223876953125,0.0019853119738399982,0.47219884395599365,-0.10934487730264664
1701981531218218500,7.657218505859375,0.04734205827116966,0.4392121136188507,-0.036651913076639175
1701981531235209000,7.674208984375,0.09728029370307922,0.35384368896484375,0.10293079167604446
1701981531252203300,7.691203369140625,0.1394299864768982,0.2050980031490326,0.22708915174007416
1701981531269194200,7.7081943359375,0.11423180252313614,-0.0754418596625328,0.5419901609420776
1701981531286193200,7.725193115234375,0.027488935738801956,-0.5015203952789307,0.470060795545578
1701981531303183600,7.74218359375,0.028557950630784035,-0.4196644127368927,0.19135354459285736
1701981531320174000,7.759174072265625,-0.009926560334861279,-0.15806138515472412,-0.13759739696979523
1701981531337173000,7.776173095703125,-0.027641652151942253,0.15790866315364838,-0.31520646810531616
1701981531354163200,7.7931630859375,-0.046273041516542435,0.29245173931121826,-0.26572638750076294
1701981531371157000,7.810156982421875,-0.07620543986558914,0.07208210229873657,-0.08109235763549805
1701981531388150000,7.82714990234375,-0.06444628536701202,-0.575893223285675,0.417679101228714
1701981531405141000,7.84414111328125,-0.014966198243200779,-0.3488040566444397,0.47219884395599365
1701981531422139000,7.861138916015625,-0.030085112899541855,-0.005345070734620094,0.1963931769132614
1701981531439127300,7.878127197265625,-0.01664607785642147,0.3672827184200287,-0.1333213448524475
1701981531456125400,7.89512548828125,0.012675453908741474,0.531758189201355,-0.34926220774650574
1701981531473113900,7.91211376953125,0.06719517707824707,0.521984338760376,-0.32360586524009705
1701981531490106000,7.929106201171875,0.12293662875890732,0.45402559638023376,-0.20036379992961884
1701981531507106800,7.94610693359375,0.15851953625679016,0.35582900047302246,-0.035124752670526505
1701981531524096300,7.96309619140625,0.1791362315416336,0.20952677726745605,0.17470745742321014
1701981531541087700,7.980087646484375,0.11972958594560623,-0.11774427443742752,0.4343251883983612
1701981531558084900,7.9970849609375,0.06429356336593628,-0.4297437071800232,0.32498031854629517
1701981531575076400,8.014076416015625,0.03848451003432274,-0.3217732608318329,0.030543262138962746
1701981531592069400,8.0310693359375,-0.042760565876960754,-0.16539175808429718,-0.20265454053878784
1701981531609063200,8.048063232421875,-0.14416420459747314,-0.14676037430763245,-0.23457226157188416
1701981531626055700,8.0650556640625,-0.20311269164085388,-0.31780263781547546,-0.17379115521907806
1701981531643049700,8.0820498046875,-0.23151792585849762,-0.4772384762763977,-0.09239336848258972
1701981531660042500,8.09904248046875,-0.21899518370628357,-0.6256787180900574,0.04260785132646561
1701981531677036300,8.116036376953126,-0.1915062516927719,-0.7644978761672974,0.1944078654050827
1701981531694018600,8.1330185546875,-0.16401731967926025,-0.8749117255210876,0.24419337511062622
1701981531711022000,8.15002197265625,-0.08628471940755844,-0.7394523620605469,0.1108720451593399
1701981531728016400,8.167016357421875,-0.02886338345706463,-0.35613444447517395,-0.14844025671482086
1701981531745009700,8.184009765625,0.012217304669320583,-0.03695734590291977,-0.3637702465057373
1701981531762002200,8.201002197265625,0.08689557760953903,0.1134682223200798,-0.42271876335144043
1701981531778996000,8.217995849609375,0.13454307615756989,0.13576480746269226,-0.3510948121547699
1701981531795989000,8.234989013671875,0.15073099732398987,0.18112154304981232,-0.06612616032361984
1701981531812982500,8.251982421875,0.03344487398862839,-0.07131851464509964,0.22327125072479248
1701981531829975600,8.2689755859375,0.007941247895359993,-0.328340083360672,0.11499538272619247
1701981531846959400,8.28595947265625,0.01114829070866108,-0.31184670329093933,-0.010690141469240189
1701981531863962000,8.302962158203124,-0.01160643994808197,-0.28267788887023926,0.04046982154250145
1701981531880956000,8.319955810546874,-0.058948494493961334,-0.4381431043148041,0.15561792254447937
1701981531897938200,8.336938232421875,-0.07864890247583389,-0.6609562039375305,0.15393804013729095
1701981531914944000,8.353944091796874,-0.054825156927108765,-0.6937901973724365,0.10567969083786011
1701981531931933700,8.37093359375,-0.022143865004181862,-0.7079927921295166,0.06994406878948212
1701981531948918500,8.38791845703125,0.010079276748001575,-0.6687447428703308,0.013439035043120384
1701981531965921800,8.404921875,0.009926560334861279,-0.5387831330299377,-0.05925392732024193
1701981531982915800,8.421915771484375,-0.008246680721640587,-0.2513710558414459,-0.08109235763549805
1701981531999908400,8.438908447265625,-0.03726277872920036,0.04566217586398125,0.10919216275215149
1701981532016902100,8.455902099609375,-0.04260785132646561,0.36132678389549255,0.19517144560813904
1701981532033895200,8.472895263671875,-0.009010262787342072,0.5707008838653564,0.0708603709936142
1701981532050888700,8.489888671875,0.04230241850018501,0.8211556077003479,-0.08521570265293121
1701981532067881700,8.5068818359375,0.11804971098899841,1.0282388925552368,-0.1644754707813263
1701981532084875500,8.52387548828125,0.23915374279022217,1.0900890827178955,-0.20128010213375092
1701981532101865700,8.54086572265625,0.32681289315223694,1.011745572090149,-0.1690569519996643
1701981532118864600,8.55786474609375,0.3124575614929199,0.7411322593688965,-0.052381694316864014
1701981532135854800,8.574854736328126,0.23945917189121246,0.34697145223617554,0.22602014243602753
1701981532152848600,8.5918486328125,0.09926560521125793,-0.2177734673023224,0.25671613216400146
1701981532169834200,8.608834228515626,0.07819075137376785,-0.28435778617858887,0.1310305893421173
1701981532186835500,8.62583544921875,0.03329215571284294,-0.1212567538022995,-0.07819075137376785
1701981532203828000,8.642827880859375,-0.05100724846124649,0.09483683109283447,-0.22510384023189545
1701981532220822000,8.659822021484375,-0.13225232064723969,0.14905111491680145,-0.3017674386501312
1701981532237814800,8.676814697265625,-0.1082758679986,0.22113321721553802,-0.30512720346450806
1701981532254808600,8.69380859375,-0.03497203439474106,0.37797287106513977,-0.23747386038303375
1701981532271801300,8.71080126953125,0.04398229718208313,0.45891252160072327,-0.12247848510742188
1701981532288795400,8.72779541015625,0.11911872029304504,0.5079344511032104,0.030237829312682152
1701981532305785000,8.74478515625,0.10476338863372803,0.41691553592681885,0.19837848842144012
1701981532322784300,8.7617841796875,0.09117163717746735,0.35094207525253296,0.32039880752563477
1701981532339764000,8.778763916015626,0.03039054572582245,0.12767083942890167,0.3214678466320038
1701981532356764000,8.795763916015625,-0.014813481830060482,-0.38011088967323303,0.1508837193250656
1701981532373765600,8.812765625,-0.02367102913558483,-0.44837507605552673,-0.05604688450694084
1701981532390755000,8.829755126953126,-0.04199698567390442,-0.07788532227277756,-0.16768251359462738
1701981532407747600,8.84674755859375,-0.14782938361167908,0.04444044828414917,-0.13118331134319305
1701981532424741400,8.863741455078125,-0.24785856902599335,-0.22968533635139465,-0.05650503560900688
1701981532441734400,8.880734375,-0.30833423137664795,-0.7480044960975647,0.3055853247642517
1701981532458709500,8.89770947265625,-0.30802878737449646,-0.7612907886505127,0.5398521423339844
1701981532475721000,8.914720947265625,-0.22143864631652832,-0.5419901609420776,0.33399057388305664
1701981532492714800,8.93171484375,-0.16065755486488342,-0.18478673696517944,0.05451972410082817
1701981532509707500,8.94870751953125,-0.07864890247583389,0.15775595605373383,-0.07895433157682419
1701981532526702300,8.965702392578125,0.05467243865132332,0.30863967537879944,-0.13958270847797394
1701981532543682600,8.9826826171875,0.14065171778202057,0.3423899710178375,-0.09239336848258972
1701981532560687900,8.99968798828125,0.09468411654233932,0.1267545372247696,0.265573650598526
1701981532577680600,9.0166806640625,0.07864890247583389,-0.29016098380088806,0.30863967537879944
1701981532594664000,9.033663818359376,0.07757988572120667,-0.3455969989299774,0.16569720208644867
1701981532611667200,9.050667236328126,0.020005837082862854,-0.1417207419872284,-0.04108068719506264
1701981532628661500,9.06766162109375,-0.018020525574684143,0.0757472887635231,-0.1719585657119751
1701981532645653800,9.08465380859375,-0.0630718395113945,0.09789115190505981,-0.22342395782470703
1701981532662647800,9.101647705078125,-0.048716504126787186,0.025045474991202354,-0.21380282938480377
1701981532679640600,9.118640625,0.008704829961061478,-0.009468411095440388,-0.11285735666751862
1701981532696634000,9.135634033203125,0.03848451003432274,-0.01664607785642147,0.017562376335263252
1701981532713627400,9.15262744140625,0.0529925599694252,-0.0024434609804302454,0.07498370856046677
1701981532730621000,9.169620849609375,0.052228979766368866,0.008704829961061478,0.04214970022439957
1701981532747613700,9.18661376953125,0.01038470957428217,-0.01618792861700058,-0.02229658141732216
1701981532764607500,9.203607421875,-0.006872233934700489,-0.06001751124858856,-0.0377209298312664
1701981532781592600,9.220592529296875,-0.029168816283345222,-0.10735956579446793,0.013897184282541275
1701981532798594000,9.237593994140624,-0.02886338345706463,-0.09468411654233932,0.05314527451992035
1701981532815589400,9.25458935546875,-0.00045814894838258624,-0.01664607785642147,0.05604688450694084
1701981532832580900,9.271580810546874,-0.009621127508580685,0.051770828664302826,0.02076941914856434
1701981532849573600,9.28857373046875,-0.05467243865132332,-0.3882048726081848,0.20234911143779755
1701981532866567400,9.3055673828125,-0.046273041516542435,-0.12507465481758118,0.3090978264808655
1701981532883560200,9.322560302734376,-0.04642575979232788,0.09407325088977814,0.1514945775270462
1701981532900554000,9.339553955078125,-0.02428189292550087,0.32910364866256714,-0.0734565481543541
1701981532917546800,9.356546630859375,0.009926560334861279,0.3605632185935974,-0.21303924918174744
1701981532934540500,9.37354052734375,0.056352317333221436,0.20555615425109863,-0.20433442294597626
1701981532951526000,9.39052587890625,0.09712757170200348,0.22403483092784882,-0.11133018881082535
1701981532968527000,9.407527099609375,0.12171489745378494,0.2532036304473877,-0.05375614017248154
1701981532985505300,9.42450537109375,0.10186178237199783,0.17302757501602173,-0.04108068719506264
1701981533002508800,9.4415087890625,0.08200865983963013,0.06062837690114975,-0.025045474991202354
1701981533019504000,9.458504150390626,0.06750060617923737,-0.1215621829032898,-0.0012217304902151227
1701981533036503000,9.4755029296875,0.030543262138962746,-0.2744311988353729,0.02367102913558483
1701981533053482500,9.492482421875,-0.005650503560900688,-0.21471913158893585,-0.010537425056099892
1701981533070487000,9.509487060546874,-0.08216137439012527,-0.039248090237379074,-0.09728029370307922
1701981533087480000,9.52647998046875,-0.10903944820165634,0.07956519722938538,-0.17012597620487213
1701981533104473600,9.5434736328125,-0.08933904021978378,0.08735372871160507,-0.16294831037521362
1701981533121466400,9.56046630859375,-0.06475171446800232,-0.019089538604021072,-0.08017606288194656
1701981533138460200,9.577460205078125,-0.03130684420466423,-0.1391245573759079,0.04260785132646561
1701981533155442400,9.5944423828125,-0.021380282938480377,-0.21914790570735931,0.14813482761383057
1701981533172447000,9.611447021484375,-0.04688390716910362,-0.22876903414726257,0.19425514340400696
1701981533189439700,9.628439697265625,-0.08185594528913498,-0.26801711320877075,0.19074267148971558
1701981533206433300,9.645433349609375,-0.08491026610136032,-0.2814561724662781,0.17516560852527618
1701981533223411500,9.662411376953125,-0.06582073122262955,-0.2606867551803589,0.14278975129127502
1701981533240409900,9.679409912109374,-0.05054909735918045,-0.285121351480484,0.14263702929019928
1701981533257418800,9.696418701171876,-0.07360926270484924,-0.41431936621665955,0.34804046154022217
1701981533274396700,9.713396728515624,-0.04153883829712868,-0.19486601650714874,0.3326161205768585
1701981533291399400,9.7303994140625,0.00366519158706069,-0.004581489134579897,0.10644327104091644
1701981533308393200,9.747393310546874,-0.005192354787141085,0.2591595947742462,-0.10720685124397278
1701981533325386000,9.764385986328126,0.017562376335263252,0.2750420868396759,-0.21013765037059784
1701981533342379800,9.7813798828125,0.08139779418706894,0.17333301901817322,-0.19226983189582825
1701981533359372500,9.79837255859375,0.11056660860776901,0.1774563491344452,-0.1359175145626068
1701981533376366600,9.81536669921875,0.11163562536239624,0.3107776939868927,-0.07513642311096191
1701981533393352000,9.83235205078125,0.0832303911447525,0.29993483424186707,0.001679879380390048
1701981533410353200,9.849353271484375,0.09193521738052368,0.21853704750537872,0.07208210229873657
1701981533427346000,9.866345947265625,0.08048149943351746,0.20754146575927734,0.22342395782470703
1701981533444321000,9.883321044921875,0.012217304669320583,-0.2733621895313263,0.2064724564552307
1701981533461332500,9.90033251953125,0.03833179548382759,-0.4612032473087311,0.0656680166721344
1701981533478326300,9.917326171875,0.032528575509786606,-0.3776674270629883,-0.05772676691412926
1701981533495301400,9.93430126953125,-0.007941247895359993,-0.09987647086381912,-0.08704829961061478
1701981533512312800,9.951312744140624,-0.09239336848258972,-0.10293079167604446,-0.06963863968849182
1701981533529305600,9.9683056640625,-0.11392636597156525,-0.1699732542037964,-0.11285735666751862
1701981533546308900,9.985308837890624,-0.11591167747974396,-0.1788308024406433,-0.12736541032791138
1701981533563292400,10.00229248046875,-0.11407908797264099,-0.21838432550430298,0.1134682223200798
1701981533580286200,10.0192861328125,-0.0630718395113945,-0.08460483700037003,0.1748601794242859
1701981533597278200,10.0362783203125,0.01160643994808197,0.28435778617858887,0.029016099870204926
1701981533614273500,10.0532734375,0.0328340083360672,0.5019785165786743,-0.05711590126156807
1701981533631265500,10.070265625,0.08200865983963013,0.50335294008255,-0.08139779418706894
1701981533648259300,10.08725927734375,0.16493362188339233,0.3271183371543884,-0.10797043144702911
1701981533665241600,10.10424169921875,0.23197607696056366,0.3399465084075928,-0.126143679022789
1701981533682243300,10.121243408203124,0.20845776796340942,0.3597996234893799,-0.10903944820165634
1701981533699241500,10.138241455078125,0.047800205647945404,0.05757404863834381,-0.09728029370307922
1701981533716232700,10.155232666015625,-0.05360342562198639,-0.38469240069389343,-0.17302757501602173
1701981533733225500,10.1722255859375,-0.07483099400997162,-0.43799036741256714,-0.17516560852527618
1701981533750219300,10.18921923828125,-0.1365283876657486,-0.19837848842144012,-0.0685696229338646
1701981533767212000,10.2062119140625,-0.2393064647912979,-0.2525927722454071,0.048716504126787186
1701981533784205800,10.223205810546874,-0.2799290120601654,-0.3459024429321289,0.06352998316287994
1701981533801198600,10.240198486328126,-0.2292271852493286,-0.3433062732219696,0.04932736977934837
1701981533818192400,10.2571923828125,-0.14340060949325562,-0.3527746796607971,0.004734205547720194
1701981533835181000,10.27418115234375,-0.07528914511203766,-0.21090123057365417,-0.02779436856508255
1701981533852179000,10.291178955078125,0.01878410577774048,0.09697485715150833,-0.024434609338641167
1701981533869172000,10.308171875,0.0809396430850029,0.26190847158432007,0.048716504126787186
1701981533886165800,10.325165771484375,0.04138612002134323,0.17547103762626648,0.23579397797584534
1701981533903158800,10.34215869140625,0.04917465150356293,-0.22586742043495178,0.18509216606616974
1701981533920152300,10.35915234375,0.06765332818031311,-0.5114469528198242,-0.01725694350898266
1701981533937134300,10.37613427734375,0.05726861581206322,-0.2002110779285431,-0.17027868330478668
1701981533954139000,10.393138916015625,-0.02275473065674305,0.18295414745807648,-0.16310101747512817
1701981533971132000,10.4101318359375,-0.09040805697441101,0.09544769674539566,-0.11636982858181
1701981533988125700,10.427125732421874,-0.12965615093708038,-0.09056077152490616,-0.13225232064723969
1701981534005118200,10.4441181640625,-0.1736384481191635,-0.16630806028842926,0.08811730891466141
1701981534022112300,10.4611123046875,-0.16172657907009125,-0.02977968007326126,0.05650503560900688
1701981534039105000,10.47810498046875,-0.1371392458677292,0.31261029839515686,-0.05925392732024193
1701981534056098600,10.4950986328125,-0.09789115190505981,0.46379944682121277,-0.054367005825042725
1701981534073091600,10.512091552734375,0.023060163483023643,0.4219551682472229,-0.03787364438176155
1701981534090071000,10.529071044921874,0.13301590085029602,0.3504839241504669,0.15821409225463867
1701981534107079000,10.546078857421875,0.13209961354732513,-0.11881329119205475,0.20036379992961884
1701981534124071200,10.5630712890625,0.09865473955869675,-0.3675881624221802,0.07376197725534439
1701981534141056300,10.58005615234375,0.02871066704392433,-0.1898263692855835,-0.08765916526317596
1701981534158058500,10.59705859375,-0.05513058975338936,0.04902193695306778,-0.1466076523065567
1701981534175051300,10.61405126953125,-0.11682797968387604,0.10277807712554932,-0.0731511116027832
1701981534192045300,10.63104541015625,-0.08903361111879349,-0.043676864355802536,-0.01924225501716137
1701981534209038000,10.6480380859375,-0.03481931984424591,-0.29336804151535034,0.04352414980530739
1701981534226031900,10.665031982421874,0.01725694350898266,-0.40912699699401855,0.18341228365898132
1701981534243025000,10.68202490234375,0.04199698567390442,-0.40882155299186707,0.3309362530708313
1701981534260018700,10.699018798828124,0.03222314268350601,-0.42180246114730835,0.4282165467739105
1701981534277011000,10.716010986328126,-0.013133603148162365,-0.36850446462631226,0.38011088967323303
1701981534294005000,10.7330048828125,-0.04230241850018501,-0.20861047506332397,0.18020524084568024
1701981534311011000,10.750010986328125,-0.04657847434282303,0.06414084881544113,-0.010231993161141872
1701981534327995600,10.76699560546875,-0.07040221989154816,0.2643519341945648,-0.059406645596027374
1701981534344982000,10.78398193359375,-0.0887281745672226,0.35216382145881653,0.13118331134319305
1701981534361978000,10.80097802734375,-0.032070424407720566,0.2970332205295563,0.25671613216400146
1701981534378971100,10.81797119140625,0.03955352306365967,0.4703662395477295,0.1927279829978943
1701981534395965000,10.83496484375,0.07177666574716568,0.5555819272994995,0.05421429127454758
1701981534412957700,10.851957763671875,0.11316278576850891,0.4259257912635803,-0.13377949595451355
1701981534429951500,10.868951416015625,0.18081611394882202,0.2496911734342575,-0.31612277030944824
1701981534446944500,10.885944580078124,0.17272214591503143,0.07635815441608429,-0.33857205510139465
1701981534463938300,10.902938232421874,0.11652254313230515,-0.1713477075099945,-0.40393465757369995
1701981534480930800,10.919930908203124,0.08292495459318161,-0.03436116874217987,-0.422871470451355
1701981534497914400,10.936914306640626,0.005650503560900688,0.17058411240577698,-0.29565876722335815
1701981534514916600,10.95391650390625,-0.0887281745672226,0.14233160018920898,-0.12263119965791702
1701981534531912400,10.970912353515626,-0.14294247329235077,0.05955936014652252,-0.08155050873756409
1701981534548904200,10.987904296875,-0.17043140530586243,-0.10644327104091644,-0.07483099400997162
1701981534565898000,11.00489794921875,-0.17287486791610718,-0.24404066801071167,0.029626963660120964
1701981534582890800,11.021890869140625,-0.13271047174930573,-0.39904773235321045,0.28756481409072876
1701981534599884500,11.038884521484375,-0.021380282938480377,-0.21578814089298248,0.18784105777740479
1701981534616877300,11.055877197265625,0.021380282938480377,-0.05604688450694084,-0.019547687843441963
1701981534633871400,11.072871337890625,0.03176499158143997,0.13454307615756989,-0.08246681094169617
1701981534650861600,11.089861572265624,0.022602014243602753,0.1333213448524475,0.016798794269561768
1701981534667860500,11.106860595703125,-0.010079276748001575,-0.18478673696517944,-0.1342376321554184
1701981534684853200,11.123853271484375,-0.009773843921720982,-0.050854530185461044,-0.14508049190044403
1701981534701831400,11.14083154296875,-0.046731192618608475,0.13668109476566315,-0.036193765699863434
1701981534718837200,11.157837158203124,-0.08124507963657379,0.07757988572120667,-0.001527163083665073
1701981534735831000,11.1748310546875,-0.07437284290790558,0.0708603709936142,-0.1215621829032898
1701981534752813300,11.191813232421875,-0.053297992795705795,0.1108720451593399,-0.1598939746618271
1701981534769817900,11.20881787109375,-0.047189339995384216,0.09300423413515091,-0.060322944074869156
1701981534786810600,11.225810546875,-0.041691552847623825,0.03573561832308769,0.10094548016786575
1701981534803804400,11.242804443359375,-0.00931569468230009,-0.11484266817569733,0.19135354459285736
1701981534820786700,11.25978662109375,0.027488935738801956,-0.1915062516927719,0.1765400618314743
1701981534837791000,11.276791015625,0.07635815441608429,-0.10461067408323288,0.04108068719506264
1701981534854781200,11.29378125,0.11010845750570297,0.09392052888870239,-0.0630718395113945
1701981534871780400,11.3107802734375,0.09483683109283447,0.3828597962856293,0.0630718395113945
1701981534888769500,11.32776953125,-0.003817907767370343,0.06185010448098183,0.12660181522369385
1701981534905765000,11.34476513671875,0.05406157299876213,-0.16691893339157104,0.04596760869026184
1701981534922757000,11.361757080078124,0.06001751124858856,-0.19394971430301666,-0.10797043144702911
1701981534939746800,11.378746826171875,0.044135015457868576,0.1137736514210701,-0.19318613409996033
1701981534956741000,11.3957412109375,-0.049785517156124115,0.16600263118743896,-0.17867808043956757
1701981534973740000,11.412739990234375,-0.054367005825042725,-0.0024434609804302454,-0.168751522898674
1701981534990720000,11.429719970703125,-0.02076941914856434,-0.07528914511203766,-0.12828169763088226
1701981535007724000,11.44672412109375,-0.04688390716910362,-0.11545353382825851,-0.04153883829712868
1701981535024716800,11.463716796875,-0.038637228310108185,-0.14767667651176453,0.04886921867728233
1701981535041708000,11.4807080078125,-0.027947084978222847,-0.10476338863372803,0.09407325088977814
1701981535058706200,11.4977060546875,-0.016493361443281174,-0.01664607785642147,0.08246681094169617
1701981535075697400,11.514697509765625,-0.0003054326225537807,-0.009010262787342072,0.03222314268350601
1701981535092690200,11.531690185546875,0.01114829070866108,0.005345070734620094,-0.014966198243200779
1701981535109687300,11.548687255859376,0.01863138936460018,-0.023976460099220276,-0.029626963660120964
1701981535126676700,11.5656767578125,-0.011453723534941673,-0.24266621470451355,0.15683965384960175
1701981535143670500,11.58267041015625,-0.024434609338641167,-0.16325373947620392,0.20143280923366547
1701981535160657400,11.599657470703125,-0.03527746722102165,-0.024434609338641167,0.07208210229873657
1701981535177654500,11.616654541015626,-0.02428189292550087,0.20112738013267517,-0.06475171446800232
1701981535194652700,11.633652587890625,-0.021838432177901268,0.03848451003432274,-0.05345070734620094
1701981535211648800,11.650648681640625,-0.001679879380390048,-0.23136521875858307,0.08445212244987488
1701981535228636700,11.66763671875,0.009010262787342072,-0.33017265796661377,0.1498146951198578
1701981535245631200,11.68463134765625,-0.005345070734620094,-0.32268956303596497,0.13698652386665344
1701981535262623200,11.701623291015625,-0.04856378585100174,-0.27320948243141174,0.14187344908714294
1701981535279617300,11.7186171875,-0.08918632566928864,-0.2716823220252991,0.14324790239334106
1701981535296609800,11.73560986328125,-0.09010262042284012,-0.2554943859577179,0.12736541032791138
1701981535313603800,11.752603759765625,-0.08536841720342636,-0.1843285858631134,0.10231992602348328
1701981535330596600,11.7695966796875,-0.09285151958465576,-0.12064588814973831,0.06169738993048668
1701981535347590400,11.78659033203125,-0.1414152979850769,-0.18799377977848053,0.076052725315094
1701981535364583200,11.803583251953125,-0.19135354459285736,-0.19898934662342072,0.1644754707813263
1701981535381569000,11.820569091796875,-0.128434419631958,0.01618792861700058,-0.01618792861700058
1701981535398572500,11.837572509765625,-0.052228979766368866,0.22586742043495178,-0.17547103762626648
1701981535415562500,11.8545625,0.01038470957428217,0.22831088304519653,-0.19746218621730804
1701981535432559600,11.8715595703125,0.08261952549219131,0.11575896292924881,-0.15851953625679016
1701981535449548300,11.88854833984375,0.12293662875890732,0.11316278576850891,-0.09010262042284012
1701981535466542800,11.90554296875,0.1238529309630394,0.16768251359462738,-0.03848451003432274
1701981535483537000,11.922536865234376,0.07849618047475815,0.09865473955869675,0.00427605677396059
1701981535500529700,11.93952978515625,0.03634648025035858,-0.023060163483023643,0.05726861581206322
1701981535517523500,11.9565234375,0.011759156361222267,-0.1290452778339386,0.07681630551815033
1701981535534516200,11.97351611328125,0.020616702735424042,-0.10415252298116684,0.04642575979232788
1701981535551509500,11.990509521484375,0.030237829312682152,0.006719517521560192,-0.04046982154250145
1701981535568503600,12.007503662109375,0.009773843921720982,0.08338310569524765,-0.12293662875890732
1701981535585496800,12.024496826171875,0.0064140851609408855,0.12140946835279465,-0.1547016203403473
1701981535602489300,12.0414892578125,0.029168816283345222,0.10430523753166199,-0.15057829022407532
1701981535619483400,12.0584833984375,0.021074850112199783,0.1644754707813263,-0.07559457421302795
1701981535636476200,12.07547607421875,0.009926560334861279,0.19364428520202637,0.03833179548382759
1701981535653470000,12.092469970703124,0.03634648025035858,0.07880161702632904,0.10659598559141159
1701981535670462700,12.109462646484374,0.08170322328805923,-0.003359758760780096,0.13484850525856018
1701981535687456800,12.126456787109374,0.019394971430301666,0.078343465924263,0.21700987219810486
1701981535704449300,12.14344921875,0.004734205547720194,-0.08216137439012527,0.11728613078594208
1701981535721443300,12.160443359375,0.03894266113638878,-0.1875356286764145,-0.050854530185461044
1701981535738436000,12.17743603515625,0.025656340643763542,-0.010842857882380486,-0.14813482761383057
1701981535755430700,12.1944306640625,-0.02229658141732216,0.20922134816646576,-0.1287398487329483
1701981535772422000,12.211421875,-0.02382374368607998,0.14248432219028473,-0.13209961354732513
1701981535789423000,12.228423095703125,0.020005837082862854,-0.0013744467869400978,-0.13087788224220276
1701981535806409700,12.24540966796875,0.031612277030944824,-0.01664607785642147,-0.04260785132646561
1701981535823403000,12.262403076171875,0.014049900695681572,-0.00427605677396059,0.05192354694008827
1701981535840396300,12.279396240234375,0.03084869496524334,0.018325956538319588,0.07406741380691528
1701981535857387800,12.2963876953125,0.04596760869026184,-0.0010690141934901476,0.04230241850018501
1701981535874384600,12.313384521484375,0.06414084881544113,0.0029016099870204926,0.029016099870204926
1701981535891378200,12.330378173828125,0.003817907767370343,0.08032877743244171,0.10506882518529892
1701981535908369200,12.347369140625,-0.009926560334861279,-0.04153883829712868,0.09789115190505981
1701981535925363200,12.36436328125,0.011759156361222267,-0.0988074541091919,0.02535090781748295
1701981535942355700,12.381355712890626,-0.006872233934700489,0.03940080851316452,-0.02321287989616394
1701981535959349800,12.398349853515626,-0.031154127791523933,0.19089539349079132,-0.0010690141934901476
1701981535976341000,12.415341064453125,-0.006261368747800589,0.12522737681865692,-0.01114829070866108
1701981535993337900,12.432337890625,0.01191187184303999,-0.021074850112199783,-0.08445212244987488
1701981536010329000,12.4493291015625,0.059864792972803116,-0.022907447069883347,-0.11514809727668762
1701981536027323000,12.466322998046875,0.0529925599694252,0.05390885844826698,-0.0607810914516449
1701981536044305400,12.483305419921875,0.04398229718208313,0.09987647086381912,0.015118914656341076
1701981536061309700,12.500309814453125,0.04856378585100174,0.062460970133543015,0.10002918541431427
1701981536078302500,12.517302490234375,0.04245513305068016,0.17333301901817322,0.244804248213768
1701981536095293700,12.534293701171874,-0.0003054326225537807,-0.004734205547720194,0.25335636734962463
1701981536112291600,12.55129150390625,0.048258353024721146,-0.15057829022407532,0.09758572280406952
1701981536129282800,12.56828271484375,0.06948592513799667,-0.061391957104206085,-0.06398813426494598
1701981536146275600,12.585275634765624,0.03420845419168472,0.15851953625679016,-0.11041389405727386
1701981536163269600,12.60226953125,-0.002138028386980295,0.15241087973117828,-0.13545936346054077
1701981536180262400,12.619262451171876,0.007177666760981083,0.020922135561704636,-0.08903361111879349
1701981536197256200,12.636256103515626,0.03573561832308769,-0.04398229718208313,0.04001167416572571
1701981536214241300,12.6532412109375,0.04535674303770065,-0.011301007121801376,0.11178833991289139
1701981536231243000,12.670242919921876,0.04566217586398125,0.0555887371301651,0.04902193695306778
1701981536248235500,12.687235595703125,0.06062837690114975,0.23029619455337524,-0.02871066704392433
1701981536265218800,12.70421875,0.054825156927108765,0.4054618179798126,-0.0607810914516449
1701981536282215000,12.72121484375,0.04703662544488907,0.44180828332901,-0.0656680166721344
1701981536299213000,12.738213134765624,0.0354301854968071,0.3920227587223053,-0.08307767659425735
1701981536316208600,12.755208740234375,0.07498370856046677,0.3295617997646332,-0.06062837690114975
1701981536333202700,12.77220263671875,0.09315694868564606,0.27382034063339233,0.05146539583802223
1701981536350195500,12.789195556640625,0.022907447069883347,0.09285151958465576,0.1472185254096985
1701981536367189500,12.806189453125,0.010995574295520782,-0.25503623485565186,0.08521570265293121
1701981536384182300,12.823182373046874,-0.004428773187100887,-0.4407392740249634,-0.06490442901849747
1701981536401173200,12.84017333984375,-0.047189339995384216,-0.2002110779285431,-0.19165897369384766
1701981536418167000,12.8571669921875,-0.14477506279945374,-0.028099801391363144,-0.1950187236070633
1701981536435165400,12.87416552734375,-0.20784689486026764,-0.09269879758358002,-0.14584407210350037
1701981536452143600,12.8911435546875,-0.16554448008537292,-0.10461067408323288,-0.0754418596625328
1701981536469146600,12.908146728515625,-0.1137736514210701,-0.18387043476104736,0.01664607785642147
1701981536486144800,12.925144775390624,-0.06505715101957321,-0.168751522898674,0.10781771689653397
1701981536503135700,12.9421357421875,0.012217304669320583,0.022602014243602753,0.10766500234603882
1701981536520126500,12.95912646484375,0.07238753139972687,0.13775011897087097,-0.00427605677396059
1701981536537124900,12.976124755859376,0.059864792972803116,0.18219055235385895,0.2151772826910019
1701981536554115300,12.993115234375,0.044745877385139465,-0.30146199464797974,0.2174680233001709
1701981536571109400,13.010109375,0.07330382615327835,-0.4966334402561188,0.0731511116027832
1701981536588102100,13.02710205078125,0.013744467869400978,-0.3885102868080139,-0.04886921867728233
1701981536605096000,13.044095947265625,-0.017409659922122955,0.028557950630784035,-0.05772676691412926
1701981536622094000,13.061093994140625,-0.10461067408323288,0.1287398487329483,0.013744467869400978
1701981536639082500,13.07808251953125,-0.14614951610565186,-0.013133603148162365,0.019394971430301666
1701981536656066800,13.09506689453125,-0.1540907621383667,-0.13668109476566315,0.059864792972803116
1701981536673058600,13.11205859375,-0.18081611394882202,-0.3107776939868927,0.2073887437582016
1701981536690062000,13.12906201171875,-0.194713294506073,-0.2616030275821686,0.28298333287239075
1701981536707045400,13.14604541015625,-0.12461651116609573,0.03039054572582245,0.09865473955869675
1701981536724048600,13.163048583984375,-0.05314527451992035,0.26083946228027344,-0.033139441162347794
1701981536741042400,13.18004248046875,0.03588833287358284,0.28557950258255005,-0.05772676691412926
1701981536758035200,13.19703515625,0.1062905490398407,0.21624629199504852,0.009162978269159794
1701981536775029000,13.214029052734375,0.07895433157682419,-0.00015271631127689034,0.2483167201280594
1701981536792021800,13.231021728515625,0.05467243865132332,-0.3032945990562439,0.10903944820165634
1701981536809015600,13.248015625,0.04199698567390442,-0.2025018334388733,-0.14248432219028473
1701981536826008600,13.265008544921875,0.02474004216492176,0.06627888232469559,-0.247094988822937
1701981536843002400,13.28200244140625,0.011759156361222267,0.1547016203403473,-0.1713477075099945
1701981536859995100,13.2989951171875,-0.04642575979232788,0.05619960278272629,-0.07727445662021637
1701981536876985600,13.315985595703125,-0.0607810914516449,0.1062905490398407,-0.029474247246980667
1701981536893977300,13.332977294921875,-0.06459899991750717,0.07696902006864548,0.15347988903522491
1701981536910980000,13.34997998046875,0.0025961773935705423,0.059864792972803116,0.21044307947158813
1701981536927968300,13.36696826171875,0.0988074541091919,0.3455969989299774,0.05161811411380768
1701981536944959700,13.383959716796875,0.12828169763088226,0.5890268087387085,-0.02382374368607998
1701981536961957400,13.400957275390626,0.18738290667533875,0.5500841736793518,-0.08552113175392151
1701981536978948900,13.417948974609375,0.2591595947742462,0.24877487123012543,-0.19532416760921478
1701981536995941600,13.434941650390625,0.2750420868396759,0.26083946228027344,0.01618792861700058
1701981537012935700,13.451935791015625,0.1843285858631134,-0.0933096632361412,0.03680463135242462
1701981537029928400,13.468928466796875,0.12538009881973267,-0.17088955640792847,-0.08277224004268646
1701981537046922200,13.485922119140625,0.024892758578062057,0.001679879380390048,-0.22678372263908386
1701981537063922700,13.502922607421874,-0.0835358202457428,0.11636982858181,-0.24923302233219147
1701981537080898600,13.519898681640624,-0.16554448008537292,-0.04764748737215996,-0.23594669997692108
1701981537097901600,13.536901611328124,-0.17592918872833252,-0.10949759185314178,-0.24205535650253296
1701981537114895600,13.5538955078125,-0.18417587876319885,-0.17470745742321014,-0.21930062770843506
1701981537131879700,13.570879638671874,-0.19196440279483795,-0.5820018649101257,0.07040221989154816
1701981537148882200,13.587882080078124,-0.1472185254096985,-0.4717406928539276,0.3225368559360504
1701981537165875000,13.604875,-0.11102475970983505,-0.11209376901388168,0.22815817594528198
1701981537182868700,13.62186865234375,-0.01771509274840355,0.1950187236070633,0.029168816283345222
1701981537199861500,13.638861572265625,0.02932153269648552,0.2695443034172058,-0.11423180252313614
1701981537216853500,13.655853515625,0.07864890247583389,0.1973094791173935,-0.038637228310108185
1701981537233850000,13.67285009765625,0.011759156361222267,-0.03451388701796532,0.20173825323581696
1701981537250838800,13.6898388671875,0.04092797264456749,-0.29886582493782043,0.19364428520202637
1701981537267839700,13.70683984375,0.058337632566690445,-0.2399173229932785,0.010842857882380486
1701981537284827100,13.7238271484375,-0.0029016099870204926,0.15836681425571442,-0.15195272862911224
1701981537301821400,13.740821533203125,-0.028557950630784035,0.45524731278419495,-0.15577064454555511
1701981537318811100,13.75781103515625,-0.03527746722102165,0.3735440969467163,-0.1621847152709961
1701981537335812400,13.774812255859375,0.0022907445672899485,0.20586158335208893,-0.22571471333503723
1701981537352802000,13.791802001953124,0.052839845418930054,0.12828169763088226,-0.18478673696517944
1701981537369790500,13.80879052734375,0.07910704612731934,0.1791362315416336,-0.023365596309304237
1701981537386793200,13.825793212890625,0.09269879758358002,0.19532416760921478,0.14294247329235077
1701981537403781400,13.842781494140626,0.12171489745378494,0.14233160018920898,0.23167064785957336
1701981537420775400,13.859775390625,0.09682214260101318,0.05192354694008827,0.3497203588485718
1701981537437768200,13.876768310546876,0.07880161702632904,-0.26343563199043274,0.1921171247959137
1701981537454762000,13.893761962890625,0.05421429127454758,-0.1310305893421173,-0.040622539818286896
1701981537471754800,13.910754638671875,-0.0010690141934901476,0.10903944820165634,-0.1837177276611328
1701981537488748800,13.927748779296875,-0.06154467165470123,0.1638645976781845,-0.19486601650714874
1701981537505741300,13.9447412109375,-0.10354165732860565,0.10644327104091644,-0.1463022232055664
1701981537522720500,13.961720458984376,-0.10995574295520782,0.07131851464509964,-0.05543602257966995
1701981537539730000,13.97872998046875,-0.11148291081190109,-0.1846340149641037,0.0705549344420433
1701981537556719900,13.995719970703124,-0.09178250283002853,-0.49816060066223145,0.24663683772087097
1701981537573714700,14.012714599609374,-0.09712757170200348,-0.5135849714279175,0.3813326358795166
1701981537590708700,14.029708740234375,-0.07925976812839508,-0.35582900047302246,0.3023782968521118
1701981537607701500,14.046701416015624,-0.016493361443281174,-0.23518311977386475,0.12858712673187256
1701981537624695000,14.063695068359374,0.036193765699863434,-0.10002918541431427,-0.042760565876960754
1701981537641688000,14.08068798828125,0.060475658625364304,-0.0354301854968071,-0.12018773704767227
1701981537658681900,14.097681884765626,0.07849618047475815,0.013591751456260681,-0.07254024595022202
1701981537675674600,14.114674560546876,0.08399397134780884,0.1108720451593399,0.02428189292550087
1701981537692668400,14.13166845703125,0.06765332818031311,0.06582073122262955,0.10231992602348328
1701981537709660200,14.14866015625,-0.02428189292550087,0.15943582355976105,0.20754146575927734
1701981537726653200,14.165653076171875,-0.06933320313692093,-0.012064588256180286,0.09575312584638596
1701981537743647700,14.182647705078125,-0.019394971430301666,-0.09758572280406952,-0.07757988572120667
1701981537760641800,14.199641845703125,-0.04398229718208313,0.0682641938328743,-0.1371392458677292
1701981537777624000,14.2166240234375,-0.07590000331401825,0.12064588814973831,-0.11224649101495743
1701981537794628600,14.233628662109375,-0.04917465150356293,0.046273041516542435,-0.10705413669347763
1701981537811621000,14.25062109375,-0.015271631069481373,-0.0455094613134861,-0.1391245573759079
1701981537828615700,14.26761572265625,0.02580905705690384,-0.03573561832308769,-0.11881329119205475
1701981537845608000,14.28460791015625,0.02076941914856434,0.003054326167330146,-0.03237585723400116
1701981537862601700,14.301601806640624,0.015271631069481373,-0.06352998316287994,0.059864792972803116
1701981537879594800,14.3185947265625,0.014813481830060482,0.044135015457868576,0.1963931769132614
1701981537896588300,14.33558837890625,-0.018936822190880775,-0.09300423413515091,0.22021691501140594
1701981537913581000,14.3525810546875,0.003359758760780096,-0.2588541507720947,0.05864306539297104
1701981537930575000,14.3695751953125,0.03497203439474106,-0.10995574295520782,-0.1638645976781845
1701981537947567900,14.38656787109375,-0.04505131021142006,0.22143864631652832,-0.2822197377681732
1701981537964560400,14.403560302734375,-0.09529497474431992,0.2974913716316223,-0.3286454975605011
1701981537981554400,14.420554443359375,-0.0913243517279625,0.2793181240558624,-0.3121521472930908
1701981537998549500,14.437549560546875,-0.10461067408323288,0.2541199326515198,-0.23976461589336395
1701981538015541200,14.454541259765625,-0.08888089656829834,0.15256360173225403,-0.1313360333442688
1701981538032535000,14.47153515625,-0.07269296050071716,0.033597588539123535,0.02535090781748295
1701981538049527800,14.48852783203125,-0.10155634582042694,0.009468411095440388,0.1108720451593399
1701981538066521600,14.505521484375,-0.059864792972803116,0.1875356286764145,-0.026572637259960175
1701981538083514400,14.522514404296874,0.05100724846124649,0.2967278063297272,-0.1598939746618271
1701981538100508200,14.539508056640624,0.06765332818031311,0.2580905556678772,0.20402899384498596
1701981538117501200,14.556501220703124,0.047800205647945404,-0.2376265823841095,0.2606867551803589
1701981538134485800,14.57348583984375,0.1290452778339386,-0.347276896238327,0.13271047174930573
1701981538151490300,14.590490234375,0.09498954564332962,-0.11301007121801376,-0.029474247246980667
1701981538168481500,14.6074814453125,0.05054909735918045,0.1794416606426239,-0.12186761945486069
1701981538185464300,14.62446435546875,0.02122756652534008,0.3000875413417816,-0.07559457421302795
1701981538202465500,14.641465576171875,-0.030695978552103043,0.07971791177988052,-0.03145955875515938
1701981538219463700,14.658463623046876,-0.04535674303770065,-0.49984049797058105,0.20754146575927734
1701981538236455000,14.675454833984375,-0.06811147183179855,-0.4254676401615143,0.4735732674598694
1701981538253447700,14.69244775390625,-0.05864306539297104,-0.09911288321018219,0.3338378667831421
1701981538270441700,14.709441650390625,-0.02122756652534008,0.09162978827953339,0.04902193695306778
1701981538287434800,14.726434814453125,0.00931569468230009,0.09544769674539566,-0.12431107461452484
1701981538304428300,14.74342822265625,0.06062837690114975,-0.001679879380390048,-0.1615738570690155
1701981538321421000,14.760421142578124,0.10476338863372803,-0.047189339995384216,-0.1059851199388504
1701981538338414800,14.777414794921874,0.04932736977934837,-0.1788308024406433,0.2588541507720947
1701981538355407600,14.79440771484375,0.01863138936460018,-0.5410739183425903,0.3862195611000061
1701981538372401000,14.81140087890625,0.03787364438176155,-0.4893030524253845,0.25732699036598206
1701981538389395000,14.82839501953125,-0.012675453908741474,-0.1892155110836029,0.01618792861700058
1701981538406378200,14.845378173828125,-0.05268712714314461,0.23335053026676178,-0.19776763021945953
1701981538423378400,14.86237841796875,-0.14233160018920898,0.3162754774093628,-0.2064724564552307
1701981538440377600,14.879377685546874,-0.19624045491218567,-0.10965031385421753,0.04077525436878204
1701981538457367600,14.896367431640625,-0.15546520054340363,-0.0630718395113945,-0.0024434609804302454
1701981538474361300,14.913361328125,-0.11713340878486633,0.10247264802455902,-0.0959058403968811
1701981538491354400,14.930354248046875,-0.08032877743244171,0.2220495194196701,-0.06963863968849182
1701981538508348200,14.94734814453125,-0.007788531947880983,0.14355333149433136,-0.03787364438176155
1701981538525341000,14.9643408203125,0.0682641938328743,0.05619960278272629,-0.02779436856508255
1701981538542334700,14.981334716796875,0.0913243517279625,0.02015855349600315,-0.10491610318422318
1701981538559327700,14.99832763671875,0.08765916526317596,-0.06734789162874222,-0.13148874044418335
1701981538576332300,15.015332275390625,0.048716504126787186,-0.23839016258716583,0.14523321390151978
1701981538593310200,15.032310302734375,0.012217304669320583,-0.4499022662639618,0.17241671681404114
1701981538610312000,15.04931201171875,0.022143865004181862,-0.3871358633041382,0.05665775015950203
1701981538627300900,15.06630078125,-0.03375030308961868,-0.13668109476566315,-0.03527746722102165
1701981538644294700,15.083294677734376,-0.10262536257505417,-0.026114489883184433,-0.08200865983963013
1701981538661287400,15.100287353515625,-0.14584407210350037,-0.040164388716220856,-0.16630806028842926
1701981538678281500,15.117281494140625,-0.17821992933750153,-0.11820242553949356,-0.21594086289405823
1701981538695274200,15.134274169921875,-0.17562375962734222,-0.26511552929878235,0.031154127791523933
1701981538712268000,15.15126806640625,-0.1160643994808197,-0.3211624026298523,0.06261368840932846
1701981538729260800,15.1682607421875,-0.07467827945947647,-0.12461651116609573,-0.035124752670526505
1701981538746254800,15.1852548828125,-0.021991148591041565,0.05742133408784866,-0.08567385375499725
1701981538763247400,15.202247314453125,0.055741455405950546,0.19868391752243042,-0.09514226019382477
1701981538780241400,15.219241455078125,0.09514226019382477,0.19883663952350616,-0.15729780495166779
1701981538797223700,15.2362236328125,0.13973543047904968,0.22602014243602753,-0.19226983189582825
1701981538814228000,15.25322802734375,0.10354165732860565,0.23945917189121246,-0.1820378452539444
1701981538831220700,15.270220703125,0.044745877385139465,0.25732699036598206,-0.16019940376281738
1701981538848214500,15.287214599609374,0.03756821155548096,0.29107728600502014,-0.1514945775270462
1701981538865207800,15.304207763671876,0.02519819140434265,0.2915354371070862,-0.11331550031900406
1701981538882201300,15.321201416015626,-0.014813481830060482,0.12095131725072861,-0.06185010448098183
1701981538899194000,15.338194091796876,-0.04948008432984352,-0.28267788887023926,0.20494529604911804
1701981538916188200,15.355188232421876,-0.04993823543190956,0.12247848510742188,0.21288654208183289
1701981538933181000,15.372180908203125,-0.014813481830060482,0.2817615866661072,0.05665775015950203
1701981538950174700,15.3891748046875,0.054367005825042725,0.19822576642036438,-0.03527746722102165
1701981538967167500,15.40616748046875,0.10277807712554932,0.04703662544488907,-0.08216137439012527
1701981538984161300,15.423161376953125,0.13439035415649414,-0.023060163483023643,-0.13148874044418335
1701981539001151500,15.4401513671875,0.11026117950677872,-0.06062837690114975,-0.11392636597156525
1701981539018135300,15.45713525390625,0.03680463135242462,0.1310305893421173,0.03741549700498581
1701981539035140600,15.474140625,0.03481931984424591,-0.04505131021142006,0.09972374886274338
1701981539052132000,15.491132080078126,0.0403171069920063,-0.23167064785957336,0.09437867999076843
1701981539069121300,15.508121337890625,0.02275473065674305,-0.12980885803699493,0.09789115190505981
1701981539086121500,15.52512158203125,-0.02779436856508255,-0.016951510682702065,0.10125091671943665
1701981539103114000,15.542114013671876,-0.030237829312682152,-0.056810468435287476,0.006719517521560192
1701981539120107800,15.559107666015626,0.00045814894838258624,-0.08964447677135468,-0.12751811742782593
1701981539137100800,15.576100830078126,0.0455094613134861,0.05772676691412926,-0.18967366218566895
1701981539154094600,15.593094482421876,0.05955936014652252,0.17501288652420044,-0.1388191282749176
1701981539171087400,15.61008740234375,0.03680463135242462,0.15057829022407532,-0.007941247895359993
1701981539188081400,15.627081298828125,0.029016099870204926,0.09392052888870239,0.13744467496871948
1701981539205070000,15.644070068359374,-0.021532999351620674,-0.03084869496524334,0.2741257846355438
1701981539222067700,15.661067626953125,-0.006261368747800589,-0.2379320114850998,0.24007004499435425
1701981539239065000,15.678065185546876,0.007941247895359993,-0.30405816435813904,0.019394971430301666
1701981539256054500,15.695054443359375,-0.04688390716910362,0.058337632566690445,-0.20082195103168488
1701981539273047300,15.71204736328125,-0.10720685124397278,0.380721777677536,-0.34437528252601624
1701981539290037000,15.729037109375,-0.09926560521125793,0.4127921760082245,-0.40393465757369995
1701981539307033900,15.746033935546874,-0.09712757170200348,0.31902438402175903,-0.2782491147518158
1701981539324028000,15.76302783203125,-0.10170906037092209,0.15683965384960175,-0.04917465150356293
1701981539341000200,15.780000244140625,-0.07559457421302795,-0.012064588256180286,0.12507465481758118
1701981539358017300,15.797017333984375,-0.051770828664302826,-0.07712173461914062,0.21334469318389893
1701981539375007200,15.81400732421875,-0.019089538604021072,-0.006108652334660292,0.16019940376281738
1701981539392001300,15.831001220703126,0.05314527451992035,0.09636399149894714,0.16844609379768372
1701981539408994000,15.847994140625,0.0007635815418325365,-0.16630806028842926,0.1586722433567047
1701981539425985300,15.8649853515625,0.04352414980530739,-0.26832255721092224,-0.008399397134780884
1701981539442983400,15.8819833984375,0.058337632566690445,-0.15775595605373383,-0.08918632566928864
1701981539459964200,15.898964111328125,0.025503624230623245,0.003512475173920393,-0.04459316283464432
1701981539476968700,15.91596875,0.021074850112199783,0.01970040425658226,0.07880161702632904
1701981539493959700,15.932959716796875,0.014966198243200779,-0.09712757170200348,0.1270599663257599
1701981539510938000,15.949938232421875,0.013286318629980087,-0.08949175477027893,0.07925976812839508
1701981539527945200,15.9669453125,0.03222314268350601,0.017562376335263252,0.021991148591041565
1701981539544943400,15.983943359375,0.04444044828414917,0.08475755155086517,0.02168571576476097
1701981539561934600,16.0009345703125,0.04581489413976669,0.19914206862449646,0.05253441259264946
1701981539578927400,16.01792724609375,0.04398229718208313,0.31261029839515686,-0.014202617108821869
1701981539595908600,16.03490869140625,0.07299839705228806,0.2942843437194824,-0.12492194026708603
1701981539612917000,16.0519169921875,0.12797626852989197,0.304210901260376,-0.13041973114013672
1701981539629908000,16.068907958984376,0.13286319375038147,0.15714508295059204,-0.09025534242391586
1701981539646900700,16.085900634765625,0.10735956579446793,-0.1108720451593399,0.15500704944133759
1701981539663894500,16.10289453125,0.06490442901849747,-0.4922046661376953,0.10262536257505417
1701981539680887300,16.11988720703125,0.04963280260562897,-0.4150829315185547,-0.15317445993423462
1701981539697881000,16.136881103515623,-0.022907447069883347,-0.09392052888870239,-0.34834590554237366
1701981539714874000,16.1538740234375,-0.06765332818031311,0.09437867999076843,-0.32360586524009705
1701981539731868200,16.1708681640625,-0.11148291081190109,-0.047800205647945404,-0.17256943881511688
1701981539748850200,16.18785009765625,-0.12217304855585098,-0.2611449062824249,-0.02687807008624077
1701981539765854500,16.2048544921875,-0.11423180252313614,-0.3335324227809906,0.04108068719506264
1701981539782847200,16.22184716796875,-0.10430523753166199,-0.23655757308006287,0.05467243865132332
1701981539799841000,16.238841064453126,-0.0861319974064827,-0.12660181522369385,0.053297992795705795
1701981539816834000,16.255833984375,-0.05513058975338936,-0.05406157299876213,0.056810468435287476
1701981539833827800,16.272827880859374,-0.021074850112199783,-0.023976460099220276,0.0884227454662323
1701981539850820900,16.28982080078125,0.020616702735424042,0.011759156361222267,0.13637566566467285
1701981539867823400,16.3068232421875,0.06169738993048668,0.0009162978967651725,0.1417207419872284
1701981539884807200,16.32380712890625,0.08628471940755844,-0.014202617108821869,0.08811730891466141
1701981539901801200,16.34080126953125,0.06719517707824707,-0.05054909735918045,-0.00015271631127689034
1701981539918783500,16.357783447265625,0.039095375686883926,-0.03833179548382759,-0.061391957104206085
1701981539935799000,16.374799072265624,0.01924225501716137,0.020922135561704636,-0.06627888232469559
1701981539952780800,16.39178076171875,0.020005837082862854,0.05971207842230797,-0.02733621932566166
1701981539969774600,16.408774658203125,0.029626963660120964,0.08002334833145142,0.025503624230623245
1701981539986769000,16.425768798828123,0.03344487398862839,0.07192938029766083,0.038179077208042145
1701981540003761200,16.44276123046875,0.059406645596027374,0.11178833991289139,0.06352998316287994
1701981540020754000,16.45975390625,0.05054909735918045,0.10659598559141159,0.056352317333221436
1701981540037748000,16.476748046875,0.0708603709936142,0.10201449692249298,0.002138028386980295
1701981540054752500,16.49375244140625,0.0858265683054924,0.17302757501602173,-0.048105638474226
1701981540071748000,16.510748046875,0.08170322328805923,0.21899518370628357,-0.07162395119667053
1701981540088726800,16.527726806640626,0.06108652427792549,0.2165517359972,-0.05451972410082817
1701981540105722000,16.54472216796875,0.03130684420466423,0.16859880089759827,0.0003054326225537807
1701981540122714000,16.561714111328126,0.0039706239476799965,0.06627888232469559,0.04993823543190956
1701981540139708000,16.5787080078125,-0.011759156361222267,-0.07681630551815033,0.07635815441608429
1701981540156700700,16.59570068359375,-0.03405573591589928,-0.40362921357154846,0.2600758671760559
1701981540173694500,16.612694580078124,-0.03848451003432274,0.011453723534941673,0.17699819803237915
1701981540190687500,16.6296875,-0.02076941914856434,0.15073099732398987,-0.09941831976175308
1701981540207681300,16.646681396484375,0.017867809161543846,0.11102475970983505,-0.20372356474399567
1701981540224674000,16.663674072265625,0.03237585723400116,-0.03039054572582245,-0.14966198801994324
1701981540241667800,16.680667724609375,0.04199698567390442,-0.04337143152952194,-0.046731192618608475
1701981540258660600,16.69766064453125,0.008399397134780884,-0.06612616032361984,0.02535090781748295
1701981540275653000,16.714653076171874,0.010079276748001575,-0.02076941914856434,0.08979719132184982
1701981540292638500,16.731638427734374,-0.008704829961061478,-0.05192354694008827,0.12980885803699493
1701981540309641200,16.74864111328125,-0.035582900047302246,-0.13286319375038147,0.1359175145626068
1701981540326634000,16.765634033203124,-0.04886921867728233,-0.304210901260376,0.18814650177955627
1701981540343611000,16.78261083984375,-0.08246681094169617,-0.34086281061172485,0.26939156651496887
1701981540360620800,16.799620849609376,-0.06108652427792549,-0.06643159687519073,0.07925976812839508
1701981540377614800,16.81661474609375,-0.04596760869026184,0.14019356667995453,-0.12690725922584534
1701981540394607400,16.833607421875,-0.020922135561704636,0.0861319974064827,-0.12919799983501434
1701981540411601400,16.850601318359374,0.005803219974040985,-0.06872233748435974,0.009162978269159794
1701981540428594200,16.86759423828125,-0.004428773187100887,-0.19394971430301666,0.1014036312699318
1701981540445577200,16.8845771484375,-0.03940080851316452,-0.15393804013729095,0.06582073122262955
1701981540462580700,16.901580810546875,-0.06688974797725677,0.013744467869400978,-0.06398813426494598
1701981540479574300,16.91857421875,-0.07696902006864548,0.030543262138962746,-0.15821409225463867
1701981540496568000,16.935568115234375,-0.08231408894062042,-0.10094548016786575,-0.15806138515472412
1701981540513561300,16.952561279296877,-0.06612616032361984,-0.26419922709465027,-0.04459316283464432
1701981540530553600,16.9695537109375,-0.058948494493961334,-0.21105393767356873,0.12171489745378494
1701981540547548700,16.986548583984376,-0.06062837690114975,0.07009678333997726,0.07528914511203766
1701981540564540700,17.003540771484374,-0.029016099870204926,0.21151208877563477,-0.09758572280406952
1701981540581534700,17.02053466796875,-0.0024434609804302454,0.18127426505088806,-0.16752979159355164
1701981540598527500,17.037527587890626,0.02672535367310047,0.02076941914856434,-0.11392636597156525
1701981540615521300,17.054521240234376,0.032070424407720566,-0.04046982154250145,-0.03039054572582245
1701981540632514300,17.071514404296874,0.013591751456260681,0.09422596544027328,0.02535090781748295
1701981540649508400,17.08850830078125,-0.027488935738801956,0.18127426505088806,0.07880161702632904
1701981540666500900,17.1055009765625,-0.03955352306365967,0.05772676691412926,0.18784105777740479
1701981540683494700,17.12249462890625,-0.06200282275676727,-0.20463985204696655,0.4437935948371887
1701981540700486400,17.139486328125,-0.044135015457868576,-0.043218716979026794,0.2716823220252991
1701981540717482500,17.156482421875,-0.04306599870324135,0.2767219543457031,-0.05100724846124649
1701981540734464000,17.173464111328126,-0.022449297830462456,0.4199698567390442,-0.3113885521888733
1701981540751468000,17.190468017578127,0.04566217586398125,0.2730567753314972,-0.3260493278503418
1701981540768451300,17.207451416015626,0.08078692853450775,0.09285151958465576,-0.09834930300712585
1701981540785455900,17.224455810546875,0.1010981947183609,0.03955352306365967,0.11148291081190109
1701981540802445800,17.24144580078125,0.0633772686123848,0.020922135561704636,0.26893341541290283
1701981540819441400,17.25844140625,0.01817324012517929,-0.1667662113904953,0.05665775015950203
1701981540836416000,17.275416015625,-0.004886921960860491,0.10033461451530457,-0.14263702929019928
1701981540853428200,17.29242822265625,-0.0607810914516449,0.3248275816440582,-0.2054034322500229
1701981540870421000,17.3094208984375,-0.027183502912521362,0.2373211532831192,-0.17592918872833252
1701981540887415000,17.3264150390625,0.05161811411380768,0.15271630883216858,-0.11316278576850891
1701981540904407600,17.343407470703124,0.13408492505550385,0.09636399149894714,-0.12186761945486069
1701981540921399000,17.36039892578125,0.19165897369384766,0.1319468915462494,-0.1411098688840866
1701981540938397000,17.37739697265625,0.19303341209888458,0.2773328125476837,-0.06414084881544113
1701981540955388200,17.39438818359375,0.1621847152709961,0.37827831506729126,0.07452555745840073
1701981540972381000,17.411380859375,0.13530665636062622,0.3349068760871887,0.14569136500358582
1701981540989375000,17.428375,0.11468994617462158,0.20326541364192963,0.10430523753166199
1701981541006367500,17.445367431640626,0.029932396486401558,0.03680463135242462,0.1371392458677292
1701981541023361500,17.462361572265625,0.00427605677396059,-0.35750889778137207,0.07223481684923172
1701981541040354300,17.479354248046874,0.012675453908741474,-0.4709770977497101,-0.07742717117071152
1701981541057348600,17.4963486328125,-0.005650503560900688,-0.20555615425109863,-0.17150041460990906
1701981541074340900,17.5133408203125,-0.10812314599752426,0.03695734590291977,-0.08903361111879349
1701981541091335000,17.5303349609375,-0.17088955640792847,-0.06352998316287994,-0.01924225501716137
1701981541108327700,17.54732763671875,-0.14996741712093353,-0.23396138846874237,-0.031001411378383636
1701981541125311000,17.56431103515625,-0.1036943718791008,-0.24755313992500305,-0.07422012835741043
1701981541142314500,17.581314453125,-0.06643159687519073,-0.19914206862449646,-0.10720685124397278
1701981541159305700,17.5983056640625,-0.009926560334861279,-0.08933904021978378,-0.05192354694008827
1701981541176303900,17.615303955078126,0.0377209298312664,0.1495092660188675,0.1537853181362152
1701981541193295000,17.632295166015624,-0.014355333521962166,0.07406741380691528,0.417679101228714
1701981541210297600,17.649297607421875,0.03573561832308769,-0.29504790902137756,0.34055736660957336
1701981541227285800,17.66628564453125,0.06322455406188965,-0.4616613984107971,0.05268712714314461
1701981541244274400,17.6832744140625,0.05268712714314461,-0.25045475363731384,-0.20036379992961884
1701981541261268200,17.700268310546875,-0.0659734457731247,0.09056077152490616,-0.2278527319431305
1701981541278261200,17.71726123046875,-0.18005253374576569,0.06215553730726242,-0.1963931769132614
1701981541295255000,17.734255126953126,-0.14126259088516235,-0.098502017557621,-0.15592335164546967
1701981541312247800,17.751247802734376,-0.10567969083786011,-0.10613783448934555,0.022907447069883347
1701981541329242400,17.768242431640626,-0.12171489745378494,-0.016493361443281174,0.18646661937236786
1701981541346231300,17.785231201171875,-0.07559457421302795,0.06520986557006836,0.21578814089298248
1701981541363231000,17.80223095703125,-0.009926560334861279,0.0959058403968811,0.13271047174930573
1701981541380221200,17.81922119140625,0.05849034711718559,0.13866640627384186,0.22388210892677307
1701981541397214000,17.8362138671875,0.019547687843441963,-0.16691893339157104,0.40103304386138916
1701981541414209000,17.853208984375,0.045204028487205505,-0.38148534297943115,0.24465152621269226
1701981541431201800,17.870201904296874,0.022907447069883347,-0.2574796974658966,-0.025503624230623245
1701981541448195300,17.8871953125,0.025503624230623245,0.07864890247583389,-0.21044307947158813
1701981541465187800,17.904187744140625,-0.025656340643763542,0.2590068578720093,-0.09941831976175308
1701981541482181400,17.921181396484375,-0.08949175477027893,0.1466076523065567,0.24373523890972137
1701981541499175200,17.938175048828125,-0.0708603709936142,0.07559457421302795,0.24404066801071167
1701981541516168000,17.95516796875,0.0007635815418325365,0.17623461782932281,-0.010690141469240189
1701981541533161700,17.97216162109375,0.07406741380691528,0.42638394236564636,-0.18051068484783173
1701981541550152200,17.989152099609374,0.17088955640792847,0.46303585171699524,-0.15882496535778046
1701981541567148500,18.0061484375,0.22846360504627228,0.3562871515750885,-0.04993823543190956
1701981541584144000,18.023143798828126,0.24342979490756989,0.3058907687664032,-0.01970040425658226
1701981541601135000,18.040135009765624,0.23151792585849762,0.16264286637306213,-0.01817324012517929
1701981541618128100,18.057128173828126,0.15622878074645996,-0.2402227520942688,0.010995574295520782
1701981541635122000,18.074121826171876,0.07635815441608429,-0.3966042697429657,-0.04688390716910362
1701981541652114700,18.09111474609375,-0.005650503560900688,-0.1739438772201538,-0.19288070499897003
1701981541669108500,18.1081083984375,-0.10247264802455902,0.10018189996480942,-0.252287358045578
1701981541686101500,18.1251015625,-0.2070833146572113,0.01618792861700058,-0.17302757501602173
1701981541703095300,18.14209521484375,-0.23900102078914642,-0.3246748745441437,0.04688390716910362
1701981541720088000,18.159088134765625,-0.16737708449363708,-0.2716823220252991,0.15103642642498016
1701981541737081900,18.176081787109375,-0.14416420459747314,-0.07116580009460449,0.07116580009460449
1701981541754075000,18.193074951171877,-0.09911288321018219,0.04505131021142006,0.012828170321881771
1701981541771068700,18.210068603515627,-0.030543262138962746,0.08536841720342636,-0.0027488935738801956
1701981541788061700,18.227061767578125,0.02779436856508255,0.09575312584638596,-0.04688390716910362
1701981541805050000,18.244050048828125,0.05864306539297104,0.08460483700037003,-0.08918632566928864
1701981541822046200,18.261046142578124,0.04214970022439957,0.1316414624452591,0.1417207419872284
1701981541839044000,18.278044189453126,0.0019853119738399982,-0.1443169116973877,0.19898934662342072
1701981541856034800,18.295034912109376,0.03084869496524334,-0.15225815773010254,0.1365283876657486
1701981541873029000,18.312029052734374,0.007024950347840786,0.030237829312682152,0.021074850112199783
1701981541890021400,18.329021484375,-0.023365596309304237,0.09468411654233932,-0.055894169956445694
1701981541907015400,18.346015380859374,-0.06551529467105865,-0.00045814894838258624,-0.08964447677135468
1701981541924008200,18.36300830078125,-0.0656680166721344,-0.10934487730264664,-0.11194105446338654
1701981541941003800,18.380003662109374,-0.04459316283464432,-0.14905111491680145,-0.06933320313692093
1701981541957993500,18.396993408203127,-0.04138612002134323,-0.18997909128665924,0.04566217586398125
1701981541974988800,18.41398876953125,-0.013897184282541275,-0.1281289905309677,0.14996741712093353
1701981541991979500,18.4309794921875,-0.022907447069883347,-0.04596760869026184,0.10965031385421753
1701981542008977700,18.447977783203125,-0.05054909735918045,0.0024434609804302454,-0.00855211354792118
1701981542025968400,18.464968505859375,-0.056810468435287476,0.05451972410082817,-0.09804387390613556
1701981542042962200,18.481962158203125,-0.02886338345706463,0.08429940044879913,-0.13958270847797394
1701981542059983400,18.4989833984375,0.02932153269648552,0.019547687843441963,-0.1417207419872284
1701981542076949000,18.515948974609376,0.06490442901849747,0.0003054326225537807,-0.07941248267889023
1701981542093941800,18.532941650390626,0.04092797264456749,-0.021838432177901268,0.02626720629632473
1701981542110935600,18.549935546875,0.003054326167330146,0.003512475173920393,0.09666942805051804
1701981542127928300,18.56692822265625,-0.0025961773935705423,0.03833179548382759,0.08827003091573715
1701981542144922400,18.58392236328125,0.032070424407720566,0.08338310569524765,0.03390302136540413
1701981542161915100,18.6009150390625,0.10644327104091644,0.20265454053878784,0.011759156361222267
1701981542178909000,18.617908935546875,0.11804971098899841,0.21288654208183289,0.03756821155548096
1701981542195901700,18.634901611328125,0.09636399149894714,0.23182335495948792,0.04001167416572571
1701981542212895700,18.651895751953123,0.0913243517279625,0.3104722499847412,-0.009010262787342072
1701981542229888500,18.668888427734377,0.11255192011594772,0.3139847218990326,-0.03878994286060333
1701981542246878700,18.685878662109374,0.11698069423437119,0.22892175614833832,0.015118914656341076
1701981542263872300,18.702872314453124,0.07254024595022202,0.076052725315094,0.08811730891466141
1701981542280872000,18.719871826171875,-0.005192354787141085,-0.048105638474226,0.1514945775270462
1701981542297862000,18.73686181640625,-0.053297992795705795,-0.09728029370307922,0.17776179313659668
1701981542314855700,18.753855712890626,-0.0780380368232727,-0.13377949595451355,0.15164729952812195
1701981542331848700,18.7708486328125,-0.09285151958465576,-0.26633724570274353,0.08521570265293121
1701981542348842500,18.787842529296874,-0.13576480746269226,-0.33047810196876526,0.01817324012517929
1701981542365835300,18.804835205078124,-0.15347988903522491,-0.22937989234924316,-0.03955352306365967
1701981542382829000,18.8218291015625,-0.11056660860776901,-0.08979719132184982,-0.11698069423437119
1701981542399822000,18.838822021484376,-0.06352998316287994,-0.01466076634824276,-0.014202617108821869
1701981542416815900,18.85581591796875,-0.035124752670526505,0.11071932315826416,0.028099801391363144
1701981542433808600,18.87280859375,0.038637228310108185,0.33948835730552673,-0.1598939746618271
1701981542450802400,18.889802490234374,0.06291911751031876,0.4876231849193573,-0.2866485118865967
1701981542467784700,18.90678466796875,0.07757988572120667,0.4853324294090271,-0.2854267954826355
1701981542484787000,18.923786865234376,0.12950342893600464,0.2428189367055893,-0.20341812074184418
1701981542501784300,18.940784423828124,0.13973543047904968,0.024892758578062057,-0.11468994617462158
1701981542518775800,18.95777587890625,0.11102475970983505,0.02321287989616394,-0.06322455406188965
1701981542535768800,18.974768798828126,0.08414668589830399,0.11331550031900406,0.05910121276974678
1701981542552762600,18.9917626953125,-0.020922135561704636,-0.3176499307155609,0.05757404863834381
1701981542569755400,19.00875537109375,-0.02871066704392433,-0.38988474011421204,-0.0754418596625328
1701981542586739000,19.025739013671874,-0.06490442901849747,-0.22479841113090515,-0.16142113506793976
1701981542603742200,19.0427421875,-0.1518000066280365,-0.10965031385421753,-0.10522153973579407
1701981542620736000,19.059736083984376,-0.2356412708759308,-0.2545780837535858,-0.0013744467869400978
1701981542637729000,19.07672900390625,-0.2811507284641266,-0.3400992155075073,0.023365596309304237
1701981542654722600,19.09372265625,-0.26832255721092224,-0.3985895812511444,0.0074830991216003895
1701981542671712800,19.110712646484377,-0.19028452038764954,-0.3321579694747925,-0.015118914656341076
1701981542688712000,19.1277119140625,-0.09315694868564606,-0.1488984078168869,-0.07284568250179291
1701981542705686800,19.144686767578126,0.02275473065674305,0.11041389405727386,-0.14752395451068878
1701981542722696700,19.16169677734375,0.08155050873756409,0.21624629199504852,-0.18814650177955627
1701981542739689000,19.17868896484375,0.09728029370307922,0.31520646810531616,0.007788531947880983
1701981542756682800,19.195682861328127,0.09804387390613556,-0.13530665636062622,0.12431107461452484
1701981542773673200,19.212673095703124,0.11789698898792267,-0.44135013222694397,0.02122756652534008
1701981542790659000,19.2296591796875,0.09193521738052368,-0.32009339332580566,-0.15103642642498016
1701981542807665000,19.246664794921877,-0.014049900695681572,0.126143679022789,-0.1661553531885147
1701981542824656100,19.26365625,-0.11041389405727386,0.2373211532831192,-0.15454891324043274
1701981542841649000,19.28064892578125,-0.06551529467105865,0.23915374279022217,-0.15790866315364838
1701981542858643000,19.297642822265626,-0.07101308554410934,0.1814269721508026,-0.13301590085029602
1701981542875633200,19.314633056640623,-0.04902193695306778,0.08445212244987488,-0.04566217586398125
1701981542892632000,19.331632080078126,-0.032681290060281754,0.024892758578062057,0.0679587572813034
1701981542909622300,19.348622314453124,-0.005039638374000788,0.07910704612731934,0.10735956579446793
1701981542926616300,19.3656162109375,0.033139441162347794,0.15561792254447937,0.08811730891466141
1701981542943609300,19.382609375,0.08170322328805923,0.15745051205158234,0.01618792861700058
1701981542960603000,19.399602783203125,0.1241583600640297,0.19822576642036438,0.1869247704744339
1701981542977596000,19.416595947265623,0.0936150997877121,-0.17119498550891876,0.2076941877603531
1701981542994589700,19.433589599609373,0.048258353024721146,-0.2298380434513092,0.03329215571284294
1701981543011582500,19.45058251953125,-0.014508049935102463,-0.08185594528913498,-0.16752979159355164
1701981543028576500,19.467576416015625,-0.046731192618608475,0.20112738013267517,-0.20861047506332397
1701981543045569000,19.484569091796875,-0.09636399149894714,0.2076941877603531,-0.07620543986558914
1701981543062563000,19.50156298828125,-0.06001751124858856,0.024434609338641167,0.017409659922122955
1701981543079555800,19.518555908203126,-0.030085112899541855,-0.11957687139511108,0.03573561832308769
1701981543096539100,19.5355390625,-0.003817907767370343,-0.13271047174930573,0.014049900695681572
1701981543113542400,19.55254248046875,0.012828170321881771,-0.11316278576850891,0.02825251780450344
1701981543130523400,19.5695234375,0.016340645030140877,-0.04917465150356293,0.05146539583802223
1701981543147529200,19.586529296875,0.025961773470044136,-0.01710422709584236,0.07971791177988052
1701981543164523500,19.6035234375,0.013591751456260681,-0.06765332818031311,0.09285151958465576
1701981543181508900,19.6205087890625,0.0024434609804302454,-0.18081611394882202,0.12690725922584534
1701981543198506500,19.637506591796875,-0.020463986322283745,-0.2638937830924988,0.16752979159355164
1701981543215502600,19.654502685546873,-0.02382374368607998,-0.24068090319633484,0.1950187236070633
1701981543232496600,19.67149658203125,-0.01863138936460018,-0.23090706765651703,0.1872301995754242
1701981543249489400,19.688489501953125,-0.02825251780450344,-0.08567385375499725,0.1774563491344452
1701981543266483200,19.705483154296875,-0.01771509274840355,0.07467827945947647,0.13347405195236206
1701981543283474000,19.722473876953124,-0.016798794269561768,0.0006108652451075613,0.062460970133543015
1701981543300472300,19.739472412109375,-0.020005837082862854,-0.10965031385421753,0.030695978552103043
1701981543317462800,19.756462890625,-0.025961773470044136,-0.06963863968849182,-0.0032070425804704428
1701981543334456600,19.77345654296875,-0.020311269909143448,0.012828170321881771,-0.06979135423898697
1701981543351449600,19.79044970703125,-0.04352414980530739,-0.015271631069481373,-0.13698652386665344
1701981543368444400,19.8074443359375,-0.12034045159816742,0.00427605677396059,-0.12171489745378494
1701981543385436200,19.824436279296876,-0.18280142545700073,0.04245513305068016,-0.048258353024721146
1701981543402430200,19.84143017578125,-0.16539175808429718,-0.08979719132184982,0.033597588539123535
1701981543419423000,19.858423095703124,-0.09972374886274338,-0.19104810059070587,0.1313360333442688
1701981543436416800,19.875416748046874,-0.048258353024721146,-0.1788308024406433,0.17638733983039856
1701981543453409800,19.892409912109375,-0.025503624230623245,-0.0933096632361412,0.07895433157682419
1701981543470403600,19.909403564453125,0.003359758760780096,-0.02626720629632473,-0.08445212244987488
1701981543487396600,19.926396728515623,-0.0064140851609408855,0.008857546374201775,-0.21578814089298248
1701981543504390100,19.94339013671875,-0.02229658141732216,0.024129176512360573,-0.22647829353809357
1701981543521383200,19.960383056640627,-0.03130684420466423,0.07666359096765518,-0.14034628868103027
1701981543538366200,19.9773662109375,-0.03649919852614403,0.06963863968849182,-0.03833179548382759
1701981543555369700,19.99436962890625,-0.034666601568460464,0.05772676691412926,0.024892758578062057
1701981543572367600,20.01136767578125,-0.040164388716220856,-0.012980886735022068,0.06719517707824707
1701981543589356500,20.0283564453125,-0.04077525436878204,-0.09651670604944229,0.1290452778339386
1701981543606350300,20.045350341796876,-0.03741549700498581,-0.1615738570690155,0.1820378452539444
1701981543623343000,20.062343017578126,-0.027183502912521362,-0.07773260027170181,0.1814269721508026
1701981543640337200,20.079337158203124,-0.02733621932566166,0.05207626149058342,0.1007927656173706
1701981543657330000,20.096329833984374,-0.02535090781748295,0.13607023656368256,-0.027183502912521362
1701981543674324000,20.113323974609376,-0.006108652334660292,0.10781771689653397,-0.08659014850854874
1701981543691316500,20.13031640625,0.001527163083665073,0.12064588814973831,-0.04642575979232788
1701981543708310500,20.147310546875,0.017409659922122955,0.12996158003807068,-0.01160643994808197
1701981543725300500,20.164300537109376,0.025045474991202354,-0.01237002108246088,-0.009621127508580685
1701981543742300000,20.1812998046875,0.020005837082862854,-0.4282165467739105,0.11591167747974396
1701981543759289900,20.198289794921877,0.014355333521962166,-0.19394971430301666,0.21762074530124664
1701981543776284000,20.215283935546875,0.026114489883184433,0.10155634582042694,0.08384125679731369
1701981543793277000,20.23227685546875,0.09254608303308487,0.2393064647912979,-0.06963863968849182
1701981543810270700,20.249270751953127,0.11942415684461594,0.22617286443710327,-0.12980885803699493
1701981543827262200,20.26626220703125,0.12034045159816742,0.09575312584638596,-0.0981965884566307
1701981543844258600,20.283258544921875,0.10415252298116684,0.10445795953273773,-0.0633772686123848
1701981543861250000,20.30025,0.021074850112199783,0.2541199326515198,0.0429132841527462
1701981543878244000,20.317244140625,-0.03420845419168472,0.0019853119738399982,0.07467827945947647
1701981543895236900,20.33423681640625,0.044135015457868576,-0.2154827117919922,0.03130684420466423
1701981543912231000,20.35123095703125,0.01817324012517929,-0.01710422709584236,0.048258353024721146
1701981543929223400,20.368223388671876,0.02779436856508255,0.21380282938480377,0.024587325751781464
1701981543946217500,20.385217529296874,0.09804387390613556,0.39538252353668213,-0.15485434234142303
1701981543963198500,20.402198486328125,0.11774427443742752,0.5635231733322144,-0.3491095006465912
1701981543980204300,20.419204345703125,0.16523905098438263,0.6763805150985718,-0.3882048726081848
1701981543997197000,20.436197021484375,0.14309518039226532,0.4260784983634949,-0.23945917189121246
1701981544014180400,20.453180419921875,0.12339477986097336,0.08261952549219131,0.005650503560900688
1701981544031184000,20.470183837890627,0.0907134860754013,-0.08536841720342636,0.18906278908252716
1701981544048177700,20.487177734375,0.0012217304902151227,-0.4573853611946106,0.16493362188339233
1701981544065170400,20.50417041015625,-0.015118914656341076,-0.6203336715698242,-0.008704829961061478
1701981544082164500,20.52116455078125,-0.07941248267889023,-0.3179553747177124,-0.11514809727668762
1701981544099157200,20.5381572265625,-0.17821992933750153,0.02626720629632473,-0.057879481464624405
1701981544116151000,20.555151123046876,-0.17287486791610718,0.07101308554410934,-0.01191187184303999
1701981544133143800,20.572143798828126,-0.10766500234603882,-0.044287730008363724,-0.015882495790719986
1701981544150134800,20.589134765625,-0.05009094998240471,-0.08277224004268646,0.02871066704392433
1701981544167133700,20.6061337890625,-0.005803219974040985,-0.11468994617462158,0.06582073122262955
1701981544184119300,20.623119384765626,0.07819075137376785,-0.10399980843067169,0.08857546001672745
