time,seconds_elapsed,z,y,x
1701981420020501800,0.065501708984375,0.021074850112199783,-0.10812314599752426,0.08506298810243607
1701981420037335000,0.0823349609375,0.029932396486401558,-0.15515977144241333,0.08994990587234497
1701981420054318000,0.099318115234375,0.03741549700498581,-0.19028452038764954,0.08338310569524765
1701981420071307300,0.116307373046875,0.033597588539123535,-0.2054034322500229,0.05451972410082817
1701981420088294700,0.133294677734375,0.01924225501716137,-0.25182920694351196,0.10873401165008545
1701981420105294000,0.150294189453125,0,-0.3594942092895508,0.22571471333503723
1701981420122286600,0.16728662109375,0.002138028386980295,-0.39904773235321045,0.29764407873153687
1701981420139280600,0.18428076171875,-0.022602014243602753,-0.3778201639652252,0.3257438838481903
1701981420156270000,0.20127001953125,-0.055741455405950546,-0.31642818450927734,0.24358251690864563
1701981420173260300,0.21826025390625,-0.10231992602348328,-0.16233743727207184,0.07498370856046677
1701981420190262800,0.2352626953125,-0.08979719132184982,0.036193765699863434,-0.04230241850018501
1701981420207247000,0.2522470703125,-0.0682641938328743,0.1310305893421173,-0.08735372871160507
1701981420224239600,0.269239501953125,-0.07223481684923172,0.10201449692249298,-0.0754418596625328
1701981420241241000,0.286240966796875,-0.06887505948543549,-0.040622539818286896,-0.007635815534740686
1701981420258235600,0.303235595703125,-0.05345070734620094,-0.21380282938480377,0.11927144229412079
1701981420275213800,0.3202138671875,-0.022907447069883347,-0.2791654169559479,0.19547687470912933
1701981420292213800,0.3372138671875,-0.0007635815418325365,-0.14752395451068878,0.13729196786880493
1701981420309207300,0.354207275390625,0.012675453908741474,0.05390885844826698,0.044745877385139465
1701981420326198500,0.371198486328125,0.04046982154250145,0.24816401302814484,-0.004734205547720194
1701981420343191800,0.38819189453125,0.11499538272619247,0.33108896017074585,-0.08307767659425735
1701981420360178200,0.40517822265625,0.13408492505550385,0.26419922709465027,-0.0959058403968811
1701981420377174000,0.422174072265625,0.1443169116973877,0.17012597620487213,-0.01863138936460018
1701981420394170000,0.439170166015625,0.1693623960018158,0.0507018156349659,0.05467243865132332
1701981420411153700,0.456153564453125,0.21441370248794556,0.0064140851609408855,0.10002918541431427
1701981420428156200,0.47315625,0.20784689486026764,0.034666601568460464,0.11514809727668762
1701981420445144800,0.490144775390625,0.2177734673023224,0.2025018334388733,0.04764748737215996
1701981420462140400,0.507140380859375,0.22357667982578278,0.32910364866256714,-0.08918632566928864
1701981420479134700,0.524134765625,0.1411098688840866,0.28527405858039856,-0.29016098380088806
1701981420496124000,0.5411240234375,0.04841107130050659,0.20616702735424042,-0.49984049797058105
1701981420513118200,0.5581181640625,0.01542434748262167,0.09987647086381912,-0.5410739183425903
1701981420530115600,0.575115478515625,0.0354301854968071,0.062460970133543015,-0.3219259977340698
1701981420547101400,0.592101318359375,-0.007788531947880983,-0.06291911751031876,-0.13041973114013672
1701981420564095700,0.609095703125,-0.0012217304902151227,-0.2528982162475586,-0.012522737495601177
1701981420581090300,0.62609033203125,0.04505131021142006,-0.2021963894367218,0.05375614017248154
1701981420598079700,0.643079833984375,0.025961773470044136,-0.1466076523065567,0.06001751124858856
1701981420615087000,0.660087158203125,0.004123340360820293,-0.11316278576850891,0.02474004216492176
1701981420632067800,0.67706787109375,-0.01863138936460018,-0.009162978269159794,-0.04153883829712868
1701981420649061000,0.69406103515625,-0.03222314268350601,0.03588833287358284,-0.09514226019382477
1701981420666048500,0.711048583984375,-0.022907447069883347,-0.017562376335263252,-0.06719517707824707
1701981420683045000,0.728045166015625,-0.02977968007326126,-0.1310305893421173,0.02932153269648552
1701981420700040200,0.745040283203125,-0.009010262787342072,-0.18768835067749023,0.18356500566005707
1701981420717027800,0.76202783203125,0.05268712714314461,-0.2298380434513092,0.31841349601745605
1701981420734023700,0.779023681640625,0.09178250283002853,-0.2076941877603531,0.32391130924224854
1701981420751017500,0.796017578125,0.11331550031900406,-0.04260785132646561,0.2200642079114914
1701981420768008000,0.813008056640625,0.11239920556545258,0.048258353024721146,0.03726277872920036
1701981420785000700,0.830000732421875,0.10048733651638031,0.07895433157682419,-0.10812314599752426
1701981420801994500,0.846994384765625,0.0858265683054924,0.14049901068210602,-0.12751811742782593
1701981420818989000,0.863989013671875,0.10002918541431427,0.1485929638147354,-0.04184427112340927
1701981420835980300,0.880980224609375,0.10613783448934555,0.12751811742782593,0.05650503560900688
1701981420852968000,0.897968017578125,0.10751228034496307,0.10567969083786011,0.11392636597156525
1701981420869968400,0.914968505859375,0.08185594528913498,0.078343465924263,0.10583240538835526
1701981420886958800,0.931958740234375,0.027183502912521362,0.05115996301174164,0.04993823543190956
1701981420903952000,0.948951904296875,-0.005497787147760391,0.08552113175392151,-0.014355333521962166
1701981420920933600,0.96593359375,-0.027488935738801956,0.13576480746269226,-0.0656680166721344
1701981420937933000,0.98293310546875,-0.058948494493961334,0.15943582355976105,-0.0780380368232727
1701981420954930000,0.999929931640625,-0.07742717117071152,0.22586742043495178,-0.01618792861700058
1701981420971911400,1.016911376953125,-0.05406157299876213,0.15790866315364838,0.027488935738801956
1701981420988914200,1.0339140625,-0.01572977937757969,0.04948008432984352,0.014508049935102463
1701981421005905200,1.0509052734375,0.005803219974040985,0.014049900695681572,-0.0006108652451075613
1701981421022892300,1.067892333984375,0.005650503560900688,0.025961773470044136,-0.018936822190880775
1701981421039892200,1.084892333984375,-0.02519819140434265,0.007177666760981083,-0.024129176512360573
1701981421056875500,1.10187548828125,-0.06918048858642578,-0.054825156927108765,0.04581489413976669
1701981421073879300,1.11887939453125,-0.07269296050071716,-0.1059851199388504,0.18035796284675598
1701981421090872300,1.135872314453125,-0.04306599870324135,-0.24236078560352325,0.2730567753314972
1701981421107853800,1.152853759765625,-0.019394971430301666,-0.290313720703125,0.28267788887023926
1701981421124855600,1.16985546875,0.027183502912521362,-0.16798794269561768,0.2050980031490326
1701981421141848600,1.1868486328125,0.06276640295982361,0.04993823543190956,0.1036943718791008
1701981421158838500,1.203838623046875,0.0455094613134861,0.17547103762626648,0.041691552847623825
1701981421175835400,1.22083544921875,0.02519819140434265,0.2151772826910019,0.03176499158143997
1701981421192825600,1.23782568359375,0.02321287989616394,0.20326541364192963,0.07147123664617538
1701981421209821000,1.254821044921875,0.08720101416110992,0.24572055041790009,0.10170906037092209
1701981421226805000,1.271804931640625,0.1846340149641037,0.3599523603916168,0.18677204847335815
1701981421243801900,1.2888017578125,0.2344195395708084,0.47907108068466187,0.2845104932785034
1701981421260801000,1.305801025390625,0.2538145184516907,0.6026185750961304,0.3107776939868927
1701981421277787400,1.322787353515625,0.27122417092323303,0.7205155491828918,0.20983220636844635
1701981421294782700,1.33978271484375,0.304669052362442,0.8527678847312927,0.10873401165008545
1701981421311760000,1.356759765625,0.3295617997646332,0.812298059463501,0.0555887371301651
1701981421328766000,1.373765869140625,0.25473082065582275,0.6856962442398071,0.00809396430850029
1701981421345761500,1.390761474609375,0.11133018881082535,0.10094548016786575,0.2583959996700287
1701981421362753000,1.4077529296875,-0.03329215571284294,-0.7281513810157776,0.2773328125476837
1701981421379748000,1.424748046875,-0.026114489883184433,-0.8475755453109741,0.10980302840471268
1701981421396735700,1.44173583984375,-0.04612032696604729,-0.4671591818332672,-0.046731192618608475
1701981421413731300,1.4587314453125,-0.12461651116609573,-0.22876903414726257,-0.054825156927108765
1701981421430725000,1.47572509765625,-0.18448130786418915,-0.16737708449363708,-0.13545936346054077
1701981421447714800,1.49271484375,-0.16249015927314758,-0.1843285858631134,-0.3107776939868927
1701981421464714000,1.5097138671875,-0.13026700913906097,-0.14538592100143433,-0.3666718602180481
1701981421481696800,1.52669677734375,-0.14767667651176453,-0.2070833146572113,-0.22281309962272644
1701981421498695200,1.543695068359375,-0.1212567538022995,-0.23609942197799683,-0.023365596309304237
1701981421515688700,1.560688720703125,-0.042760565876960754,-0.12599095702171326,0.0403171069920063
1701981421532679400,1.577679443359375,0.015882495790719986,-0.04764748737215996,-0.013897184282541275
1701981421549676500,1.594676513671875,0.039095375686883926,-0.009926560334861279,-0.09605856239795685
1701981421566660600,1.61166064453125,0.03298672288656235,-0.06765332818031311,-0.15790866315364838
1701981421583659500,1.628659423828125,0.0039706239476799965,-0.152105450630188,-0.18585574626922607
1701981421600651000,1.645651123046875,-0.01863138936460018,-0.20051652193069458,-0.1765400618314743
1701981421617641500,1.662641357421875,-0.02932153269648552,-0.16523905098438263,-0.1492038369178772
1701981421634637300,1.67963720703125,-0.04657847434282303,-0.09575312584638596,-0.12721268832683563
1701981421651631400,1.69663134765625,-0.04734205827116966,-0.06261368840932846,-0.10720685124397278
1701981421668618500,1.713618408203125,-0.03756821155548096,-0.09224065393209457,-0.06520986557006836
1701981421685615400,1.730615478515625,-0.05772676691412926,-0.16172657907009125,0.0006108652451075613
1701981421702606800,1.74760693359375,-0.0907134860754013,-0.19593502581119537,0.0529925599694252
1701981421719602000,1.764601806640625,-0.09987647086381912,-0.20204368233680725,0.056810468435287476
1701981421736589600,1.781589599609375,-0.0861319974064827,-0.1941024363040924,0.015271631069481373
1701981421753583600,1.79858349609375,-0.0806342139840126,-0.16600263118743896,-0.03344487398862839
1701981421770578400,1.815578369140625,-0.08811730891466141,-0.1514945775270462,-0.042760565876960754
1701981421787571500,1.832571533203125,-0.07941248267889023,-0.16462817788124084,-0.017867809161543846
1701981421804562700,1.849562744140625,-0.046273041516542435,-0.14324790239334106,-0.0006108652451075613
1701981421821557500,1.8665576171875,-0.031001411378383636,-0.13118331134319305,-0.0010690141934901476
1701981421838546400,1.88354638671875,-0.03375030308961868,-0.11560624837875366,-0.007177666760981083
1701981421855532300,1.9005322265625,-0.033597588539123535,-0.09941831976175308,-0.02275473065674305
1701981421872533500,1.917533447265625,-0.03634648025035858,-0.05360342562198639,-0.05696318298578262
1701981421889528600,1.934528564453125,-0.02672535367310047,-0.0064140851609408855,-0.08109235763549805
1701981421906510600,1.951510498046875,-0.00809396430850029,0.02367102913558483,-0.051770828664302826
1701981421923512800,1.968512939453125,-0.00366519158706069,-0.004581489134579897,0.017562376335263252
1701981421940503600,1.985503662109375,-0.009010262787342072,-0.051312681287527084,0.06169738993048668
1701981421957498000,2.002498046875,-0.008246680721640587,-0.07773260027170181,0.034666601568460464
1701981421974490000,2.019489990234375,-0.013286318629980087,-0.02779436856508255,-0.015118914656341076
1701981421991485000,2.03648486328125,-0.015577063895761967,0.03298672288656235,-0.031154127791523933
1701981422008472600,2.05347265625,-0.010231993161141872,0.023365596309304237,0.0007635815418325365
1701981422025469200,2.07046923828125,-0.003817907767370343,-0.01160643994808197,0.048258353024721146
1701981422042460700,2.087460693359375,0.006261368747800589,-0.009162978269159794,0.05772676691412926
1701981422059455700,2.104455810546875,0.01038470957428217,0.01542434748262167,0.014049900695681572
1701981422076444700,2.121444580078125,-0.006261368747800589,0.03145955875515938,-0.03451388701796532
1701981422093438200,2.138438232421875,-0.031612277030944824,-0.012980886735022068,-0.04734205827116966
1701981422110433000,2.15543310546875,-0.04352414980530739,-0.07376197725534439,-0.004886921960860491
1701981422127422500,2.17242236328125,-0.0529925599694252,-0.1417207419872284,0.07666359096765518
1701981422144414000,2.1894140625,-0.05207626149058342,-0.19120082259178162,0.15073099732398987
1701981422161411600,2.20641162109375,-0.03344487398862839,-0.18188512325286865,0.17318029701709747
1701981422178400000,2.22339990234375,-0.006261368747800589,-0.09056077152490616,0.1264491081237793
1701981422195396400,2.240396240234375,0.012522737495601177,0.04337143152952194,0.04199698567390442
1701981422212387300,2.25738720703125,0.005039638374000788,0.20555615425109863,-0.03084869496524334
1701981422229382400,2.27438232421875,-0.015577063895761967,0.2503020465373993,-0.11713340878486633
1701981422246370600,2.29137060546875,0.0019853119738399982,0.20357084274291992,-0.11972958594560623
1701981422263366400,2.308366455078125,0.0003054326225537807,0.10965031385421753,-0.015577063895761967
1701981422280358100,2.325358154296875,-0.00855211354792118,0.04337143152952194,0.07101308554410934
1701981422297350400,2.342350341796875,0.014049900695681572,0.08643743395805359,0.06429356336593628
1701981422314344000,2.359343994140625,0.023518312722444534,0.13500121235847473,0.013133603148162365
1701981422331339800,2.37633984375,0.049785517156124115,0.14126259088516235,0.004428773187100887
1701981422348325600,2.39332568359375,0.0959058403968811,0.1391245573759079,0.020616702735424042
1701981422365323000,2.410322998046875,0.1488984078168869,0.17241671681404114,0.12263119965791702
1701981422382312400,2.4273125,0.12797626852989197,0.15012013912200928,0.42470407485961914
1701981422399311600,2.4443115234375,0.01237002108246088,-0.28496864438056946,0.3830125033855438
1701981422416297200,2.461297119140625,-0.008246680721640587,-0.3191770911216736,0.14004085958003998
1701981422433293000,2.47829296875,-0.04642575979232788,-0.07666359096765518,-0.06994406878948212
1701981422450287000,2.495287109375,-0.07299839705228806,0.10659598559141159,-0.1189660057425499
1701981422467276300,2.5122763671875,-0.09254608303308487,0.12186761945486069,-0.11148291081190109
1701981422484270300,2.529270263671875,-0.07910704612731934,0.03787364438176155,-0.19456058740615845
1701981422501265400,2.546265380859375,-0.047800205647945404,0.006108652334660292,-0.2848159074783325
1701981422518253600,2.563253662109375,-0.038179077208042145,-0.02519819140434265,-0.2591595947742462
1701981422535232500,2.580232421875,-0.02626720629632473,-0.07559457421302795,-0.11041389405727386
1701981422552238800,2.59723876953125,-0.0022907445672899485,-0.1333213448524475,0.05604688450694084
1701981422569241000,2.614240966796875,0.012675453908741474,-0.15561792254447937,0.1417207419872284
1701981422586232800,2.63123291015625,0.003054326167330146,-0.1082758679986,0.1560760736465454
1701981422603210200,2.648210205078125,0.003817907767370343,-0.06780604273080826,0.11530081182718277
1701981422620212200,2.665212158203125,0.020922135561704636,-0.025961773470044136,0.03481931984424591
1701981422637206500,2.68220654296875,0.024434609338641167,-0.012064588256180286,-0.018478672951459885
1701981422654203100,2.699203125,0.014355333521962166,-0.04657847434282303,-0.05421429127454758
1701981422671190800,2.716190673828125,0.027183502912521362,-0.022143865004181862,-0.05253441259264946
1701981422688184600,2.7331845703125,0.02733621932566166,0.014813481830060482,-0.013744467869400978
1701981422705177000,2.750177001953125,0.01878410577774048,-0.020922135561704636,0.026419922709465027
1701981422722168300,2.767168212890625,0.012828170321881771,-0.06520986557006836,0.05100724846124649
1701981422739162400,2.784162353515625,0.007177666760981083,-0.04963280260562897,0.04566217586398125
1701981422756152300,2.80115234375,0.0012217304902151227,0.010995574295520782,-0.0029016099870204926
1701981422773137000,2.818136962890625,-0.003054326167330146,0.038179077208042145,-0.06979135423898697
1701981422790138600,2.835138671875,0.004734205547720194,0.08017606288194656,-0.07727445662021637
1701981422807132400,2.85213232421875,-0.004734205547720194,0.0858265683054924,-0.06780604273080826
1701981422824124400,2.86912451171875,-0.0065668015740811825,0.05054909735918045,-0.052839845418930054
1701981422841119200,2.886119140625,-0.015271631069481373,0.0074830991216003895,-0.012522737495601177
1701981422858107600,2.903107666015625,-0.01863138936460018,-0.02977968007326126,0.02076941914856434
1701981422875104300,2.920104248046875,-0.02367102913558483,-0.02886338345706463,0.03527746722102165
1701981422892095000,2.937094970703125,-0.013744467869400978,-0.005955935921519995,0.025656340643763542
1701981422909090000,2.954090087890625,-0.006872233934700489,0.027488935738801956,0.00366519158706069
1701981422926080000,2.971080078125,0.007635815534740686,0.06001751124858856,-0.03084869496524334
1701981422943074000,2.988073974609375,0.011301007121801376,0.05925392732024193,-0.07819075137376785
1701981422960053000,3.005052978515625,0.009926560334861279,0.05803219974040985,-0.0682641938328743
1701981422977057000,3.02205712890625,0.007941247895359993,0.029168816283345222,-0.013439035043120384
1701981422994051600,3.039051513671875,0.019394971430301666,0.021838432177901268,0.00931569468230009
1701981423011036400,3.056036376953125,0.03756821155548096,0.08765916526317596,0.001679879380390048
1701981423028034000,3.073033935546875,0.03680463135242462,0.2272418737411499,0.009926560334861279
1701981423045031000,3.090031005859375,0.012980886735022068,0.35414913296699524,-0.024434609338641167
1701981423062022100,3.107022216796875,0.04245513305068016,0.40973785519599915,-0.08170322328805923
1701981423079017200,3.124017333984375,0.10399980843067169,0.39904773235321045,-0.019547687843441963
1701981423096004900,3.1410048828125,0.12522737681865692,0.2822197377681732,0.18799377977848053
1701981423113000700,3.158000732421875,0.04153883829712868,-0.04535674303770065,0.4225660264492035
1701981423130007800,3.1750078125,-0.016951510682702065,-0.3286454975605011,0.2718350291252136
1701981423146985500,3.1919853515625,-0.021380282938480377,-0.14767667651176453,0.04352414980530739
1701981423163980000,3.20897998046875,-0.038026362657547,0.07437284290790558,-0.09300423413515091
1701981423180969000,3.225968994140625,-0.04566217586398125,0.16035212576389313,-0.09254608303308487
1701981423197963300,3.24296337890625,-0.035124752670526505,0.007177666760981083,-0.06658431142568588
1701981423214947000,3.259947021484375,-0.01817324012517929,-0.15653422474861145,-0.06765332818031311
1701981423231940600,3.276940673828125,-0.0064140851609408855,-0.20601430535316467,-0.06154467165470123
1701981423248942300,3.2939423828125,-0.002138028386980295,-0.23090706765651703,-0.014355333521962166
1701981423265932300,3.310932373046875,-0.0022907445672899485,-0.22907446324825287,0.028405234217643738
1701981423282930400,3.327930419921875,-0.006719517521560192,-0.18096883594989777,0.0377209298312664
1701981423299919400,3.34491943359375,-0.017409659922122955,-0.14446963369846344,0.010842857882380486
1701981423316911900,3.361911865234375,-0.035124752670526505,-0.12431107461452484,-0.014049900695681572
1701981423333902300,3.37890234375,-0.04382958263158798,-0.12324206531047821,-0.021991148591041565
1701981423350898200,3.395898193359375,-0.044135015457868576,-0.12110403180122375,-0.018325956538319588
1701981423367887000,3.41288720703125,-0.04398229718208313,-0.11636982858181,-0.0064140851609408855
1701981423384889600,3.4298896484375,-0.03084869496524334,-0.1014036312699318,0.0007635815418325365
1701981423401870600,3.44687060546875,-0.02825251780450344,-0.07177666574716568,-0.006108652334660292
1701981423418866200,3.4638662109375,-0.024129176512360573,-0.051770828664302826,-0.012064588256180286
1701981423435864600,3.480864501953125,-0.024434609338641167,-0.03298672288656235,-0.007788531947880983
1701981423452854800,3.497854736328125,-0.024587325751781464,-0.033597588539123535,0.007177666760981083
1701981423469831700,3.514831787109375,-0.015577063895761967,-0.016493361443281174,0.021074850112199783
1701981423486835000,3.5318349609375,-0.003359758760780096,0.022449297830462456,-0.006261368747800589
1701981423503832300,3.548832275390625,0.001679879380390048,0.04459316283464432,-0.08475755155086517
1701981423520822500,3.565822509765625,0.007635815534740686,0.046731192618608475,-0.11331550031900406
1701981423537815300,3.582815185546875,0.015577063895761967,0.016798794269561768,-0.051770828664302826
1701981423554812000,3.59981201171875,0.026572637259960175,-0.04581489413976669,0.020463986322283745
1701981423571804700,3.6168046875,0.030085112899541855,-0.06108652427792549,0.03436116874217987
1701981423588792800,3.633792724609375,0.017562376335263252,-0.028557950630784035,-0.00045814894838258624
1701981423605789200,3.6507890625,0.0003054326225537807,0.009926560334861279,-0.029016099870204926
1701981423622782200,3.6677822265625,-0.005497787147760391,0.004886921960860491,-0.013591751456260681
1701981423639772700,3.684772705078125,-0.01863138936460018,-0.0027488935738801956,0.00931569468230009
1701981423656767200,3.701767333984375,-0.020616702735424042,-0.005345070734620094,0.017867809161543846
1701981423673759200,3.71875927734375,-0.016951510682702065,0.020311269909143448,0.025656340643763542
1701981423690754300,3.73575439453125,-0.006261368747800589,0.04382958263158798,0.00427605677396059
1701981423707742000,3.752741943359375,0.0010690141934901476,0.036041051149368286,-0.03741549700498581
1701981423724738600,3.769738525390625,0.00931569468230009,0,-0.029626963660120964
1701981423741730000,3.78672998046875,0.003512475173920393,-0.03451388701796532,0.032070424407720566
1701981423758721800,3.8037216796875,-0.0012217304902151227,-0.04688390716910362,0.05054909735918045
1701981423775716000,3.820716064453125,0.002138028386980295,-0.029626963660120964,0.03375030308961868
1701981423792708600,3.83770849609375,0.0022907445672899485,-0.00855211354792118,0.020922135561704636
1701981423809692000,3.85469189453125,0.0019853119738399982,0.001679879380390048,0.010995574295520782
1701981423826691800,3.87169189453125,-0.001832595793530345,-0.00855211354792118,0.0003054326225537807
1701981423843684000,3.88868408203125,-0.0006108652451075613,-0.02321287989616394,-0.024129176512360573
1701981423860683000,3.90568310546875,0.009010262787342072,-0.03039054572582245,-0.016951510682702065
1701981423877668400,3.92266845703125,0.019853120669722557,-0.007177666760981083,0
1701981423894666000,3.939666015625,0.02382374368607998,0.005345070734620094,0.010231993161141872
1701981423911657000,3.956656982421875,0.015118914656341076,-0.012217304669320583,0.011453723534941673
1701981423928648200,3.973648193359375,0.004734205547720194,-0.04917465150356293,0.019547687843441963
1701981423945643300,3.990643310546875,0.003054326167330146,-0.05390885844826698,0.02275473065674305
1701981423962636800,4.00763671875,-0.004123340360820293,-0.038637228310108185,0.006108652334660292
1701981423979629300,4.02462939453125,-0.01542434748262167,-0.003054326167330146,-0.01466076634824276
1701981423996618200,4.0416181640625,-0.021380282938480377,0.044287730008363724,-0.032070424407720566
1701981424013613000,4.058613037109375,-0.01572977937757969,0.0630718395113945,-0.04764748737215996
1701981424030608100,4.075608154296875,-0.004428773187100887,0.027947084978222847,-0.037110064178705215
1701981424047595800,4.092595703125,-0.0019853119738399982,-0.023365596309304237,-0.03237585723400116
1701981424064601600,4.1096015625,0.005192354787141085,0.00427605677396059,-0.062460970133543015
1701981424081582800,4.126582763671875,0.009010262787342072,0.05543602257966995,-0.06215553730726242
1701981424098577400,4.143577392578125,-0.0003054326225537807,0.058337632566690445,-0.02015855349600315
1701981424115573200,4.1605732421875,-0.01038470957428217,0.013744467869400978,-0.0029016099870204926
1701981424132562200,4.177562255859375,-0.006719517521560192,-0.013591751456260681,0.001527163083665073
1701981424149556200,4.19455615234375,-0.007941247895359993,-0.033597588539123535,0.021074850112199783
1701981424166546000,4.2115458984375,-0.020005837082862854,-0.05696318298578262,0.03145955875515938
1701981424183539700,4.228539794921875,-0.02382374368607998,0.0022907445672899485,0.03894266113638878
1701981424200534800,4.24553466796875,-0.02321287989616394,0.028557950630784035,0.029474247246980667
1701981424217520600,4.262520751953125,-0.013897184282541275,0.014813481830060482,-0.026572637259960175
1701981424234521300,4.279521240234375,-0.021380282938480377,-0.06963863968849182,-0.05711590126156807
1701981424251512300,4.29651220703125,-0.01817324012517929,-0.20555615425109863,0.014813481830060482
1701981424268502800,4.313502685546875,-0.02168571576476097,-0.36071592569351196,0.12186761945486069
1701981424285495600,4.33049560546875,-0.04505131021142006,-0.40622538328170776,0.17867808043956757
1701981424302489900,4.34748974609375,-0.02428189292550087,-0.31001409888267517,0.1739438772201538
1701981424319483000,4.36448291015625,-0.01817324012517929,-0.13179416954517365,0.11911872029304504
1701981424336472300,4.381472412109375,-0.006872233934700489,0.013439035043120384,0.03344487398862839
1701981424353467000,4.398466796875,0.009926560334861279,0.047800205647945404,-0.056810468435287476
1701981424370462000,4.4154619140625,0.004734205547720194,0.009468411095440388,-0.09483683109283447
1701981424387450000,4.4324501953125,-0.016798794269561768,0.010079276748001575,-0.08933904021978378
1701981424404445400,4.449445556640625,-0.01725694350898266,0.030695978552103043,-0.0659734457731247
1701981424421439200,4.466439208984375,0.0019853119738399982,0.026572637259960175,-0.02886338345706463
1701981424438426000,4.483426025390625,0.027641652151942253,0.007788531947880983,0.005650503560900688
1701981424455427300,4.50042724609375,0.03741549700498581,0.029168816283345222,0.03481931984424591
1701981424472416300,4.517416259765625,0.02580905705690384,0.03222314268350601,0.06459899991750717
1701981424489410000,4.53441015625,0.005345070734620094,-0.005345070734620094,0.09208793938159943
1701981424506392800,4.551392822265625,-0.016035212203860283,-0.07330382615327835,0.10980302840471268
1701981424523393500,4.5683935546875,-0.10995574295520782,-0.19349156320095062,0.11911872029304504
1701981424540388600,4.585388671875,-0.11591167747974396,-0.2767219543457031,0.1508837193250656
1701981424557376800,4.602376708984375,-0.09208793938159943,-0.2770273983478546,0.16203200817108154
1701981424574372600,4.61937255859375,-0.07620543986558914,-0.21303924918174744,0.13240504264831543
1701981424591366000,4.636365966796875,-0.059864792972803116,-0.07040221989154816,0.06230825558304787
1701981424608348400,4.653348388671875,-0.0025961773935705423,0.18875735998153687,-0.06704246252775192
1701981424625351000,4.670350830078125,0.031612277030944824,0.3972151279449463,-0.18967366218566895
1701981424642343400,4.687343505859375,0.019089538604021072,0.4804455041885376,-0.2594650089740753
1701981424659327200,4.7043271484375,0.04993823543190956,0.5575672388076782,-0.2866485118865967
1701981424676323600,4.721323486328125,0.08139779418706894,0.6343835592269897,-0.30146199464797974
1701981424693336000,4.738336181640625,0.10277807712554932,0.7113525867462158,-0.3399465084075928
1701981424710328800,4.755328857421875,0.1235474944114685,0.707534670829773,-0.3758348524570465
1701981424727300900,4.77230078125,0.1368338167667389,0.5861251950263977,-0.32559117674827576
1701981424744302000,4.789302001953125,0.18814650177955627,0.4259257912635803,-0.14004085958003998
1701981424761298000,4.8062978515625,0.19578230381011963,0.2025018334388733,0.12476922571659088
1701981424778281200,4.82328125,0.05604688450694084,-0.3084869384765625,0.3663664162158966
1701981424795277600,4.840277587890625,0.0074830991216003895,-0.6081163287162781,0.355981707572937
1701981424812259800,4.857259765625,0.0032070425804704428,-0.39156460762023926,0.2822197377681732
1701981424829264100,4.87426416015625,-0.03420845419168472,-0.19043724238872528,0.24037547409534454
1701981424846253800,4.89125390625,-0.043218716979026794,-0.1612684279680252,0.11835514008998871
1701981424863247400,4.908247314453125,-0.03344487398862839,-0.14813482761383057,-0.0455094613134861
1701981424880241200,4.9252412109375,-0.012217304669320583,-0.16279558837413788,-0.128434419631958
1701981424897223400,4.942223388671875,0.005650503560900688,-0.22647829353809357,-0.06963863968849182
1701981424914238200,4.95923828125,0.015271631069481373,-0.2955060601234436,0.09422596544027328
1701981424931216000,4.9762158203125,0.014049900695681572,-0.2968805134296417,0.26511552929878235
1701981424948212700,4.993212646484375,0.008246680721640587,-0.22892175614833832,0.3159700334072113
1701981424965205200,5.010205322265625,0.01038470957428217,-0.11911872029304504,0.24297164380550385
1701981424982202400,5.027202392578125,0.01038470957428217,-0.03940080851316452,0.1215621829032898
1701981424999192000,5.044192138671875,0.001832595793530345,0.009621127508580685,-0.01466076634824276
1701981425016180000,5.061179931640625,-0.0010690141934901476,0.09972374886274338,-0.09911288321018219
1701981425033174800,5.0781748046875,0.005497787147760391,0.1313360333442688,-0.0910189226269722
1701981425050169900,5.095169921875,-0.001527163083665073,0.05696318298578262,-0.02779436856508255
1701981425067157200,5.1121572265625,-0.003817907767370343,-0.03084869496524334,0.034666601568460464
1701981425084142600,5.129142578125,0.003817907767370343,-0.08216137439012527,0.07284568250179291
1701981425101148700,5.146148681640625,0.01114829070866108,-0.096211276948452,0.06475171446800232
1701981425118136600,5.163136474609375,0.03787364438176155,-0.07040221989154816,0.03451388701796532
1701981425135133200,5.18013330078125,0.0529925599694252,-0.04566217586398125,0.02779436856508255
1701981425152122000,5.1971220703125,0.051312681287527084,-0.056810468435287476,0.026419922709465027
1701981425169107500,5.214107421875,0.047800205647945404,-0.08704829961061478,0.007941247895359993
1701981425186108400,5.2311083984375,0.046731192618608475,-0.10583240538835526,-0.003512475173920393
1701981425203101400,5.248101318359375,0.06261368840932846,-0.1459967941045761,0.020616702735424042
1701981425220096500,5.265096435546875,0.08536841720342636,-0.16920967400074005,0.09544769674539566
1701981425237085000,5.2820849609375,0.10231992602348328,-0.12599095702171326,0.14492778480052948
1701981425254080500,5.29908056640625,0.11621711403131485,-0.0907134860754013,0.11255192011594772
1701981425271073800,5.31607373046875,0.08185594528913498,-0.4040873646736145,0.03878994286060333
1701981425288063500,5.3330634765625,0.03848451003432274,-0.1647808998823166,0.07819075137376785
1701981425305065500,5.3500654296875,0.03741549700498581,0.24419337511062622,0.11163562536239624
1701981425322051300,5.36705126953125,0.04306599870324135,0.20555615425109863,0.07070764899253845
1701981425339044900,5.384044921875,0.019394971430301666,0.011759156361222267,0.06627888232469559
1701981425356034000,5.401033935546875,0.020463986322283745,-0.17791450023651123,0.06322455406188965
1701981425373026800,5.41802685546875,0.06154467165470123,-0.17577648162841797,0.05910121276974678
1701981425390025700,5.435025634765625,0.08368854224681854,-0.05314527451992035,0.0555887371301651
1701981425407011300,5.45201123046875,0.09651670604944229,0.027030786499381065,0.031154127791523933
1701981425424007400,5.46900732421875,0.09208793938159943,0.05406157299876213,0.014355333521962166
1701981425441001000,5.4860009765625,0.0708603709936142,0.04245513305068016,0.03588833287358284
1701981425457989600,5.50298974609375,0.05115996301174164,0.03848451003432274,0.08506298810243607
1701981425474985000,5.51998486328125,0.046731192618608475,0.031612277030944824,0.1085812970995903
1701981425491978200,5.536978271484375,0.052228979766368866,0.040622539818286896,0.07910704612731934
1701981425508973000,5.55397314453125,0.06444628536701202,0.05803219974040985,0.013744467869400978
1701981425525963800,5.5709638671875,0.07651086896657944,0.025961773470044136,-0.05665775015950203
1701981425542956500,5.58795654296875,0.07498370856046677,-0.04505131021142006,-0.08002334833145142
1701981425559950600,5.60495068359375,0.06918048858642578,-0.05253441259264946,-0.015271631069481373
1701981425576938000,5.62193798828125,0.08109235763549805,-0.01618792861700058,0.059406645596027374
1701981425593934300,5.638934326171875,0.10476338863372803,-0.006261368747800589,0.0682641938328743
1701981425610930400,5.655930419921875,0.10903944820165634,-0.004428773187100887,0.04963280260562897
1701981425627920600,5.672920654296875,0.10995574295520782,-0.017409659922122955,0.01924225501716137
1701981425644910800,5.689910888671875,0.10613783448934555,-0.01618792861700058,-0.009162978269159794
1701981425661911300,5.706911376953125,0.08949175477027893,0.017562376335263252,0.0027488935738801956
1701981425678897400,5.7238974609375,0.08827003091573715,0.03222314268350601,0.05543602257966995
1701981425695889400,5.740889404296875,0.12171489745378494,-0.03756821155548096,0.12797626852989197
1701981425712885500,5.757885498046875,0.15790866315364838,-0.16920967400074005,0.1976149082183838
1701981425729877500,5.77487744140625,0.18341228365898132,-0.35643985867500305,0.22876903414726257
1701981425746868000,5.791867919921875,0.18295414745807648,-0.4331034719944,0.22281309962272644
1701981425763861200,5.808861328125,0.16951510310173035,-0.41462478041648865,0.21792617440223694
1701981425780855300,5.825855224609375,0.1339322030544281,-0.47448956966400146,0.21303924918174744
1701981425797843000,5.842843017578125,0.07651086896657944,-0.545655369758606,0.29535335302352905
1701981425814837000,5.8598369140625,0.03420845419168472,-0.5879577994346619,0.4524984359741211
1701981425831835000,5.8768349609375,0.06414084881544113,-0.6294966340065002,0.585667073726654
1701981425848822300,5.893822265625,0.12079860270023346,-0.7316638231277466,0.5697845816612244
1701981425865818600,5.910818603515625,0.09651670604944229,-0.7469354867935181,0.4703662395477295
1701981425882809300,5.927809326171875,0.015271631069481373,-0.6673702597618103,0.3119994103908539
1701981425899804400,5.944804443359375,-0.09758572280406952,-0.6583600044250488,-0.16081027686595917
1701981425916782000,5.961781982421875,-0.17623461782932281,0.2698497176170349,-0.3897320330142975
1701981425933788400,5.978788330078125,-0.16722436249256134,0.718224823474884,-0.41431936621665955
1701981425950785300,5.995785400390625,-0.08292495459318161,0.42149701714515686,-0.5781839489936829
1701981425967767800,6.012767822265625,-0.10354165732860565,0.521984338760376,-0.6007859706878662
1701981425984767200,6.029767333984375,-0.15317445993423462,0.6600399017333984,-0.5537493228912354
1701981426001759200,6.04675927734375,-0.17516560852527618,0.6470590233802795,-0.47250425815582275
1701981426018742800,6.06374267578125,-0.15882496535778046,0.38927388191223145,-0.3819434940814972
1701981426035745300,6.080745361328125,-0.10399980843067169,0.1339322030544281,-0.2926044464111328
1701981426052736800,6.09773681640625,-0.029016099870204926,0.05513058975338936,-0.23594669997692108
1701981426069721000,6.11472119140625,0.01466076634824276,0.12889257073402405,-0.18417587876319885
1701981426086712300,6.13171240234375,0.007941247895359993,0.19547687470912933,-0.1388191282749176
1701981426103715000,6.148715087890625,-0.04948008432984352,0.2811507284641266,-0.05268712714314461
1701981426120709000,6.165709228515625,-0.1235474944114685,0.2474004179239273,0.01863138936460018
1701981426137698600,6.182698486328125,-0.1485929638147354,0.021838432177901268,-0.038179077208042145
1701981426154700500,6.199700439453125,-0.15729780495166779,-0.03787364438176155,-0.15195272862911224
1701981426171679200,6.21667919921875,-0.17043140530586243,0.06948592513799667,-0.25534167885780334
1701981426188677000,6.233677001953125,-0.1771509200334549,0.22418753802776337,-0.32650747895240784
1701981426205674000,6.250674072265625,-0.21853704750537872,0.44852781295776367,-0.31673362851142883
1701981426222662100,6.267662109375,-0.28909197449684143,0.5593998432159424,-0.24297164380550385
1701981426239657700,6.28465771484375,-0.3553708493709564,0.4737260043621063,-0.1495092660188675
1701981426256647000,6.30164697265625,-0.4027129113674164,0.36071592569351196,-0.09117163717746735
1701981426273643500,6.3186435546875,-0.39553526043891907,0.2779437005519867,-0.09682214260101318
1701981426290636500,6.335636474609375,-0.3478877544403076,0.15134187042713165,-0.152105450630188
1701981426307625000,6.352625,-0.2883284091949463,0.09712757170200348,-0.19364428520202637
1701981426324620000,6.3696201171875,-0.2151772826910019,0.16081027686595917,-0.20494529604911804
1701981426341615400,6.386615478515625,-0.10613783448934555,0.20433442294597626,-0.17409659922122955
1701981426358602500,6.4036025390625,-0.0019853119738399982,0.16523905098438263,-0.09392052888870239
1701981426375599400,6.420599365234375,0.06185010448098183,0.08903361111879349,0.006719517521560192
1701981426392588800,6.4375888671875,0.08460483700037003,0.014508049935102463,0.09697485715150833
1701981426409587000,6.4545869140625,0.08277224004268646,-0.0780380368232727,0.1745547503232956
1701981426426568000,6.47156787109375,0.07498370856046677,-0.15943582355976105,0.20051652193069458
1701981426443567600,6.488567626953125,0.06963863968849182,-0.17959438264369965,0.11560624837875366
1701981426460564700,6.505564697265625,0.06918048858642578,-0.05115996301174164,0.013286318629980087
1701981426477549600,6.522549560546875,0.04963280260562897,0.08659014850854874,-0.04046982154250145
1701981426494546700,6.539546630859375,0.02626720629632473,0.09834930300712585,-0.035582900047302246
1701981426511542000,6.5565419921875,-0.0027488935738801956,0.06719517707824707,0.0022907445672899485
1701981426528530000,6.573530029296875,-0.04046982154250145,-0.004886921960860491,0.02535090781748295
1701981426545526500,6.590526611328125,-0.04841107130050659,-0.11453723162412643,0.021838432177901268
1701981426562517500,6.607517578125,-0.022143865004181862,-0.1215621829032898,0.006261368747800589
1701981426579512800,6.624512939453125,-0.009773843921720982,-0.0455094613134861,-0.020616702735424042
1701981426596500700,6.641500732421875,-0.013744467869400978,0.08704829961061478,-0.01542434748262167
1701981426613495800,6.658495849609375,-0.006261368747800589,0.11682797968387604,0.01191187184303999
1701981426630491000,6.675490966796875,0.009468411095440388,0.0074830991216003895,0.05421429127454758
1701981426647482400,6.692482421875,0.025961773470044136,-0.13958270847797394,0.08796459436416626
1701981426664472300,6.709472412109375,0.05146539583802223,-0.1765400618314743,0.10018189996480942
1701981426681469400,6.726469482421875,0.06872233748435974,-0.11178833991289139,0.11453723162412643
1701981426698458000,6.7434580078125,0.0656680166721344,-0.07757988572120667,0.12110403180122375
1701981426715451000,6.760450927734375,0.0455094613134861,-0.07131851464509964,0.11148291081190109
1701981426732447500,6.777447509765625,0.020005837082862854,-0.07452555745840073,0.09666942805051804
1701981426749440000,6.79443994140625,0.010079276748001575,-0.06383541971445084,0.06780604273080826
1701981426766427400,6.811427490234375,0.049785517156124115,-0.024587325751781464,0.02580905705690384
1701981426783423500,6.828423583984375,0.09025534242391586,0.042760565876960754,0.01038470957428217
1701981426800417300,6.845417236328125,0.08949175477027893,0.08460483700037003,0.003817907767370343
1701981426817413400,6.862413330078125,0.04184427112340927,0.09804387390613556,-0.005192354787141085
1701981426834400800,6.87940087890625,-0.0032070425804704428,0.12079860270023346,-0.013897184282541275
1701981426851395800,6.896395751953125,-0.030085112899541855,0.13927727937698364,-0.03237585723400116
1701981426868376800,6.913376953125,-0.04886921867728233,0.14126259088516235,-0.036041051149368286
1701981426885378000,6.9303779296875,-0.05115996301174164,0.18555031716823578,-0.020005837082862854
1701981426902374400,6.94737451171875,-0.03955352306365967,0.21273382008075714,0.020463986322283745
1701981426919367000,6.964366943359375,-0.02886338345706463,0.17379115521907806,0.05390885844826698
1701981426936352800,6.981352783203125,-0.025045474991202354,0.1722639948129654,0.06841690838336945
1701981426953352700,6.998352783203125,-0.017562376335263252,0.10613783448934555,0.041691552847623825
1701981426970344000,7.015343994140625,0.009162978269159794,0.052381694316864014,-0.005345070734620094
1701981426987333600,7.032333740234375,0.04046982154250145,0.07024950534105301,-0.05390885844826698
1701981427004328200,7.049328125,0.055894169956445694,0.11102475970983505,-0.08246681094169617
1701981427021323300,7.0663232421875,0.056352317333221436,0.1437060534954071,-0.07437284290790558
1701981427038304800,7.0833046875,0.033139441162347794,0.13500121235847473,-0.0630718395113945
1701981427055307500,7.1003076171875,0.01237002108246088,0.1264491081237793,-0.03588833287358284
1701981427072299000,7.117299072265625,0.008399397134780884,0.09804387390613556,-0.00427605677396059
1701981427089283600,7.13428369140625,0.019853120669722557,0.06520986557006836,-0.010995574295520782
1701981427106279200,7.151279052734375,0.031154127791523933,0.07101308554410934,-0.0377209298312664
1701981427123280100,7.168280029296875,0.02825251780450344,0.11820242553949356,-0.03985895588994026
1701981427140271400,7.185271240234375,-0.019547687843441963,0.13820825517177582,-0.02275473065674305
1701981427157258200,7.20225830078125,-0.10155634582042694,0.07299839705228806,0.02015855349600315
1701981427174257400,7.21925732421875,-0.16111570596694946,-0.046273041516542435,0.0780380368232727
1701981427191250200,7.236250244140625,-0.1621847152709961,-0.13805554807186127,0.10354165732860565
1701981427208234200,7.253234130859375,-0.12278391420841217,-0.11972958594560623,0.08139779418706894
1701981427225242600,7.27024267578125,-0.09422596544027328,-0.08643743395805359,0.04199698567390442
1701981427242238500,7.287238525390625,-0.09040805697441101,-0.08536841720342636,0.008704829961061478
1701981427259221800,7.3042216796875,-0.10781771689653397,-0.11545353382825851,-0.01160643994808197
1701981427276210400,7.32121044921875,-0.10506882518529892,-0.13958270847797394,-0.0025961773935705423
1701981427293197300,7.338197265625,-0.08781187981367111,-0.156686931848526,0.029168816283345222
1701981427310206000,7.3552060546875,-0.052381694316864014,-0.15027284622192383,0.041233405470848083
1701981427327186200,7.372186279296875,-0.021380282938480377,-0.12018773704767227,0.038179077208042145
1701981427344185600,7.389185546875,-0.01970040425658226,-0.11270463466644287,0.02687807008624077
1701981427361174500,7.406174560546875,-0.022143865004181862,-0.1007927656173706,0.011453723534941673
1701981427378165000,7.4231650390625,-0.02871066704392433,-0.12492194026708603,-0.004581489134579897
1701981427395161900,7.440161865234375,-0.038637228310108185,-0.1342376321554184,-0.012828170321881771
1701981427412153300,7.4571533203125,-0.04764748737215996,-0.10537425428628922,-0.012828170321881771
1701981427429148200,7.474148193359375,-0.04902193695306778,-0.09697485715150833,0.00045814894838258624
1701981427446136000,7.491135986328125,-0.04489859566092491,-0.10751228034496307,0.027488935738801956
1701981427463132000,7.5081318359375,-0.04001167416572571,-0.12461651116609573,0.06429356336593628
1701981427480121000,7.52512109375,-0.03695734590291977,-0.11056660860776901,0.06154467165470123
1701981427497115100,7.542115234375,-0.03084869496524334,-0.06352998316287994,0.03756821155548096
1701981427514109400,7.559109375,-0.04184427112340927,-0.07483099400997162,0.03451388701796532
1701981427531104300,7.576104248046875,-0.02580905705690384,-0.10064005106687546,0.014508049935102463
1701981427548092700,7.5930927734375,0.00855211354792118,-0.05742133408784866,-0.043676864355802536
1701981427565089300,7.61008935546875,0.04184427112340927,0.08521570265293121,-0.11881329119205475
1701981427582080000,7.627080078125,0.060322944074869156,0.2532036304473877,-0.11255192011594772
1701981427599075600,7.64407568359375,0.07330382615327835,0.3407101035118103,-0.02886338345706463
1701981427616063700,7.661063720703125,0.10583240538835526,0.31459560990333557,0.08216137439012527
1701981427633059000,7.67805908203125,0.09483683109283447,0.15500704944133759,0.20097467303276062
1701981427650052600,7.695052490234375,0.07727445662021637,-0.1258382350206375,0.15057829022407532
1701981427667042000,7.7120419921875,0.07070764899253845,-0.03497203439474106,0.048716504126787186
1701981427684027400,7.72902734375,0.03985895588994026,0.13179416954517365,-0.043676864355802536
1701981427701038300,7.746038330078125,0.025503624230623245,0.15622878074645996,-0.12003502249717712
1701981427718019300,7.763019287109375,0.03344487398862839,0.12996158003807068,-0.1508837193250656
1701981427735016000,7.780015869140625,0.029168816283345222,0.07162395119667053,-0.12293662875890732
1701981427752003800,7.79700390625,0.020463986322283745,0.029168816283345222,-0.03405573591589928
1701981427769000200,7.814000244140625,0.016798794269561768,-0.03436116874217987,0.07452555745840073
1701981427785993200,7.8309931640625,0.027030786499381065,-0.13118331134319305,0.1316414624452591
1701981427802987300,7.8479873046875,0.04092797264456749,-0.15012013912200928,0.09208793938159943
1701981427819982600,7.864982666015625,0.052839845418930054,-0.08124507963657379,-0.008704829961061478
1701981427836964000,7.881964111328125,0.05711590126156807,-0.015118914656341076,-0.09117163717746735
1701981427853966600,7.898966552734375,0.06582073122262955,-0.016035212203860283,-0.10247264802455902
1701981427870958000,7.9159580078125,0.10155634582042694,-0.04153883829712868,-0.07528914511203766
1701981427887947800,7.93294775390625,0.1408044397830963,-0.05726861581206322,-0.023365596309304237
1701981427904943900,7.94994384765625,0.1722639948129654,-0.08521570265293121,0.03588833287358284
1701981427921934300,7.966934326171875,0.17333301901817322,-0.1287398487329483,0.08811730891466141
1701981427938927900,7.983927978515625,0.15851953625679016,-0.17623461782932281,0.09117163717746735
1701981427955919400,8.00091943359375,0.1391245573759079,-0.15195272862911224,0.043676864355802536
1701981427972910800,8.017910888671874,0.15302173793315887,-0.0705549344420433,-0.012980886735022068
1701981427989897000,8.03489697265625,0.2275473028421402,-0.033597588539123535,-0.05849034711718559
1701981428006894000,8.05189404296875,0.3240640163421631,-0.012064588256180286,-0.06979135423898697
1701981428023891500,8.068891357421874,0.37048977613449097,-0.03894266113638878,-0.03390302136540413
1701981428040888600,8.085888671875,0.33169981837272644,-0.1365283876657486,0.052228979766368866
1701981428057874400,8.10287451171875,0.26801711320877075,-0.275347501039505,0.14614951610565186
1701981428074871300,8.119871337890626,0.22372940182685852,-0.385303258895874,0.2200642079114914
1701981428091862000,8.136862060546875,0.1915062516927719,-0.37537670135498047,0.2756529450416565
1701981428108853200,8.153853271484374,0.166460782289505,-0.34804046154022217,0.2704605758190155
1701981428125847800,8.170847900390624,0.15057829022407532,-0.28298333287239075,0.20815233886241913
1701981428142840600,8.187840576171874,0.11239920556545258,-0.19853121042251587,0.14477506279945374
1701981428159834000,8.204834228515624,0.044287730008363724,-0.10583240538835526,0.11331550031900406
1701981428176823800,8.22182373046875,0.006261368747800589,-0.06963863968849182,0.0630718395113945
1701981428193817900,8.23881787109375,-0.00015271631127689034,-0.052381694316864014,0.0039706239476799965
1701981428210813200,8.255813232421875,0.0009162978967651725,-0.04749477282166481,-0.02168571576476097
1701981428227800800,8.27280078125,0.015882495790719986,-0.014966198243200779,-0.009162978269159794
1701981428244787700,8.28978759765625,0.031612277030944824,-0.01771509274840355,-0.016340645030140877
1701981428261791500,8.30679150390625,0.027947084978222847,-0.030237829312682152,-0.021380282938480377
1701981428278777600,8.323777587890625,0.009773843921720982,-0.044745877385139465,-0.005039638374000788
1701981428295775500,8.340775390625,-0.005345070734620094,-0.1007927656173706,0.015118914656341076
1701981428312767700,8.357767822265625,-0.01542434748262167,-0.15913039445877075,0.027488935738801956
1701981428329761300,8.37476123046875,0.022602014243602753,-0.14752395451068878,0.040164388716220856
1701981428346750700,8.391750732421874,0.11010845750570297,-0.07941248267889023,0.06750060617923737
1701981428363735300,8.4087353515625,0.17333301901817322,-0.10033461451530457,0.08720101416110992
1701981428380738600,8.425738525390624,0.1869247704744339,-0.19578230381011963,0.10690141469240189
1701981428397725700,8.4427255859375,0.16035212576389313,-0.26939156651496887,0.1466076523065567
1701981428414730000,8.45972998046875,0.12171489745378494,-0.3378084897994995,0.2073887437582016
1701981428431716400,8.47671630859375,0.0910189226269722,-0.39813143014907837,0.26022860407829285
1701981428448706300,8.493706298828124,0.1014036312699318,-0.44287729263305664,0.24342979490756989
1701981428465702400,8.510702392578125,0.0429132841527462,-0.6110179424285889,-0.2444988191127777
1701981428482694700,8.527694580078125,-0.019853120669722557,0.4034765064716339,-0.18478673696517944
1701981428499688400,8.5446884765625,-0.04398229718208313,0.3959933817386627,-0.1417207419872284
1701981428516678400,8.561678466796875,0.008704829961061478,0.10873401165008545,-0.08429940044879913
1701981428533672200,8.578672119140625,-0.022143865004181862,-0.08796459436416626,-0.07773260027170181
1701981428550666500,8.59566650390625,-0.05497787147760391,0.05314527451992035,-0.06001751124858856
1701981428567653600,8.612653564453124,-0.03329215571284294,0.2379320114850998,-0.07116580009460449
1701981428584654000,8.629654052734375,0.009621127508580685,0.28466320037841797,-0.09254608303308487
1701981428601643500,8.6466435546875,0.0403171069920063,0.19883663952350616,-0.1443169116973877
1701981428618635000,8.663635009765626,0.044745877385139465,0.11667526513338089,-0.1992947906255722
1701981428635619000,8.680619140625,0.00427605677396059,0.10125091671943665,-0.1713477075099945
1701981428652620500,8.69762060546875,-0.014966198243200779,0.06230825558304787,-0.09575312584638596
1701981428669617700,8.71461767578125,0.004581489134579897,0.06505715101957321,-0.03649919852614403
1701981428686590500,8.731590576171875,0.027183502912521362,0.09483683109283447,-0.04932736977934837
1701981428703599600,8.748599609375,0.03405573591589928,0.15974126756191254,-0.09346238523721695
1701981428720595000,8.765594970703125,0.024892758578062057,0.2025018334388733,-0.12110403180122375
1701981428737582800,8.782582763671876,0.010995574295520782,0.2002110779285431,-0.11759155988693237
1701981428754578200,8.799578125,0.0032070425804704428,0.19074267148971558,-0.1088867336511612
1701981428771572000,8.816572021484374,-0.003054326167330146,0.18585574626922607,-0.0907134860754013
1701981428788561700,8.833561767578125,0.001527163083665073,0.14767667651176453,-0.0780380368232727
1701981428805556500,8.850556396484375,0.005345070734620094,0.15347988903522491,-0.06841690838336945
1701981428822549200,8.86754931640625,0.0074830991216003895,0.1745547503232956,-0.06200282275676727
1701981428839543000,8.88454296875,0.00366519158706069,0.1843285858631134,-0.04505131021142006
1701981428856525300,8.901525390625,-0.0024434609804302454,0.15913039445877075,-0.036193765699863434
1701981428873526500,8.918526611328126,-0.009010262787342072,0.15622878074645996,-0.027488935738801956
1701981428890521600,8.935521484375,-0.01237002108246088,0.14034628868103027,-0.03344487398862839
1701981428907510000,8.952510009765625,-0.018478672951459885,0.12950342893600464,-0.03436116874217987
1701981428924505900,8.969505859375,-0.024892758578062057,0.12095131725072861,-0.03344487398862839
1701981428941499100,8.9864990234375,-0.029168816283345222,0.11575896292924881,-0.048105638474226
1701981428958488600,9.003488525390624,-0.024434609338641167,0.13759739696979523,-0.07819075137376785
1701981428975484200,9.020484130859375,-0.01572977937757969,0.15913039445877075,-0.08216137439012527
1701981428992477000,9.037476806640624,0.0006108652451075613,0.13759739696979523,-0.04886921867728233
1701981429009470000,9.054469970703124,0.00809396430850029,0.0861319974064827,-0.010842857882380486
1701981429026460400,9.07146044921875,0.001527163083665073,0.05955936014652252,0.00366519158706069
1701981429043451600,9.08845166015625,-0.012064588256180286,0.03390302136540413,-0.010231993161141872
1701981429060451600,9.10545166015625,-0.031612277030944824,0.04963280260562897,-0.028099801391363144
1701981429077437000,9.12243701171875,-0.06688974797725677,0.05803219974040985,-0.058337632566690445
1701981429094432800,9.139432861328125,-0.08170322328805923,0.08414668589830399,-0.09957103431224823
1701981429111426600,9.156426513671875,-0.07360926270484924,0.16859880089759827,-0.12110403180122375
1701981429128416000,9.173416015625,-0.06383541971445084,0.25106561183929443,-0.12751811742782593
1701981429145410800,9.190410888671876,-0.08536841720342636,0.3214678466320038,-0.11056660860776901
1701981429162403300,9.2074033203125,-0.14905111491680145,0.37308594584465027,-0.06291911751031876
1701981429179397400,9.2243974609375,-0.16493362188339233,0.20586158335208893,-0.08720101416110992
1701981429196386800,9.24138671875,-0.12507465481758118,0.03756821155548096,-0.15286903083324432
1701981429213382700,9.258382568359375,-0.09254608303308487,0.0354301854968071,-0.1765400618314743
1701981429230374000,9.275373779296874,-0.07040221989154816,0.08964447677135468,-0.1394299864768982
1701981429247357200,9.292357177734376,-0.07971791177988052,0.10934487730264664,-0.06963863968849182
1701981429264362500,9.309362548828124,-0.11163562536239624,0.12996158003807068,0.02076941914856434
1701981429281352000,9.32635205078125,-0.11682797968387604,0.04948008432984352,0.06765332818031311
1701981429298334700,9.343334716796875,-0.078343465924263,-0.126143679022789,0.08720101416110992
1701981429315338500,9.36033837890625,-0.06643159687519073,-0.2194533348083496,0.10170906037092209
1701981429332331000,9.3773310546875,-0.06505715101957321,-0.154396191239357,0.09957103431224823
1701981429349324500,9.394324462890625,-0.08002334833145142,-0.04092797264456749,0.05971207842230797
1701981429366313700,9.411313720703125,-0.11530081182718277,0.09636399149894714,0.02321287989616394
1701981429383308500,9.42830859375,-0.1316414624452591,0.14187344908714294,-0.010079276748001575
1701981429400303600,9.4453037109375,-0.11163562536239624,0.048716504126787186,-0.03084869496524334
1701981429417291300,9.462291259765625,-0.09300423413515091,-0.02321287989616394,-0.03237585723400116
1701981429434287400,9.479287353515625,-0.09896016865968704,0.01771509274840355,-0.04886921867728233
1701981429451271200,9.496271240234375,-0.10522153973579407,0.15577064454555511,-0.08277224004268646
1701981429468270300,9.513270263671876,-0.11133018881082535,0.2941316068172455,-0.08659014850854874
1701981429485265400,9.530265380859374,-0.10552696883678436,0.34177911281585693,-0.07299839705228806
1701981429502258400,9.547258544921876,-0.07559457421302795,0.3572034537792206,-0.14676037430763245
1701981429519252000,9.564251953125,-0.04581489413976669,0.3825543522834778,-0.3017674386501312
1701981429536241400,9.581241455078125,-0.007635815534740686,0.4605923891067505,-0.4053090810775757
1701981429553236500,9.598236572265625,0.018020525574684143,0.5062545537948608,-0.33689218759536743
1701981429570242300,9.6152421875,-0.035582900047302246,0.3474296033382416,-0.13454307615756989
1701981429587209200,9.632209228515626,-0.09269879758358002,-0.020616702735424042,0.0403171069920063
1701981429604215800,9.6492158203125,-0.02687807008624077,-0.15683965384960175,0.20525072515010834
1701981429621208600,9.66620849609375,-0.030543262138962746,-0.2174680233001709,0.30741792917251587
1701981429638201300,9.683201416015624,-0.0757472887635231,-0.2768746614456177,0.30695977807044983
1701981429655197400,9.700197509765625,-0.1313360333442688,-0.32162055373191833,0.13545936346054077
1701981429672187000,9.717186767578125,-0.1368338167667389,-0.17104226350784302,-0.04444044828414917
1701981429689179600,9.7341796875,-0.15363261103630066,-0.03726277872920036,-0.11972958594560623
1701981429706168600,9.75116845703125,-0.15042556822299957,-0.04581489413976669,-0.07712173461914062
1701981429723163100,9.7681630859375,-0.1189660057425499,-0.08307767659425735,0.025656340643763542
1701981429740158500,9.785158447265625,-0.09636399149894714,-0.14355333149433136,0.10491610318422318
1701981429757146000,9.80214599609375,-0.098502017557621,-0.1820378452539444,0.13637566566467285
1701981429774141700,9.8191416015625,-0.11591167747974396,-0.23716843128204346,0.12858712673187256
1701981429791135500,9.836135498046875,-0.12370020896196365,-0.24419337511062622,0.10216721147298813
1701981429808125000,9.853125,-0.13041973114013672,-0.23457226157188416,0.09086620807647705
1701981429825120300,9.870120361328125,-0.12629638612270355,-0.24297164380550385,0.11820242553949356
1701981429842112500,9.887112548828124,-0.11163562536239624,-0.25763240456581116,0.17302757501602173
1701981429859106300,9.904106201171874,-0.10125091671943665,-0.285121351480484,0.2301434874534607
1701981429876097500,9.92109765625,-0.04841107130050659,-0.24923302233219147,0.17699819803237915
1701981429893090300,9.93809033203125,-0.007941247895359993,-0.10048733651638031,0.09346238523721695
1701981429910085000,9.955085205078126,0.0009162978967651725,-0.015882495790719986,0.021074850112199783
1701981429927060700,9.972060791015625,0.009773843921720982,-0.02015855349600315,-0.027030786499381065
1701981429944069000,9.989069091796875,0.019547687843441963,-0.059864792972803116,-0.05696318298578262
1701981429961062400,10.0060625,0.013286318629980087,-0.020922135561704636,-0.04917465150356293
1701981429978038800,10.023038818359375,0.005955935921519995,-0.032070424407720566,-0.010842857882380486
1701981429995047200,10.040047119140626,-0.012522737495601177,-0.07895433157682419,0.05619960278272629
1701981430012040000,10.0570400390625,-0.03741549700498581,-0.11041389405727386,0.11239920556545258
1701981430029033500,10.074033447265625,-0.037110064178705215,-0.11468994617462158,0.12538009881973267
1701981430046023200,10.091023193359375,0.00427605677396059,-0.13988813757896423,0.10476338863372803
1701981430063017500,10.108017578125,0.04734205827116966,-0.14294247329235077,0.12278391420841217
1701981430080010000,10.125010009765624,0.06688974797725677,-0.22937989234924316,0.17043140530586243
1701981430097003000,10.1420029296875,0.07437284290790558,-0.31383201479911804,0.23609942197799683
1701981430113996300,10.158996337890626,0.07330382615327835,-0.42180246114730835,0.28695395588874817
1701981430130990600,10.175990478515626,0.07757988572120667,-0.5096143484115601,0.2831360399723053
1701981430147973400,10.192973388671875,0.0913243517279625,-0.55069500207901,0.21395555138587952
1701981430164970200,10.20997021484375,0.10903944820165634,-0.4801400899887085,0.14508049190044403
1701981430181969200,10.22696923828125,0.1033889427781105,-0.351400226354599,0.06536258012056351
1701981430198951400,10.243951416015625,0.08399397134780884,-0.21013765037059784,-0.03344487398862839
1701981430215955700,10.260955810546875,0.07269296050071716,-0.05650503560900688,-0.1014036312699318
1701981430232944000,10.277944091796876,0.0708603709936142,0.057879481464624405,-0.08933904021978378
1701981430249939500,10.294939453125,0.07284568250179291,0.048716504126787186,-0.03375030308961868
1701981430266927900,10.311927978515625,0.054367005825042725,-0.031612277030944824,0.017562376335263252
1701981430283929900,10.328929931640625,-0.005345070734620094,-0.1264491081237793,0.021074850112199783
1701981430300914400,10.34591455078125,-0.02122756652534008,0.10216721147298813,0.05451972410082817
1701981430317907200,10.3629072265625,-0.039248090237379074,0.05925392732024193,0.01160643994808197
1701981430334899000,10.37989892578125,-0.019853120669722557,-0.050854530185461044,-0.08216137439012527
1701981430351892500,10.396892578125,0.016493361443281174,-0.046273041516542435,-0.14126259088516235
1701981430368878600,10.413878662109376,0.02672535367310047,0.04489859566092491,-0.12431107461452484
1701981430385871600,10.43087158203125,0.04688390716910362,0.11239920556545258,-0.0659734457731247
1701981430402872600,10.44787255859375,0.05757404863834381,0.022907447069883347,-0.01817324012517929
1701981430419881000,10.464880859375,0.033139441162347794,-0.10781771689653397,-0.015271631069481373
1701981430436854800,10.481854736328126,0.024892758578062057,-0.1342376321554184,-0.045204028487205505
1701981430453851000,10.498850830078124,0.006108652334660292,-0.24342979490756989,-0.08185594528913498
1701981430470844700,10.5158447265625,0.004581489134579897,0.08704829961061478,0.03955352306365967
1701981430487834400,10.53283447265625,-0.01970040425658226,0.16401731967926025,0.12186761945486069
1701981430504829200,10.5498291015625,-0.0630718395113945,-0.01466076634824276,0.1085812970995903
1701981430521822500,10.566822509765625,-0.09254608303308487,-0.07620543986558914,0.04932736977934837
1701981430538809300,10.583809326171876,-0.08048149943351746,-0.02932153269648552,-0.03298672288656235
1701981430555808300,10.600808349609375,-0.03588833287358284,0.18677204847335815,-0.07590000331401825
1701981430572799000,10.617799072265624,0.010231993161141872,0.30024027824401855,-0.07635815441608429
1701981430589794600,10.634794677734375,-0.024892758578062057,0.17256943881511688,-0.05757404863834381
1701981430606780200,10.6517802734375,-0.050243668258190155,0.07987063378095627,-0.03756821155548096
1701981430623780400,10.6687802734375,-0.018936822190880775,-0.07422012835741043,-0.0633772686123848
1701981430640771600,10.685771484375,0.014049900695681572,0.11911872029304504,-0.012522737495601177
1701981430657761500,10.702761474609375,0.007177666760981083,0.38469240069389343,0.08109235763549805
1701981430674756900,10.7197568359375,-0.024892758578062057,0.2874121069908142,0.1333213448524475
1701981430691749400,10.736749267578125,-0.03527746722102165,0.047800205647945404,0.12263119965791702
1701981430708739300,10.7537392578125,-0.010231993161141872,-0.058337632566690445,0.06765332818031311
1701981430725735400,10.7707353515625,0.03344487398862839,0.033139441162347794,0.027488935738801956
1701981430742710500,10.78771044921875,0.054825156927108765,0.08811730891466141,0.008246680721640587
1701981430759719400,10.804719482421875,0.05619960278272629,0.09758572280406952,0.007788531947880983
1701981430776712200,10.821712158203125,0.04092797264456749,0.03420845419168472,0.008704829961061478
1701981430793705500,10.83870556640625,0.046273041516542435,-0.05207626149058342,-0.009162978269159794
1701981430810699300,10.85569921875,0.047189339995384216,-0.06734789162874222,-0.04092797264456749
1701981430827688700,10.872688720703126,0.04337143152952194,-0.030543262138962746,-0.05849034711718559
1701981430844682800,10.889682861328126,0.02535090781748295,-0.003359758760780096,-0.02886338345706463
1701981430861677300,10.90667724609375,-0.0007635815418325365,0.01160643994808197,0.03527746722102165
1701981430878666200,10.923666259765625,-0.014508049935102463,0.014966198243200779,0.06352998316287994
1701981430895663000,10.9406630859375,-0.0007635815418325365,0.003512475173920393,0.029626963660120964
1701981430912654300,10.957654296875,0.0032070425804704428,-0.01924225501716137,-0.019394971430301666
1701981430929648400,10.9746484375,0.00427605677396059,-0.029474247246980667,-0.05467243865132332
1701981430946630000,10.9916298828125,0.007941247895359993,-0.019547687843441963,-0.07483099400997162
1701981430963634000,11.008634033203125,0.003512475173920393,-0.007941247895359993,-0.05497787147760391
1701981430980626200,11.025626220703124,-0.011301007121801376,0.005955935921519995,-0.00855211354792118
1701981430997615900,11.042615966796875,-0.013744467869400978,0.014966198243200779,0.030237829312682152
1701981431014598100,11.05959814453125,0.010995574295520782,-0.03634648025035858,0.02168571576476097
1701981431031607800,11.07660791015625,0.017562376335263252,-0.03634648025035858,-0.010537425056099892
1701981431048593400,11.093593505859374,0.006719517521560192,0.009010262787342072,-0.04398229718208313
1701981431065590300,11.11059033203125,0.0029016099870204926,0.054825156927108765,-0.04902193695306778
1701981431082581500,11.12758154296875,0.00809396430850029,0.07208210229873657,-0.03878994286060333
1701981431099576600,11.14457666015625,0.02428189292550087,-0.0065668015740811825,-0.04932736977934837
1701981431116564000,11.16156396484375,0.030237829312682152,-0.058795779943466187,-0.03145955875515938
1701981431133560000,11.17856005859375,0.01771509274840355,-0.054367005825042725,-0.0025961773935705423
1701981431150554000,11.19555419921875,0.009773843921720982,-0.044287730008363724,0.0025961773935705423
1701981431167543800,11.212543701171874,0.016493361443281174,-0.045204028487205505,-0.0019853119738399982
1701981431184537900,11.229537841796875,0.01970040425658226,-0.06627888232469559,-0.006872233934700489
1701981431201528800,11.24652880859375,0.024892758578062057,-0.11133018881082535,-0.0074830991216003895
1701981431218524700,11.263524658203124,0.02076941914856434,-0.1371392458677292,0.00931569468230009
1701981431235517700,11.280517578125,0.00733038317412138,-0.14966198801994324,0.038637228310108185
1701981431252508700,11.2975087890625,-0.015577063895761967,-0.10461067408323288,0.04352414980530739
1701981431269503500,11.31450341796875,-0.017562376335263252,-0.032681290060281754,0.009468411095440388
1701981431286486800,11.33148681640625,-0.009773843921720982,-0.07620543986558914,-0.03726277872920036
1701981431303487700,11.34848779296875,-0.01863138936460018,-0.13454307615756989,-0.04245513305068016
1701981431320481000,11.36548095703125,0.0006108652451075613,0.09407325088977814,0.012828170321881771
1701981431337470500,11.382470458984375,-0.010842857882380486,0.06643159687519073,0.01771509274840355
1701981431354465300,11.39946533203125,-0.02519819140434265,-0.032070424407720566,0.009468411095440388
1701981431371460400,11.41646044921875,-0.012064588256180286,-0.07467827945947647,-0.00733038317412138
1701981431388448300,11.4334482421875,0.009010262787342072,-0.034666601568460464,-0.001679879380390048
1701981431405444600,11.450444580078125,0.013744467869400978,-0.007941247895359993,0.02229658141732216
1701981431422436000,11.46743603515625,0.023518312722444534,-0.004886921960860491,0.04199698567390442
1701981431439431200,11.48443115234375,0.023365596309304237,-0.04856378585100174,0.03084869496524334
1701981431456412000,11.501411865234376,0.003359758760780096,-0.12018773704767227,-0.020463986322283745
1701981431473415000,11.518414794921876,-0.012980886735022068,-0.21181751787662506,-0.08048149943351746
1701981431490408700,11.53540869140625,0.013439035043120384,0.09697485715150833,-0.02535090781748295
1701981431507398700,11.552398681640625,0.018020525574684143,0.16951510310173035,0.03145955875515938
1701981431524391700,11.5693916015625,-0.001832595793530345,0.01924225501716137,0.058337632566690445
1701981431541387500,11.586387451171875,-0.005650503560900688,-0.05726861581206322,0.05253441259264946
1701981431558375700,11.603375732421876,-0.00045814894838258624,-0.020463986322283745,0.01863138936460018
1701981431575372300,11.620372314453125,0.0039706239476799965,0.05360342562198639,-0.023976460099220276
1701981431592363300,11.63736328125,0.01114829070866108,0.08460483700037003,-0.04657847434282303
1701981431609360000,11.65435986328125,0.01038470957428217,0.05345070734620094,-0.0328340083360672
1701981431626347000,11.671346923828125,0.011301007121801376,0.009773843921720982,-0.009162978269159794
1701981431643342300,11.68834228515625,0.022143865004181862,0.0013744467869400978,-0.005803219974040985
1701981431660337200,11.705337158203125,0.020922135561704636,0.036193765699863434,-0.012217304669320583
1701981431677322800,11.72232275390625,0.017409659922122955,0.05696318298578262,-0.03481931984424591
1701981431694322400,11.739322509765625,0.017409659922122955,0.06123924255371094,-0.055283304303884506
1701981431711315200,11.756315185546875,0.012828170321881771,0.06505715101957321,-0.05619960278272629
1701981431728302800,11.773302734375,0.002138028386980295,0.06734789162874222,-0.03573561832308769
1701981431745299500,11.790299560546876,0.005192354787141085,0.048716504126787186,0.002138028386980295
1701981431762291000,11.807291015625,0.012064588256180286,0.009926560334861279,0.026114489883184433
1701981431779287300,11.824287353515626,0.01863138936460018,0.004123340360820293,0.015271631069481373
1701981431796272400,11.8412724609375,0.011301007121801376,0.03955352306365967,-0.021074850112199783
1701981431813269800,11.858269775390625,0.00366519158706069,0.05803219974040985,-0.06352998316287994
1701981431830263800,11.875263916015625,-0.0064140851609408855,0.07223481684923172,-0.07651086896657944
1701981431847241700,11.89224169921875,-0.006719517521560192,0.08338310569524765,-0.0529925599694252
1701981431864247000,11.9092470703125,-0.00366519158706069,0.06429356336593628,-0.01725694350898266
1701981431881240600,11.926240478515625,0.004581489134579897,0.03634648025035858,0.003359758760780096
1701981431898233900,11.94323388671875,0.004428773187100887,0.01191187184303999,-0.0022907445672899485
1701981431915242200,11.9602421875,-0.0010690141934901476,0.018325956538319588,-0.040164388716220856
1701981431932212200,11.977212158203125,-0.014355333521962166,0.07040221989154816,-0.07910704612731934
1701981431949212200,11.994212158203124,-0.012675453908741474,0.10354165732860565,-0.07666359096765518
1701981431966203400,12.011203369140626,0.00045814894838258624,0.07070764899253845,-0.039248090237379074
1701981431983202300,12.028202392578125,-0.0003054326225537807,0.003359758760780096,-0.013286318629980087
1701981432000191700,12.045191650390626,0.0074830991216003895,0.01710422709584236,-0.008857546374201775
1701981432017181000,12.062180908203125,0.01038470957428217,0.060322944074869156,-0.016035212203860283
1701981432034174700,12.0791748046875,0.04214970022439957,0.09483683109283447,-0.030543262138962746
1701981432051174700,12.096174560546874,0.06658431142568588,0.08307767659425735,-0.00366519158706069
1701981432068157700,12.11315771484375,0.0429132841527462,-0.001527163083665073,0.04795292019844055
1701981432085154300,12.130154296875,0.03420845419168472,-0.11102475970983505,0.09040805697441101
1701981432102135300,12.14713525390625,0.04260785132646561,-0.12721268832683563,0.09514226019382477
1701981432119140900,12.164140869140626,0.02779436856508255,-0.006108652334660292,0.07559457421302795
1701981432136128800,12.181128662109375,0.009926560334861279,-0.006261368747800589,0.008246680721640587
1701981432153124600,12.19812451171875,0.015271631069481373,0.10231992602348328,-0.027947084978222847
1701981432170115800,12.21511572265625,0.009773843921720982,0.14263702929019928,-0.05451972410082817
1701981432187111000,12.23211083984375,0.012064588256180286,0.12217304855585098,-0.10781771689653397
1701981432204102000,12.249101806640626,0.009621127508580685,0.05803219974040985,-0.16783522069454193
1701981432221097000,12.266096923828124,0.02825251780450344,0.037110064178705215,-0.15286903083324432
1701981432238085400,12.28308544921875,0.007177666760981083,-0.006872233934700489,-0.05207626149058342
1701981432255085300,12.300085205078124,0.010842857882380486,-0.0907134860754013,0.032681290060281754
1701981432272070000,12.31706982421875,0.02229658141732216,-0.08567385375499725,0.07620543986558914
1701981432289071400,12.3340712890625,0.02229658141732216,-0.037110064178705215,0.06398813426494598
1701981432306053600,12.3510537109375,0.02535090781748295,-0.010842857882380486,0.015271631069481373
1701981432323054800,12.368054931640625,0.01878410577774048,-0.007177666760981083,-0.025503624230623245
1701981432340045800,12.3850458984375,0.005192354787141085,-0.032681290060281754,-0.04092797264456749
1701981432357035300,12.40203515625,0.0025961773935705423,-0.03878994286060333,-0.01771509274840355
1701981432374029600,12.419029541015625,0.005497787147760391,-0.04734205827116966,0.01664607785642147
1701981432391025000,12.43602490234375,0.01542434748262167,-0.07956519722938538,0.05207626149058342
1701981432408012500,12.453012451171874,0.017409659922122955,-0.14523321390151978,0.07590000331401825
1701981432425009200,12.470009033203125,0.007788531947880983,-0.2272418737411499,0.06643159687519073
1701981432442001000,12.4870009765625,-0.004428773187100887,-0.24862214922904968,0.05451972410082817
1701981432458985700,12.50398583984375,-0.016798794269561768,-0.2018909603357315,0.04841107130050659
1701981432475982000,12.520982177734375,-0.0032070425804704428,-0.1719585657119751,0.01771509274840355
1701981432492984000,12.537984130859375,0.019547687843441963,-0.1817324161529541,-0.014202617108821869
1701981432509974800,12.554974853515626,0.04199698567390442,-0.21884247660636902,-0.0013744467869400978
1701981432526962400,12.57196240234375,0.02367102913558483,-0.29856038093566895,0.06643159687519073
1701981432543960000,12.5889599609375,-0.029016099870204926,-0.44913867115974426,0.14737124741077423
1701981432560952000,12.6059521484375,-0.07223481684923172,-0.5949827432632446,0.20693060755729675
1701981432577944600,12.622944580078125,-0.06673702597618103,-0.6663012504577637,0.24113905429840088
1701981432594936000,12.63993603515625,-0.020922135561704636,-0.6953173875808716,0.2724458873271942
1701981432611928000,12.656927978515625,0.007177666760981083,-0.7021896243095398,0.2770273983478546
1701981432628921900,12.673921875,0.005497787147760391,-0.6586654782295227,0.22892175614833832
1701981432645912000,12.690912109375,-0.02672535367310047,-0.5181664228439331,0.1342376321554184
1701981432662902800,12.70790283203125,-0.06811147183179855,-0.26893341541290283,0.038637228310108185
1701981432679900000,12.72489990234375,-0.10690141469240189,-0.06994406878948212,-0.03649919852614403
1701981432696891100,12.74189111328125,-0.09315694868564606,0.04382958263158798,-0.10537425428628922
1701981432713884400,12.758884521484376,-0.04795292019844055,0.18768835067749023,-0.12553280591964722
1701981432730885000,12.775885009765625,-0.021532999351620674,0.29397889971733093,-0.11621711403131485
1701981432747868700,12.79286865234375,-0.0007635815418325365,0.36483925580978394,-0.11316278576850891
1701981432764864300,12.8098642578125,0.010231993161141872,0.32009339332580566,-0.15577064454555511
1701981432781843700,12.82684375,0.030237829312682152,0.2857322096824646,-0.19547687470912933
1701981432798849500,12.843849609375,0.05054909735918045,0.2672535479068756,-0.17409659922122955
1701981432815830800,12.860830810546876,0.056810468435287476,0.19944749772548676,-0.08720101416110992
1701981432832834300,12.877834228515624,0.05467243865132332,0.11407908797264099,0.013286318629980087
1701981432849825300,12.8948251953125,0.051312681287527084,0.060322944074869156,0.06841690838336945
1701981432866816000,12.91181591796875,0.035124752670526505,-0.005497787147760391,0.040164388716220856
1701981432883802400,12.92880224609375,0.037110064178705215,-0.03573561832308769,-0.04932736977934837
1701981432900805600,12.9458056640625,0.062460970133543015,-0.00931569468230009,-0.15134187042713165
1701981432917796900,12.962796875,0.07299839705228806,0.07330382615327835,-0.19975294172763824
1701981432934792200,12.979792236328125,0.04932736977934837,0.052381694316864014,-0.18539759516716003
1701981432951783000,12.996782958984374,0.013591751456260681,0.16600263118743896,-0.06902777403593063
1701981432968775200,13.013775146484376,-0.00366519158706069,0.13057245314121246,0.04581489413976669
1701981432985759200,13.03075927734375,-0.026572637259960175,-0.006719517521560192,0.1088867336511612
1701981433002762200,13.04776220703125,-0.022449297830462456,-0.03680463135242462,0.09605856239795685
1701981433019745300,13.064745361328125,-0.013897184282541275,0.03741549700498581,0.03497203439474106
1701981433036745000,13.081744873046874,-0.007024950347840786,0.12950342893600464,-0.023518312722444534
1701981433053739800,13.09873974609375,0.009010262787342072,0.19349156320095062,-0.024434609338641167
1701981433070734800,13.11573486328125,0.010842857882380486,0.1310305893421173,0.026419922709465027
1701981433087722800,13.13272265625,-0.02779436856508255,-0.05009094998240471,0.06368270516395569
1701981433104723700,13.1497236328125,-0.04688390716910362,-0.14828753471374512,0.045204028487205505
1701981433121704400,13.166704345703126,-0.028557950630784035,0.028405234217643738,0.011453723534941673
1701981433138704600,13.18370458984375,0.005345070734620094,0.2142609804868698,-0.009468411095440388
1701981433155681300,13.200681396484375,0.030237829312682152,0.08933904021978378,-0.03940080851316452
1701981433172687600,13.2176875,0.014966198243200779,0.04398229718208313,0.01191187184303999
1701981433189685000,13.23468505859375,0.0006108652451075613,0.029168816283345222,0.09178250283002853
1701981433206673700,13.251673583984376,0.0019853119738399982,-0.00931569468230009,0.14187344908714294
1701981433223666400,13.26866650390625,0.005192354787141085,-0.05115996301174164,0.12782354652881622
1701981433240661200,13.2856611328125,-0.007788531947880983,-0.031612277030944824,0.06520986557006836
1701981433257650400,13.302650390625,-0.013591751456260681,0.07757988572120667,0.004886921960860491
1701981433274647600,13.3196474609375,0,0.11270463466644287,-0.043676864355802536
1701981433291638800,13.336638671875,0.01863138936460018,0.08216137439012527,-0.04932736977934837
1701981433308630300,13.35363037109375,0.029168816283345222,0.01771509274840355,-0.015271631069481373
1701981433325613800,13.37061376953125,0.0354301854968071,-0.03756821155548096,0.02015855349600315
1701981433342615600,13.387615478515626,0.04077525436878204,-0.04337143152952194,0.03130684420466423
1701981433359612700,13.40461279296875,0.03329215571284294,0.0064140851609408855,0.015118914656341076
1701981433376600800,13.421600830078125,0.00809396430850029,0.051770828664302826,-0.015271631069481373
1701981433393594600,13.4385947265625,-0.007788531947880983,0.056352317333221436,-0.04245513305068016
1701981433410571300,13.4555712890625,-0.008246680721640587,0.031154127791523933,-0.057879481464624405
1701981433427579100,13.4725791015625,0.016493361443281174,0.02321287989616394,-0.044745877385139465
1701981433444573400,13.489573486328124,0.03680463135242462,-0.004886921960860491,-0.014813481830060482
1701981433461567500,13.5065673828125,0.04077525436878204,-0.04077525436878204,0.01664607785642147
1701981433478557000,13.523556884765625,0.024129176512360573,-0.051312681287527084,0.027183502912521362
1701981433495552000,13.540552001953126,0.00809396430850029,-0.024434609338641167,0.01191187184303999
1701981433512544500,13.55754443359375,-0.001527163083665073,0.015271631069481373,-0.026419922709465027
1701981433529538600,13.57453857421875,0.00045814894838258624,0.0064140851609408855,-0.06352998316287994
1701981433546529800,13.59152978515625,0.013744467869400978,-0.04948008432984352,-0.05803219974040985
1701981433563520500,13.6085205078125,0.027488935738801956,-0.10644327104091644,-0.0007635815418325365
1701981433580516600,13.6255166015625,0.026114489883184433,-0.12095131725072861,0.07131851464509964
1701981433597501000,13.6425009765625,0.013133603148162365,-0.09728029370307922,0.08735372871160507
1701981433614505700,13.659505615234375,0.01114829070866108,-0.05864306539297104,0.035124752670526505
1701981433631494700,13.67649462890625,0.019394971430301666,0.0003054326225537807,-0.027641652151942253
1701981433648481800,13.693481689453124,0.026114489883184433,0.1160643994808197,-0.022602014243602753
1701981433665482200,13.710482177734375,0.026572637259960175,0.09941831976175308,0.012828170321881771
1701981433682470700,13.727470703125,0.013744467869400978,0.006872233934700489,0.01924225501716137
1701981433699467500,13.744467529296875,0.02229658141732216,-0.03176499158143997,-0.01725694350898266
1701981433716455400,13.761455322265626,0.015577063895761967,0.08521570265293121,-0.05314527451992035
1701981433733450000,13.778449951171876,0.01191187184303999,0.25274550914764404,-0.0012217304902151227
1701981433750445000,13.795445068359374,0.007635815534740686,0.13820825517177582,0.013591751456260681
1701981433767425800,13.81242578125,-0.021838432177901268,0.040622539818286896,-0.00045814894838258624
1701981433784428500,13.829428466796875,-0.04092797264456749,0.07910704612731934,-0.035582900047302246
1701981433801422800,13.8464228515625,-0.056352317333221436,0.22800545394420624,-0.03191770985722542
1701981433818412000,13.863412109375,-0.05161811411380768,0.21120665967464447,-0.020616702735424042
1701981433835407000,13.880406982421874,-0.04642575979232788,0.2093740701675415,-0.029932396486401558
1701981433852399900,13.89739990234375,-0.028405234217643738,0.28588494658470154,-0.07269296050071716
1701981433869393700,13.9143935546875,-0.003817907767370343,0.29626965522766113,-0.12797626852989197
1701981433886383400,13.93138330078125,0.0022907445672899485,0.2968805134296417,-0.16859880089759827
1701981433903377200,13.948377197265625,-0.008857546374201775,0.27458393573760986,-0.17699819803237915
1701981433920372500,13.96537255859375,0.0029016099870204926,0.2076941877603531,-0.16814066469669342
1701981433937360600,13.982360595703126,-0.0024434609804302454,0.20463985204696655,-0.12492194026708603
1701981433954356500,13.9993564453125,-0.012828170321881771,0.2064724564552307,-0.06169738993048668
1701981433971351600,14.0163515625,0.003817907767370343,0.13973543047904968,-0.032070424407720566
1701981433988331300,14.033331298828125,0.0064140851609408855,0.07620543986558914,-0.014049900695681572
1701981434005334800,14.050334716796876,0.0032070425804704428,0.0555887371301651,0.012064588256180286
1701981434022327800,14.067327880859375,0.005345070734620094,0.02428189292550087,0.009773843921720982
1701981434039310600,14.084310546875,0.0064140851609408855,0.038637228310108185,-0.013744467869400978
1701981434056308000,14.101307861328126,-0.020311269909143448,0.07024950534105301,-0.053297992795705795
1701981434073308000,14.118307861328125,-0.020922135561704636,0.14095716178417206,-0.0959058403968811
1701981434090292000,14.1352919921875,0.006872233934700489,0.2220495194196701,-0.06383541971445084
1701981434107287800,14.152287841796875,-0.024129176512360573,0.24587325751781464,0.026114489883184433
1701981434124284000,14.169283935546876,-0.09514226019382477,0.14676037430763245,0.13255776464939117
1701981434141277700,14.186277587890626,-0.047189339995384216,-0.164170041680336,0.14905111491680145
1701981434158267100,14.20326708984375,-0.026419922709465027,-0.17348572611808777,0.1238529309630394
1701981434175262500,14.220262451171875,-0.055894169956445694,-0.01710422709584236,0.05696318298578262
1701981434192243200,14.2372431640625,-0.096211276948452,0.08292495459318161,-0.07131851464509964
1701981434209250600,14.25425048828125,-0.1059851199388504,0.16142113506793976,-0.20494529604911804
1701981434226238700,14.27123876953125,-0.10186178237199783,0.2574796974658966,-0.22602014243602753
1701981434243238000,14.28823779296875,-0.1082758679986,0.22800545394420624,-0.16325373947620392
1701981434260217600,14.305217529296876,-0.11560624837875366,0.08368854224681854,-0.10461067408323288
1701981434277213200,14.322213134765626,-0.11682797968387604,-0.04153883829712868,-0.07116580009460449
1701981434294210800,14.3392109375,-0.12431107461452484,-0.11026117950677872,-0.04337143152952194
1701981434311206100,14.3562060546875,-0.11682797968387604,-0.01710422709584236,-0.013439035043120384
1701981434328199400,14.373199462890625,-0.060322944074869156,0.06643159687519073,0.02626720629632473
1701981434345191200,14.390191162109375,0.018936822190880775,0.10384709388017654,0.0910189226269722
1701981434362183700,14.40718359375,0.09193521738052368,0.09056077152490616,0.17821992933750153
1701981434379173600,14.424173583984375,0.12751811742782593,0.1137736514210701,0.2736676335334778
1701981434396168400,14.44116845703125,0.09376781433820724,0.07238753139972687,0.2889392673969269
1701981434413160400,14.458160400390625,0.05009094998240471,-0.019853120669722557,0.2733621895313263
1701981434430162000,14.475161865234375,0.004581489134579897,-0.1621847152709961,0.2542726695537567
1701981434447143400,14.492143310546876,-0.0019853119738399982,-0.19807305932044983,0.2828305959701538
1701981434464139300,14.50913916015625,0.00045814894838258624,-0.22311852872371674,0.36483925580978394
1701981434481132000,14.526132080078124,-0.013897184282541275,-0.2744311988353729,0.42699480056762695
1701981434498122800,14.543122802734375,-0.030543262138962746,-0.31154128909111023,0.40591996908187866
1701981434515117600,14.56011767578125,-0.05971207842230797,-0.2554943859577179,0.35674530267715454
1701981434532110000,14.577110107421875,-0.08781187981367111,-0.2093740701675415,0.270766019821167
1701981434549104400,14.5941044921875,-0.10751228034496307,-0.1385136991739273,0.16722436249256134
1701981434566094800,14.6110947265625,-0.1160643994808197,0.03481931984424591,0.046731192618608475
1701981434583087900,14.628087890625,-0.09834930300712585,0.20387627184391022,-0.05604688450694084
1701981434600083000,14.6450830078125,-0.09178250283002853,0.22815817594528198,-0.06704246252775192
1701981434617067800,14.66206787109375,-0.08857546001672745,0.1814269721508026,-0.0019853119738399982
1701981434634067500,14.6790673828125,-0.041233405470848083,0.11148291081190109,0.10094548016786575
1701981434651060500,14.696060546875,0.029932396486401558,0.10048733651638031,0.19547687470912933
1701981434668047400,14.71304736328125,0.0630718395113945,0.33505958318710327,0.15882496535778046
1701981434685048000,14.730048095703125,0.04077525436878204,0.6621779203414917,0.06627888232469559
1701981434702038300,14.747038330078125,0.062460970133543015,0.8938485980033875,-0.001679879380390048
1701981434719029200,14.764029296875,0.11942415684461594,1.0099129676818848,-0.10797043144702911
1701981434736020700,14.781020751953125,0.15729780495166779,0.9036223888397217,-0.18219055235385895
1701981434753018400,14.798018310546874,0.16081027686595917,0.5653557777404785,-0.13026700913906097
1701981434770011000,14.815010986328126,0.1598939746618271,0.26419922709465027,0.0010690141934901476
1701981434786991900,14.831991943359375,0.09972374886274338,-0.05513058975338936,0.11209376901388168
1701981434803994400,14.848994384765625,0.04230241850018501,-0.2574796974658966,0.09697485715150833
1701981434820989400,14.865989501953125,0.014966198243200779,-0.19822576642036438,0.04535674303770065
1701981434837981200,14.882981201171875,-0.036041051149368286,-0.05207626149058342,-0.04199698567390442
1701981434854968600,14.899968505859375,-0.05268712714314461,0.05192354694008827,-0.18188512325286865
1701981434871967500,14.916967529296874,-0.022143865004181862,0.23136521875858307,-0.32589662075042725
1701981434888951000,14.933950927734376,0.036193765699863434,0.43386703729629517,-0.3761402666568756
1701981434905951000,14.950950927734375,0.10567969083786011,0.5468770861625671,-0.26572638750076294
1701981434922945300,14.9679453125,0.1310305893421173,0.45631635189056396,0.005192354787141085
1701981434939927800,14.984927734375,0.10690141469240189,0.21303924918174744,0.26633724570274353
1701981434956926500,15.001926513671876,0.06658431142568588,-0.010537425056099892,0.337044894695282
1701981434973929700,15.0189296875,0.030085112899541855,-0.03940080851316452,0.2620611786842346
1701981434990914000,15.0359140625,-0.014049900695681572,-0.2932153046131134,0.03375030308961868
1701981435007906300,15.05290625,-0.023518312722444534,-0.23060162365436554,-0.11636982858181
1701981435024898000,15.06989794921875,-0.06490442901849747,-0.06123924255371094,-0.15485434234142303
1701981435041889300,15.08688916015625,-0.12507465481758118,-0.20082195103168488,-0.144622340798378
1701981435058887000,15.103886962890625,-0.19883663952350616,-0.5395467281341553,-0.10903944820165634
1701981435075882000,15.120882080078125,-0.2217440903186798,-0.7089090943336487,0.010690141469240189
1701981435092870400,15.137870361328124,-0.20693060755729675,-0.6869179606437683,0.16249015927314758
1701981435109868000,15.154867919921875,-0.17562375962734222,-0.5728389024734497,0.17409659922122955
1701981435126854000,15.17185400390625,-0.12950342893600464,-0.4466952085494995,0.08903361111879349
1701981435143850000,15.18885009765625,-0.1085812970995903,-0.38896843791007996,0.021074850112199783
1701981435160843800,15.20584375,-0.1736384481191635,-0.38347065448760986,0.04444044828414917
1701981435177833200,15.222833251953125,-0.2165517359972,-0.403323769569397,0.09972374886274338
1701981435194828300,15.239828369140625,-0.12538009881973267,-0.38957929611206055,0.043218716979026794
1701981435211821300,15.2568212890625,-0.05910121276974678,-0.1892155110836029,-0.047800205647945404
1701981435228811500,15.2738115234375,-0.058948494493961334,0.059406645596027374,-0.09407325088977814
1701981435245807600,15.2908076171875,-0.07864890247583389,0.1417207419872284,-0.11942415684461594
1701981435262798600,15.307798583984376,-0.07773260027170181,0.14278975129127502,-0.13377949595451355
1701981435279787500,15.32478759765625,-0.08536841720342636,0.06918048858642578,-0.13530665636062622
1701981435296781800,15.34178173828125,-0.09728029370307922,-0.004123340360820293,-0.09208793938159943
1701981435313778000,15.35877783203125,-0.08643743395805359,-0.0029016099870204926,-0.048258353024721146
1701981435330778600,15.375778564453125,-0.07712173461914062,0.04108068719506264,-0.019853120669722557
1701981435347761000,15.392760986328126,-0.07910704612731934,0.060322944074869156,-0.013286318629980087
1701981435364756000,15.409755859375,-0.09407325088977814,0.0009162978967651725,-0.023365596309304237
1701981435381749200,15.426749267578124,-0.11071932315826416,-0.09193521738052368,-0.041233405470848083
1701981435398739000,15.443739013671875,-0.1293507218360901,-0.15531249344348907,-0.04932736977934837
1701981435415735000,15.460735107421876,-0.166460782289505,-0.12782354652881622,-0.019853120669722557
1701981435432726500,15.4777265625,-0.1840231567621231,-0.06169738993048668,0.022907447069883347
1701981435449721900,15.494721923828125,-0.15256360173225403,0.01771509274840355,0.014049900695681572
1701981435466707000,15.51170703125,-0.1391245573759079,0.05513058975338936,-0.07177666574716568
1701981435483710200,15.528710205078125,-0.12507465481758118,0.04459316283464432,-0.17867808043956757
1701981435500697000,15.545697021484376,-0.10537425428628922,0.11804971098899841,-0.17348572611808777
1701981435517688800,15.562688720703125,-0.13698652386665344,0.17088955640792847,-0.09957103431224823
1701981435534682400,15.579682373046875,-0.12828169763088226,0.23075434565544128,-0.07696902006864548
1701981435551678000,15.596677978515626,-0.04199698567390442,0.3614795207977295,-0.13866640627384186
1701981435568666400,15.613666259765624,-0.034666601568460464,0.4567744731903076,-0.24205535650253296
1701981435585663000,15.6306630859375,-0.07849618047475815,0.43279802799224854,-0.29397889971733093
1701981435602654700,15.64765478515625,-0.07330382615327835,0.29794952273368835,-0.19853121042251587
1701981435619638300,15.66463818359375,-0.04260785132646561,0.1394299864768982,-0.014049900695681572
1701981435636637400,15.681637451171875,-0.0013744467869400978,0.028557950630784035,0.10384709388017654
1701981435653634000,15.698634033203126,0.0429132841527462,0,0.1592831164598465
1701981435670626600,15.71562646484375,0.056810468435287476,-0.013897184282541275,0.1915062516927719
1701981435687616500,15.732616455078125,0.015882495790719986,-0.09315694868564606,0.1365283876657486
1701981435704610800,15.74961083984375,0.02825251780450344,-0.06429356336593628,0.06948592513799667
1701981435721603300,15.766603271484374,0.05146539583802223,-0.013744467869400978,0.10690141469240189
1701981435738596000,15.78359619140625,0.05146539583802223,0.014355333521962166,0.15332718193531036
1701981435755584000,15.800583984375,0.06062837690114975,0.0933096632361412,0.1235474944114685
1701981435772580000,15.817580078125,0.06490442901849747,0.18387043476104736,0.08277224004268646
1701981435789578800,15.834578857421874,0.059864792972803116,0.2509129047393799,0.040164388716220856
1701981435806564900,15.85156494140625,0.078343465924263,0.29535335302352905,0.021991148591041565
1701981435823560700,15.868560791015625,0.06520986557006836,0.27748554944992065,0.0630718395113945
1701981435840554800,15.8855546875,0.03680463135242462,0.17287486791610718,0.10415252298116684
1701981435857544400,15.90254443359375,0.05467243865132332,0.13515393435955048,0.07651086896657944
1701981435874538200,15.919538330078124,0.08246681094169617,0.05772676691412926,0.013897184282541275
1701981435891533600,15.936533447265624,0.1082758679986,0.01618792861700058,0.0027488935738801956
1701981435908521700,15.953521728515625,0.08903361111879349,-0.02229658141732216,0.06933320313692093
1701981435925507000,15.970507080078125,0.028557950630784035,-0.19318613409996033,0.0455094613134861
1701981435942509000,15.987509033203125,0.017562376335263252,-0.18478673696517944,-0.03833179548382759
1701981435959492600,16.00449267578125,-0.004428773187100887,-0.10476338863372803,-0.08399397134780884
1701981435976489000,16.021489013671875,-0.051770828664302826,-0.06765332818031311,-0.07254024595022202
1701981435993489000,16.038489013671875,-0.0887281745672226,-0.14126259088516235,-0.06841690838336945
1701981436010469400,16.055469482421874,-0.10002918541431427,-0.17333301901817322,-0.07849618047475815
1701981436027471600,16.0724716796875,-0.10002918541431427,-0.16019940376281738,-0.09407325088977814
1701981436044466200,16.089466064453124,-0.0933096632361412,-0.25366178154945374,-0.027947084978222847
1701981436061461500,16.10646142578125,-0.07757988572120667,-0.27748554944992065,0.08796459436416626
1701981436078449200,16.12344921875,-0.07742717117071152,-0.09453139454126358,0.044745877385139465
1701981436095446000,16.140446044921877,-0.04505131021142006,0.09758572280406952,-0.02535090781748295
1701981436112437800,16.157437744140626,-0.006719517521560192,0.20754146575927734,-0.005803219974040985
1701981436129432300,16.174432373046876,0.03848451003432274,0.13240504264831543,0.010537425056099892
1701981436146420200,16.191420166015625,0.07712173461914062,0.05146539583802223,-0.03985895588994026
1701981436163406000,16.208406005859374,0.08994990587234497,0.047189339995384216,-0.10934487730264664
1701981436180409300,16.225409423828125,0.08521570265293121,0.1010981947183609,-0.07437284290790558
1701981436197400600,16.242400634765627,0.07620543986558914,0.10690141469240189,0.05925392732024193
1701981436214393900,16.259393798828125,0.06688974797725677,0.0607810914516449,0.14492778480052948
1701981436231389400,16.276389404296875,0.04963280260562897,-0.02779436856508255,0.20830504596233368
1701981436248377000,16.293377197265624,0.04260785132646561,-0.1111774742603302,0.12079860270023346
1701981436265367600,16.310367431640625,0.044287730008363724,-0.06841690838336945,0.09636399149894714
1701981436282365700,16.32736572265625,0.009162978269159794,-0.07009678333997726,0.053297992795705795
1701981436299359200,16.344359130859374,0.014355333521962166,-0.009621127508580685,-0.06734789162874222
1701981436316348400,16.361348388671875,0.03451388701796532,0.1014036312699318,-0.1823432743549347
1701981436333342500,16.378342529296877,0.044745877385139465,0.16019940376281738,-0.22632557153701782
1701981436350339300,16.39533935546875,0.032681290060281754,0.11026117950677872,-0.1670716404914856
1701981436367327200,16.4123271484375,0.014355333521962166,0.015118914656341076,-0.03130684420466423
1701981436384322000,16.429322021484374,-0.010079276748001575,-0.08979719132184982,0.11026117950677872
1701981436401317400,16.4463173828125,-0.03420845419168472,-0.17470745742321014,0.18646661937236786
1701981436418304800,16.4633046875,-0.050243668258190155,-0.3251330256462097,0.24327708780765533
1701981436435301600,16.480301513671876,-0.01725694350898266,-0.2041817009449005,0.21807889640331268
1701981436452292900,16.49729296875,0.005345070734620094,0.09300423413515091,0.0065668015740811825
1701981436469291500,16.51429150390625,0.039248090237379074,0.22250767052173615,-0.1215621829032898
1701981436486273300,16.531273193359375,0.06291911751031876,0.1849394589662552,-0.08857546001672745
1701981436503272000,16.54827197265625,0.06872233748435974,0.11774427443742752,-0.00427605677396059
1701981436520265700,16.565265625,0.07528914511203766,0.03588833287358284,0.04077525436878204
1701981436537255200,16.582255126953125,0.08933904021978378,-0.025045474991202354,0.09178250283002853
1701981436554249500,16.59924951171875,0.05497787147760391,-0.17531833052635193,0.25564709305763245
1701981436571234300,16.616234375,0.04337143152952194,-0.2906191349029541,0.16554448008537292
1701981436588233700,16.633233642578126,0.029168816283345222,-0.1134682223200798,0.06948592513799667
1701981436605241600,16.65024169921875,-0.008857546374201775,-0.014049900695681572,0.02733621932566166
1701981436622227200,16.667227294921876,-0.0377209298312664,-0.08659014850854874,0.04917465150356293
1701981436639211800,16.684211669921876,-0.06169738993048668,-0.19349156320095062,-0.0024434609804302454
1701981436656208600,16.701208740234375,-0.04917465150356293,-0.10323622822761536,-0.07101308554410934
1701981436673208600,16.71820849609375,-0.03649919852614403,0.005345070734620094,-0.07116580009460449
1701981436690198500,16.735198486328127,-0.01863138936460018,0.012980886735022068,-0.017562376335263252
1701981436707183600,16.75218359375,-0.012217304669320583,0.007177666760981083,0.038026362657547
1701981436724180500,16.769180419921874,-0.023976460099220276,-0.010537425056099892,0.08017606288194656
1701981436741170200,16.786170166015626,-0.04902193695306778,-0.06887505948543549,0.09911288321018219
1701981436758160400,16.803160400390624,-0.076052725315094,-0.1033889427781105,0.08964447677135468
1701981436775157200,16.8201572265625,-0.058795779943466187,-0.07116580009460449,0.021532999351620674
1701981436792149000,16.83714892578125,0.01160643994808197,0.031001411378383636,-0.07513642311096191
1701981436809127200,16.854127197265626,0.047800205647945404,0.14385876059532166,-0.09712757170200348
1701981436826129000,16.87112890625,0.027641652151942253,0.13775011897087097,-0.024892758578062057
1701981436843130400,16.88813037109375,-0.016340645030140877,0.01725694350898266,0.10980302840471268
1701981436860121300,16.905121337890623,-0.03573561832308769,-0.12064588814973831,0.2021963894367218
1701981436877111000,16.922111083984376,-0.04749477282166481,-0.2583959996700287,0.22372940182685852
1701981436894105000,16.93910498046875,-0.029168816283345222,-0.24159720540046692,0.17287486791610718
1701981436911100400,16.956100341796876,0.035582900047302246,-0.08689557760953903,0.013286318629980087
1701981436928088800,16.9730888671875,0.09957103431224823,0.18448130786418915,-0.1508837193250656
1701981436945078000,16.990078125,0.1036943718791008,0.3553708493709564,-0.2513710558414459
1701981436962077400,17.007077392578125,0.06536258012056351,0.35124751925468445,-0.15241087973117828
1701981436979071000,17.024071044921875,0.036041051149368286,0.2597704529762268,0.04795292019844055
1701981436996064800,17.041064697265625,0.039706241339445114,-0.02122756652534008,0.19807305932044983
1701981437013060900,17.058060791015624,0.07651086896657944,-0.17318029701709747,0.26145032048225403
1701981437030048300,17.07504833984375,0.12140946835279465,-0.09636399149894714,0.2076941877603531
1701981437047042000,17.0920419921875,0.128434419631958,0.0630718395113945,0.11133018881082535
1701981437064016400,17.109016357421876,0.08903361111879349,0.1921171247959137,0.021838432177901268
1701981437081027300,17.12602734375,0.03344487398862839,0.038026362657547,-0.08750644326210022
1701981437098019800,17.143019775390623,0.06780604273080826,-0.24816401302814484,-0.1267545372247696
1701981437115002600,17.160002685546875,0.021991148591041565,-0.3504839241504669,-0.08139779418706894
1701981437132005400,17.17700537109375,-0.05146539583802223,-0.15653422474861145,-0.003817907767370343
1701981437148999000,17.1939990234375,-0.10170906037092209,0.009773843921720982,-0.003054326167330146
1701981437165990700,17.21099072265625,-0.08460483700037003,0.10949759185314178,-0.08704829961061478
1701981437182974000,17.227973876953126,-0.06627888232469559,0.08933904021978378,-0.1189660057425499
1701981437199976400,17.2449765625,-0.052228979766368866,-0.01618792861700058,-0.04841107130050659
1701981437216967400,17.261967529296875,-0.018478672951459885,-0.0025961773935705423,0.07956519722938538
1701981437233964300,17.27896435546875,-0.0007635815418325365,0.021380282938480377,0.11698069423437119
1701981437250955300,17.295955322265623,0.012675453908741474,0.11621711403131485,0.15561792254447937
1701981437267947800,17.31294775390625,0.044745877385139465,-0.12370020896196365,0.07360926270484924
1701981437284924000,17.329923828125,0.021380282938480377,-0.3176499307155609,-0.04948008432984352
1701981437301931800,17.346931884765624,-0.013591751456260681,-0.3292563557624817,-0.10812314599752426
1701981437318927600,17.363927734375,-0.07559457421302795,-0.11133018881082535,-0.08338310569524765
1701981437335918600,17.380918701171876,-0.16019940376281738,-0.10262536257505417,-0.02977968007326126
1701981437352912400,17.397912353515625,-0.1837177276611328,-0.20173825323581696,-0.028557950630784035
1701981437369904000,17.414904052734375,-0.19043724238872528,-0.3090978264808655,-0.06383541971445084
1701981437386887400,17.431887451171875,-0.15760323405265808,-0.4205807149410248,-0.07330382615327835
1701981437403890000,17.448889892578126,-0.10064005106687546,-0.4607451260089874,0.11698069423437119
1701981437420883500,17.465883544921876,-0.06352998316287994,-0.1699732542037964,0.08139779418706894
1701981437437875200,17.482875244140626,-0.07712173461914062,0.25961771607398987,0.01924225501716137
1701981437454879200,17.499879150390626,-0.06490442901849747,0.26022860407829285,-0.05696318298578262
1701981437471861000,17.516861083984374,-0.03298672288656235,0.03940080851316452,-0.10842858254909515
1701981437488854800,17.533854736328124,-0.00045814894838258624,-0.07162395119667053,-0.16279558837413788
1701981437505836300,17.550836181640626,0.00733038317412138,-0.07360926270484924,-0.1736384481191635
1701981437522840000,17.567840087890627,0.015271631069481373,-0.04077525436878204,-0.13637566566467285
1701981437539832600,17.58483251953125,0.02321287989616394,0.08918632566928864,-0.10170906037092209
1701981437556825900,17.601825927734374,0.004886921960860491,0.08506298810243607,-0.11804971098899841
1701981437573808600,17.61880859375,0.027183502912521362,0.052839845418930054,-0.12522737681865692
1701981437590811100,17.63581103515625,0.02977968007326126,0.004123340360820293,-0.025045474991202354
1701981437607800800,17.65280078125,0.027641652151942253,0.004886921960860491,0.13607023656368256
1701981437624799500,17.669799560546874,0.07590000331401825,0.13988813757896423,0.1033889427781105
1701981437641788700,17.68678857421875,0.12034045159816742,0.10262536257505417,0.10216721147298813
1701981437658782500,17.703782470703125,0.09529497474431992,-0.08765916526317596,0.22479841113090515
1701981437675775000,17.72077490234375,0.1137736514210701,-0.22296582162380219,0.10735956579446793
1701981437692767700,17.737767822265624,0.08048149943351746,-0.07620543986558914,-0.06872233748435974
1701981437709760000,17.754760009765626,0.007788531947880983,0.23105977475643158,-0.06017022579908371
1701981437726753300,17.771753173828124,-0.04749477282166481,0.26251932978630066,0.08888089656829834
1701981437743745500,17.78874560546875,-0.02168571576476097,0.10308351367712021,0.13698652386665344
1701981437760739300,17.8057392578125,0.03985895588994026,0.16890424489974976,0.03940080851316452
1701981437777731000,17.82273095703125,0.09743300825357437,0.33918291330337524,-0.15561792254447937
1701981437794724600,17.839724609375,0.1385136991739273,0.5054910182952881,-0.2638937830924988
1701981437811716900,17.856716796875,0.16081027686595917,0.5529857873916626,-0.15561792254447937
1701981437828710400,17.87371044921875,0.1281289905309677,0.29917123913764954,0.06123924255371094
1701981437845702100,17.8907021484375,0.07666359096765518,0.08750644326210022,0.18325957655906677
1701981437862695700,17.90769580078125,0.032681290060281754,-0.005955935921519995,0.1371392458677292
1701981437879680500,17.924680419921874,0.006872233934700489,-0.014966198243200779,0.04612032696604729
1701981437896681700,17.941681640625,0.013744467869400978,-0.15012013912200928,-0.039706241339445114
1701981437913667000,17.9586669921875,0.016951510682702065,-0.11728613078594208,-0.06291911751031876
1701981437930658300,17.975658203125,-0.014202617108821869,0.03756821155548096,-0.05955936014652252
1701981437947659500,17.992659423828126,-0.03985895588994026,0.022602014243602753,-0.09453139454126358
1701981437964651300,18.0096513671875,-0.0555887371301651,-0.04856378585100174,-0.1722639948129654
1701981437981642000,18.02664208984375,-0.07681630551815033,-0.11774427443742752,-0.17638733983039856
1701981437998641000,18.043640869140624,-0.08277224004268646,-0.08109235763549805,-0.05161811411380768
1701981438015630300,18.06063037109375,-0.049785517156124115,-0.06230825558304787,0.04382958263158798
1701981438032624000,18.0776240234375,-0.01572977937757969,-0.09926560521125793,0.05726861581206322
1701981438049615600,18.09461572265625,-0.03191770985722542,-0.10659598559141159,0.055894169956445694
1701981438066609200,18.111609130859375,-0.05375614017248154,-0.08277224004268646,0.0685696229338646
1701981438083601700,18.1286015625,-0.05009094998240471,-0.08017606288194656,0.07910704612731934
1701981438100595000,18.145594970703126,-0.01863138936460018,-0.08246681094169617,0.0705549344420433
1701981438117586700,18.162586669921875,0.013591751456260681,-0.05849034711718559,0.01924225501716137
1701981438134580500,18.17958056640625,0.01725694350898266,-0.056810468435287476,-0.03451388701796532
1701981438151572700,18.19657275390625,0.032681290060281754,-0.01970040425658226,-0.03573561832308769
1701981438168566300,18.213566162109377,0.03039054572582245,-0.01160643994808197,0.011453723534941673
1701981438185547800,18.2305478515625,0.01160643994808197,-0.01664607785642147,0.04749477282166481
1701981438202551600,18.247551513671876,0.015577063895761967,0.02076941914856434,0.06627888232469559
1701981438219533300,18.264533203125,0.030695978552103043,0.04535674303770065,0.10461067408323288
1701981438236537300,18.281537353515624,0.05665775015950203,0.10125091671943665,0.11270463466644287
1701981438253529300,18.298529296875,0.06459899991750717,0.16890424489974976,0.04352414980530739
1701981438270523000,18.31552294921875,0.07849618047475815,0.23945917189121246,-0.005650503560900688
1701981438287515400,18.332515380859373,0.07727445662021637,0.24587325751781464,-0.0022907445672899485
1701981438304506400,18.34950634765625,0.08597928285598755,0.12263119965791702,0.019853120669722557
1701981438321503000,18.3665029296875,0.0633772686123848,0.025961773470044136,0.008246680721640587
1701981438338488600,18.383488525390625,0.01237002108246088,-0.006872233934700489,0.05192354694008827
1701981438355488800,18.40048876953125,-0.033597588539123535,-0.16233743727207184,0.1281289905309677
1701981438372477400,18.4174775390625,-0.07009678333997726,-0.2942843437194824,0.1547016203403473
1701981438389471700,18.4344716796875,-0.09239336848258972,-0.3680463135242462,0.09605856239795685
1701981438406465000,18.451465087890625,-0.10812314599752426,-0.38637226819992065,0.020616702735424042
1701981438423457300,18.468457275390627,-0.1440114825963974,-0.3168863356113434,-0.024129176512360573
1701981438440451000,18.485451171875,-0.12446379661560059,-0.25244006514549255,-0.09147707372903824
1701981438457442800,18.50244287109375,-0.034666601568460464,-0.1670716404914856,-0.15653422474861145
1701981438474436400,18.519436279296876,0.05268712714314461,-0.05803219974040985,-0.13500121235847473
1701981438491428600,18.5364287109375,0.03145955875515938,0.03756821155548096,-0.02977968007326126
1701981438508422100,18.553422119140624,0.022907447069883347,0.07849618047475815,0.04917465150356293
1701981438525414000,18.570413818359373,0.06185010448098183,0.026419922709465027,0.034666601568460464
1701981438542405400,18.5874052734375,0.08078692853450775,0.19028452038764954,0.04245513305068016
1701981438559402000,18.604402099609374,-0.00427605677396059,0.4017966091632843,0.16829337179660797
1701981438576386000,18.621385986328125,0.05054909735918045,0.18387043476104736,0.011759156361222267
1701981438593382400,18.63838232421875,0.08139779418706894,0.18310685455799103,-0.12736541032791138
1701981438610381600,18.655381591796875,0.10965031385421753,0.39125919342041016,-0.11194105446338654
1701981438627371000,18.67237109375,0.11316278576850891,0.5503895878791809,0.0032070425804704428
1701981438644361000,18.68936083984375,0.1362229436635971,0.5574145317077637,-0.01664607785642147
1701981438661359900,18.70635986328125,0.12140946835279465,0.5209153294563293,-0.07177666574716568
1701981438678349800,18.723349853515625,0.1010981947183609,0.3637702465057373,-0.04917465150356293
1701981438695342000,18.740342041015627,0.06979135423898697,0.18478673696517944,0.05100724846124649
1701981438712335600,18.757335693359376,0.056352317333221436,0.1371392458677292,0.13805554807186127
1701981438729327600,18.77432763671875,0.055741455405950546,0.020311269909143448,0.17119498550891876
1701981438746327800,18.791327880859374,0.058337632566690445,-0.030543262138962746,0.16203200817108154
1701981438763313700,18.808313720703126,0.051312681287527084,-0.11545353382825851,0.13316862285137177
1701981438780307000,18.825306884765624,-0.001679879380390048,-0.265573650598526,0.022449297830462456
1701981438797287000,18.842286865234374,-0.050854530185461044,-0.280539870262146,-0.06108652427792549
1701981438814290000,18.8592900390625,-0.09208793938159943,-0.2474004179239273,-0.03741549700498581
1701981438831287000,18.876287109375,-0.1368338167667389,-0.2503020465373993,-0.05513058975338936
1701981438848278300,18.8932783203125,-0.1007927656173706,-0.1817324161529541,-0.14034628868103027
1701981438865269800,18.910269775390624,-0.019394971430301666,0.004123340360820293,-0.23151792585849762
1701981438882261000,18.927260986328125,0.0656680166721344,0.1745547503232956,-0.2736676335334778
1701981438899258400,18.94425830078125,0.08292495459318161,0.20128010213375092,-0.16508632898330688
1701981438916249600,18.96124951171875,0.02382374368607998,0.05696318298578262,0.023976460099220276
1701981438933238500,18.978238525390626,-0.007177666760981083,-0.010537425056099892,0.15485434234142303
1701981438950237400,18.995237548828126,-0.027030786499381065,-0.027488935738801956,0.14355333149433136
1701981438967235600,19.012235595703125,-0.04444044828414917,0.062460970133543015,0.05314527451992035
1701981438984217900,19.0292177734375,-0.06062837690114975,0.022143865004181862,-0.08735372871160507
1701981439001214700,19.046214599609375,0.01725694350898266,-0.11209376901388168,-0.1696678251028061
1701981439018193400,19.063193359375,0.02428189292550087,-0.09666942805051804,-0.1036943718791008
1701981439035200500,19.080200439453126,0.007941247895359993,-0.15515977144241333,0.005497787147760391
1701981439052191700,19.097191650390624,-0.005192354787141085,-0.33948835730552673,0.057879481464624405
1701981439069183500,19.11418359375,-0.015577063895761967,-0.32360586524009705,0.08475755155086517
1701981439086177000,19.131177001953127,-0.026114489883184433,-0.21013765037059784,0.10751228034496307
1701981439103169300,19.148169189453125,-0.025656340643763542,-0.0907134860754013,0.12247848510742188
1701981439120162800,19.165162841796874,-0.016798794269561768,-0.007177666760981083,0.08994990587234497
1701981439137154600,19.182154541015624,-0.02687807008624077,-0.043218716979026794,0.02321287989616394
1701981439154146600,19.199146484375,-0.06612616032361984,-0.11942415684461594,0.022602014243602753
1701981439171140900,19.216140869140624,-0.06505715101957321,-0.04306599870324135,-0.005497787147760391
1701981439188124700,19.233124755859375,-0.013591751456260681,-0.0022907445672899485,-0.04214970022439957
1701981439205126000,19.2501259765625,0.001527163083665073,-0.025503624230623245,-0.007635815534740686
1701981439222119400,19.267119384765625,0.009162978269159794,-0.06520986557006836,0.019089538604021072
1701981439239111700,19.284111572265626,0.018478672951459885,-0.0754418596625328,0.015882495790719986
1701981439256105200,19.301105224609376,-0.020922135561704636,-0.058795779943466187,0.036193765699863434
1701981439273097000,19.318096923828126,-0.024434609338641167,0.01878410577774048,0.042760565876960754
1701981439290091000,19.335091064453124,0.004428773187100887,0.02977968007326126,-0.013591751456260681
1701981439307082000,19.35208203125,0.006261368747800589,0.062460970133543015,-0.07528914511203766
1701981439324075000,19.369074951171875,0.0003054326225537807,0.09865473955869675,-0.15760323405265808
1701981439341069800,19.38606982421875,-0.014049900695681572,0.09728029370307922,-0.1944078654050827
1701981439358061800,19.403061767578127,-0.03940080851316452,0.12751811742782593,-0.10674870014190674
1701981439375054300,19.420054443359376,-0.03787364438176155,0.09865473955869675,0.015882495790719986
1701981439392046000,19.437046142578126,-0.012675453908741474,-0.013897184282541275,0.08292495459318161
1701981439409041200,19.454041259765624,0.007635815534740686,-0.09178250283002853,0.07223481684923172
1701981439426033000,19.471032958984374,0.01237002108246088,-0.07024950534105301,0.028099801391363144
1701981439443021000,19.48802099609375,0.014966198243200779,0,-0.02779436856508255
1701981439460023300,19.505023193359374,0.030695978552103043,0.0806342139840126,-0.09086620807647705
1701981439477010700,19.5220107421875,0.04260785132646561,0.15577064454555511,-0.10445795953273773
1701981439494004200,19.539004150390625,0.038026362657547,0.2255619913339615,0.02687807008624077
1701981439510996500,19.55599658203125,-0.020005837082862854,0.04001167416572571,0.1609629988670349
1701981439527990300,19.572990234375,0.0013744467869400978,-0.1817324161529541,0.1472185254096985
1701981439544982000,19.58998193359375,0.008246680721640587,-0.17776179313659668,0.12553280591964722
1701981439561975600,19.6069755859375,0.01771509274840355,-0.09926560521125793,0.096211276948452
1701981439578967800,19.6239677734375,0.009162978269159794,-0.09025534242391586,0.017867809161543846
1701981439595961300,19.64096142578125,0.00931569468230009,-0.07620543986558914,-0.11881329119205475
1701981439612953300,19.657953369140625,0.00045814894838258624,-0.03649919852614403,-0.20173825323581696
1701981439629947000,19.67494677734375,-0.0064140851609408855,-0.06123924255371094,-0.17119498550891876
1701981439646926000,19.691926025390625,-0.0064140851609408855,-0.1362229436635971,-0.05803219974040985
1701981439663929900,19.708929931640625,-0.020616702735424042,-0.2093740701675415,0.04642575979232788
1701981439680927000,19.725927001953124,-0.039248090237379074,-0.2551889419555664,0.08017606288194656
1701981439697918000,19.74291796875,-0.03695734590291977,-0.24373523890972137,0.0679587572813034
1701981439714908700,19.75990869140625,-0.03145955875515938,-0.1927279829978943,0.04749477282166481
1701981439731905500,19.776905517578125,-0.036193765699863434,-0.12446379661560059,0.040164388716220856
1701981439748895500,19.7938955078125,-0.034666601568460464,-0.08796459436416626,0.0003054326225537807
1701981439765889300,19.81088916015625,-0.027488935738801956,-0.0074830991216003895,-0.08414668589830399
1701981439782871800,19.827871826171876,-0.02015855349600315,0.0809396430850029,-0.1540907621383667
1701981439799875000,19.844875,0.003512475173920393,0.1537853181362152,-0.17852537333965302
1701981439816866800,19.86186669921875,0.010690141469240189,0.19547687470912933,-0.15363261103630066
1701981439833860600,19.878860595703124,0.004123340360820293,0.13668109476566315,-0.10705413669347763
1701981439850852600,19.8958525390625,0.01572977937757969,0.06948592513799667,-0.09254608303308487
1701981439867846400,19.912846435546875,-0.004428773187100887,0.0884227454662323,-0.05360342562198639
1701981439884850700,19.9298505859375,-0.017409659922122955,0.21044307947158813,0.0039706239476799965
1701981439901830700,19.94683056640625,-0.028405234217643738,0.2344195395708084,0.015271631069481373
1701981439918825000,19.963824951171876,-0.03390302136540413,0.21380282938480377,-0.13897185027599335
1701981439935807200,19.98080712890625,0.020005837082862854,0.29367345571517944,-0.22968533635139465
1701981439952809200,19.997809326171875,0.03527746722102165,0.23915374279022217,-0.10674870014190674
1701981439969802800,20.014802734375,0.0503963828086853,0.09728029370307922,0.02626720629632473
1701981439986795300,20.031795166015623,0.11927144229412079,0.04703662544488907,0.034666601568460464
1701981440003788800,20.048788818359377,0.16050484776496887,0.027488935738801956,0.26572638750076294
1701981440020780500,20.065780517578126,0.09987647086381912,-0.3101668357849121,0.23915374279022217
1701981440037774000,20.082774169921876,0.14095716178417206,-0.21319197118282318,0.13271047174930573
1701981440054766300,20.099766357421874,0.10125091671943665,0.01542434748262167,0.0529925599694252
1701981440071763000,20.116762939453125,0.05864306539297104,0.1699732542037964,0.007635815534740686
1701981440088749000,20.1337490234375,0.03329215571284294,0.2076941877603531,-0.030543262138962746
1701981440105735000,20.15073486328125,0.01771509274840355,0.11392636597156525,-0.13087788224220276
1701981440122735000,20.167735107421876,0.03390302136540413,0.032528575509786606,-0.17302757501602173
1701981440139734000,20.184734130859376,0.022602014243602753,-0.015118914656341076,-0.06841690838336945
1701981440156715000,20.201715087890626,-0.010690141469240189,-0.07024950534105301,0.09743300825357437
1701981440173717200,20.21871728515625,-0.015577063895761967,-0.3738495409488678,0.30894508957862854
1701981440190709000,20.235708984375,-0.020463986322283745,-0.30695977807044983,0.4346306324005127
1701981440207702500,20.25270263671875,-0.039248090237379074,0.022907447069883347,0.2145664244890213
1701981440224694300,20.2696943359375,-0.028405234217643738,0.2382374405860901,-0.05009094998240471
1701981440241687800,20.286687744140625,-0.001832595793530345,0.17272214591503143,-0.14676037430763245
1701981440258680000,20.30368017578125,0.01924225501716137,0.04444044828414917,-0.08231408894062042
1701981440275658000,20.320657958984373,0.019089538604021072,0.012217304669320583,0.03390302136540413
1701981440292664300,20.337664306640626,0.013897184282541275,0.023060163483023643,0.09285151958465576
1701981440309660400,20.354660400390625,0.011759156361222267,0.05421429127454758,0.12202033400535583
1701981440326651400,20.3716513671875,0.01572977937757969,0.08429940044879913,0.14278975129127502
1701981440343645000,20.38864501953125,0.04108068719506264,0.05803219974040985,0.16814066469669342
1701981440360636700,20.40563671875,0.014508049935102463,-0.17104226350784302,0.16035212576389313
1701981440377630200,20.422630126953123,0.033597588539123535,-0.25854870676994324,0.04764748737215996
1701981440394622700,20.439622802734377,0.020922135561704636,-0.1742493063211441,-0.028557950630784035
1701981440411616000,20.456615966796875,-0.019394971430301666,-0.048258353024721146,0.029474247246980667
1701981440428608000,20.47360791015625,-0.03405573591589928,-0.039248090237379074,0.04856378585100174
1701981440445601500,20.4906015625,-0.018936822190880775,-0.06520986557006836,0.004734205547720194
1701981440462593800,20.50759375,-0.013744467869400978,-0.07376197725534439,-0.029474247246980667
1701981440479587300,20.52458740234375,-0.032681290060281754,-0.1508837193250656,-0.019394971430301666
1701981440496576500,20.541576416015626,-0.046273041516542435,-0.24113905429840088,0.013439035043120384
