time,seconds_elapsed,z,y,x
1700935775661502200,0.124502197265625,8.595242500305176,4.500556945800781,1.450138807296753
1700935775678509300,0.14150927734375,8.60494613647461,4.4800190925598145,1.4561704397201538
1700935775695500300,0.158500244140625,8.61780834197998,4.451437950134277,1.4677180051803589
1700935775712488200,0.17548828125,8.63048267364502,4.414429187774658,1.5045576095581055
1700935775729483000,0.19248291015625,8.637675285339355,4.381682395935059,1.5580518245697021
1700935775746476300,0.209476318359375,8.638360023498535,4.35966682434082,1.6149747371673584
1700935775763464700,0.226464599609375,8.62840747833252,4.3556742668151855,1.6777364015579224
1700935775780459300,0.243459228515625,8.59347152709961,4.387609481811523,1.7712233066558838
1700935775797442600,0.260442626953125,8.501450538635254,4.490571975708008,1.9483873844146729
1700935775814441000,0.27744091796875,8.313295364379883,4.693917274475098,2.256624698638916
1700935775831436300,0.294436279296875,8.013812065124512,4.9600629806518555,2.7226297855377197
1700935775848417500,0.31141748046875,7.6761322021484375,5.146631240844727,3.2901828289031982
1700935775865417000,0.3284169921875,7.467339038848877,5.097409248352051,3.8067538738250732
1700935775882413300,0.345413330078125,7.48648738861084,4.786712169647217,4.156442165374756
1700935775899404000,0.362404052734375,7.6330671310424805,4.34188985824585,4.372687339782715
1700935775916397800,0.379397705078125,7.695841312408447,3.9689252376556396,4.6106157302856445
1700935775933385500,0.396385498046875,7.517861366271973,3.7955970764160156,5.031035423278809
1700935775950370600,0.41337060546875,7.062929153442383,3.770094394683838,5.668997287750244
1700935775967373800,0.430373779296875,6.4360151290893555,3.711142063140869,6.406344413757324
1700935775984362200,0.4473623046875,5.840707302093506,3.4739911556243896,7.074860095977783
1700935776001354800,0.464354736328125,5.415923118591309,3.03641414642334,7.595003604888916
1700935776018351000,0.48135107421875,5.094481945037842,2.5240204334259033,7.994479656219482
1700935776035344100,0.49834423828125,4.702069282531738,2.0533158779144287,8.36125373840332
1700935776052328000,0.515327880859375,4.161980628967285,1.642246961593628,8.73023796081543
1700935776069327400,0.532327392578125,3.5301859378814697,1.2247563600540161,9.070494651794434
1700935776086318800,0.54931884765625,2.9694414138793945,0.7176980972290039,9.322200775146484
1700935776103307000,0.56630712890625,2.6015818119049072,0.10930873453617096,9.458115577697754
1700935776120310500,0.583310546875,2.3981051445007324,-0.5247934460639954,9.497882843017578
1700935776137295000,0.600295166015625,2.2526352405548096,-1.0911378860473633,9.485312461853027
1700935776154283000,0.617282958984375,2.0927255153656006,-1.5694383382797241,9.454812049865723
1700935776171278300,0.6342783203125,1.914339303970337,-2.0033187866210938,9.410533905029297
1700935776188269800,0.651269775390625,1.7403764724731445,-2.4365780353546143,9.34185791015625
1700935776205263400,0.668263427734375,1.5693272352218628,-2.877225399017334,9.246345520019531
1700935776222251500,0.68525146484375,1.394953966140747,-3.3171534538269043,9.126155853271484
1700935776239246000,0.70224609375,1.2240957021713257,-3.7391061782836914,8.986478805541992
1700935776256239600,0.719239501953125,1.0619786977767944,-4.126579284667969,8.83626937866211
1700935776273227800,0.736227783203125,0.920297384262085,-4.47289514541626,8.682302474975586
1700935776290222300,0.753222412109375,0.8099323511123657,-4.778385639190674,8.529194831848145
1700935776307206400,0.770206298828125,0.7254827618598938,-5.049220561981201,8.379447937011719
1700935776324201500,0.787201416015625,0.6668018698692322,-5.294950008392334,8.231343269348145
1700935776341204200,0.804204345703125,0.6399599313735962,-5.518842697143555,8.085105895996094
1700935776358181000,0.82118115234375,0.6475686430931091,-5.716914176940918,7.9456682205200195
1700935776375183000,0.83818310546875,0.6893774271011353,-5.88585090637207,7.817775726318359
1700935776392174800,0.8551748046875,0.7614618539810181,-6.029631614685059,7.7006402015686035
1700935776409169400,0.87216943359375,0.8535215854644775,-6.154379367828369,7.59152364730835
1700935776426161400,0.889161376953125,0.9513630867004395,-6.257776260375977,7.494748592376709
1700935776443151600,0.906151611328125,1.0456318855285645,-6.334639072418213,7.417216777801514
1700935776460143600,0.9231435546875,1.12727689743042,-6.388306617736816,7.359002113342285
1700935776477132800,0.9401328125,1.1924642324447632,-6.428402900695801,7.3136725425720215
1700935776494129700,0.957129638671875,1.242975115776062,-6.461649417877197,7.275864601135254
1700935776511115800,0.97411572265625,1.28254234790802,-6.492157936096191,7.241760730743408
1700935776528112000,0.991112060546875,1.3193053007125854,-6.518678188323975,7.211267948150635
1700935776545101300,1.008101318359375,1.3551703691482544,-6.535842418670654,7.189047813415527
1700935776562099000,1.025098876953125,1.3901262283325195,-6.533996105194092,7.1840500831604
1700935776579088400,1.04208837890625,1.4202864170074463,-6.506468296051025,7.203108310699463
1700935776596082200,1.059082275390625,1.4441567659378052,-6.455593585968018,7.244020462036133
1700935776613070000,1.076070068359375,1.4563958644866943,-6.390597820281982,7.298993110656738
1700935776630065000,1.09306494140625,1.4608169794082642,-6.316549777984619,7.362292289733887
1700935776647058400,1.110058349609375,1.4626792669296265,-6.231090068817139,7.43439245223999
1700935776664046600,1.127046630859375,1.4694424867630005,-6.134537220001221,7.512943744659424
1700935776681041700,1.144041748046875,1.4850618839263916,-6.02590799331665,7.597310543060303
1700935776698035500,1.161035400390625,1.5079960823059082,-5.905862331390381,7.686538219451904
1700935776715028200,1.1780283203125,1.533711314201355,-5.777023792266846,7.778808116912842
1700935776732013600,1.195013671875,1.5555799007415771,-5.642416954040527,7.8727006912231445
1700935776749009400,1.212009521484375,1.5673538446426392,-5.502083778381348,7.969103813171387
1700935776766003500,1.22900341796875,1.5726385116577148,-5.35731315612793,8.066109657287598
1700935776782991600,1.24599169921875,1.573867678642273,-5.213322639465332,8.159676551818848
1700935776799986000,1.26298583984375,1.5730448961257935,-5.078320026397705,8.244532585144043
1700935776816979500,1.2799794921875,1.5770779848098755,-4.962886333465576,8.313765525817871
1700935776833967600,1.296967529296875,1.5863165855407715,-4.86838960647583,8.367705345153809
1700935776850964200,1.313964111328125,1.5927047729492188,-4.789057731628418,8.412152290344238
1700935776867952000,1.3309521484375,1.5907845497131348,-4.7209320068359375,8.450935363769531
1700935776884972000,1.347971923828125,1.5820478200912476,-4.664268970489502,8.48397445678711
1700935776901935900,1.364935791015625,1.5716898441314697,-4.620625019073486,8.509742736816406
1700935776918932500,1.381932373046875,1.5611858367919922,-4.590017318725586,8.52822208404541
1700935776935916800,1.398916748046875,1.5514307022094727,-4.573031425476074,8.5391206741333
1700935776952912100,1.415912109375,1.5402590036392212,-4.566232204437256,8.544778823852539
1700935776969909200,1.4329091796875,1.5283482074737549,-4.5699005126953125,8.544957160949707
1700935776986899000,1.44989892578125,1.5150151252746582,-4.589075565338135,8.537050247192383
1700935777003890200,1.46689013671875,1.5079095363616943,-4.621708393096924,8.520689010620117
1700935777020881700,1.483881591796875,1.5101145505905151,-4.664453506469727,8.49697208404541
1700935777037873000,1.500872802734375,1.5146023035049438,-4.71168327331543,8.470072746276855
1700935777054868000,1.517867919921875,1.5105372667312622,-4.763007640838623,8.442045211791992
1700935777071862800,1.53486279296875,1.4974815845489502,-4.8201069831848145,8.411911010742188
1700935777088852500,1.5518525390625,1.4814199209213257,-4.883625507354736,8.37804889678955
1700935777105845500,1.568845458984375,1.4680736064910889,-4.949462413787842,8.341684341430664
1700935777122835000,1.5858349609375,1.4601281881332397,-5.014766693115234,8.303991317749023
1700935777139829200,1.602829345703125,1.4550507068634033,-5.080039024353027,8.265116691589355
1700935777156821000,1.619821044921875,1.4498423337936401,-5.146013259887695,8.225122451782227
1700935777173810000,1.636809814453125,1.4413563013076782,-5.210134983062744,8.18615436553955
1700935777190805500,1.653805419921875,1.426918625831604,-5.270214557647705,8.150145530700684
1700935777207786200,1.6707861328125,1.4062422513961792,-5.326131343841553,8.117321968078613
1700935777224787200,1.687787109375,1.3866558074951172,-5.378886699676514,8.085844993591309
1700935777241781800,1.70478173828125,1.3720945119857788,-5.426763534545898,8.056283950805664
1700935777258779600,1.721779541015625,1.3634549379348755,-5.4671711921691895,8.030389785766602
1700935777275766800,1.738766845703125,1.3564493656158447,-5.499863147735596,8.009223937988281
1700935777292755000,1.7557548828125,1.34676992893219,-5.523205757141113,7.994782447814941
1700935777309735000,1.77273486328125,1.3350207805633545,-5.539159297943115,7.985708713531494
1700935777326743300,1.789743408203125,1.3244327306747437,-5.550683498382568,7.979468822479248
1700935777343731200,1.806731201171875,1.3192344903945923,-5.556825160980225,7.976055145263672
1700935777360726800,1.823726806640625,1.3167003393173218,-5.55580997467041,7.97717809677124
1700935777377718000,1.840718017578125,1.3122687339782715,-5.548240661621094,7.983175754547119
1700935777394697000,1.857697021484375,1.3039203882217407,-5.535557746887207,7.993340969085693
1700935777411700700,1.87470068359375,1.2905384302139282,-5.516294479370117,8.008814811706543
1700935777428696800,1.89169677734375,1.2662506103515625,-5.488286972045898,8.031901359558105
1700935777445688000,1.90868798828125,1.219361424446106,-5.4510273933410645,8.064464569091797
1700935777462666200,1.925666259765625,1.1562424898147583,-5.4194183349609375,8.095005989074707
1700935777479670800,1.9426708984375,1.124951720237732,-5.398212432861328,8.113564491271973
1700935777496666400,1.959666259765625,1.1195207834243774,-5.376382827758789,8.128792762756348
1700935777513654000,1.976654052734375,1.139522671699524,-5.34983491897583,8.143516540527344
1700935777530642200,1.99364208984375,1.162480354309082,-5.319429874420166,8.160174369812012
1700935777547639800,2.010639892578125,1.1686862707138062,-5.287739276885986,8.17986011505127
1700935777564628700,2.027628662109375,1.1537840366363525,-5.256641387939453,8.201990127563477
1700935777581629200,2.044629150390625,1.129045009613037,-5.225740909576416,8.225144386291504
1700935777598614300,2.0616142578125,1.1115212440490723,-5.1935014724731445,8.247918128967285
1700935777615611100,2.078611083984375,1.1088671684265137,-5.156788349151611,8.271279335021973
1700935777632597200,2.09559716796875,1.1177257299423218,-5.118066310882568,8.294106483459473
1700935777649589800,2.11258984375,1.1325557231903076,-5.081003665924072,8.314854621887207
1700935777666587600,2.129587646484375,1.1483371257781982,-5.050331115722656,8.3313627243042
1700935777683573800,2.14657373046875,1.1615099906921387,-5.0265793800354,8.343890190124512
1700935777700568300,2.163568359375,1.1700273752212524,-5.006818771362305,8.354574203491211
1700935777717562000,2.18056201171875,1.175335168838501,-4.989057540893555,8.364449501037598
1700935777734550000,2.197550048828125,1.1832724809646606,-4.975972652435303,8.371121406555176
1700935777751545300,2.21454541015625,1.1965327262878418,-4.970691204071045,8.372373580932617
1700935777768536800,2.231536865234375,1.2104569673538208,-4.969281196594238,8.371209144592285
1700935777785530600,2.248530517578125,1.2196260690689087,-4.968523025512695,8.370328903198242
1700935777802518800,2.265518798828125,1.2254045009613037,-4.970394134521484,8.368374824523926
1700935777819513000,2.28251318359375,1.2336034774780273,-4.976733207702637,8.363401412963867
1700935777836507100,2.299507080078125,1.2449547052383423,-4.9875335693359375,8.355279922485352
1700935777853495000,2.3164951171875,1.25773286819458,-5.003169059753418,8.344011306762695
1700935777870489600,2.333489501953125,1.2700161933898926,-5.0239949226379395,8.329626083374023
1700935777887483400,2.3504833984375,1.2777938842773438,-5.047604560852051,8.314146995544434
1700935777904471600,2.367471435546875,1.2798184156417847,-5.071076393127441,8.299539566040039
1700935777921466600,2.384466552734375,1.279222011566162,-5.093499660491943,8.285889625549316
1700935777938462500,2.40146240234375,1.2778078317642212,-5.115311622619629,8.272660255432129
1700935777955453400,2.418453369140625,1.2772752046585083,-5.13671875,8.259467124938965
1700935777972439800,2.435439697265625,1.2784935235977173,-5.157705307006836,8.24618911743164
1700935777989434400,2.452434326171875,1.2799865007400513,-5.179882049560547,8.23204517364502
1700935778006428400,2.469428466796875,1.2794392108917236,-5.205140590667725,8.21618366241455
1700935778023416000,2.486416015625,1.2753803730010986,-5.233396053314209,8.198847770690918
1700935778040400400,2.503400390625,1.2673293352127075,-5.264770984649658,8.179986953735352
1700935778057404400,2.520404296875,1.2579922676086426,-5.296636581420898,8.160833358764648
1700935778074392600,2.537392578125,1.2491302490234375,-5.327971458435059,8.141775131225586
1700935778091385600,2.554385498046875,1.2415937185287476,-5.356103420257568,8.1244535446167
1700935778108382000,2.5713818359375,1.2348849773406982,-5.379117012023926,8.110257148742676
1700935778125373200,2.588373291015625,1.227519154548645,-5.396622657775879,8.099739074707031
1700935778142361000,2.605361083984375,1.2238740921020508,-5.411774158477783,8.09017562866211
1700935778159355600,2.622355712890625,1.2218623161315918,-5.427229881286621,8.080121040344238
1700935778176349400,2.639349365234375,1.2182446718215942,-5.439194679260254,8.072617530822754
1700935778193337600,2.656337646484375,1.2139554023742676,-5.446034908294678,8.06865119934082
1700935778210330400,2.673330322265625,1.2086431980133057,-5.447988986968994,8.068129539489746
1700935778227327500,2.690327392578125,1.2022217512130737,-5.447073459625244,8.069707870483398
1700935778244314000,2.707314208984375,1.1982663869857788,-5.446254253387451,8.070847511291504
1700935778261299200,2.72429931640625,1.198118805885315,-5.446254253387451,8.070869445800781
1700935778278300200,2.741300048828125,1.1993236541748047,-5.444057941436768,8.072173118591309
1700935778295285500,2.758285400390625,1.200090765953064,-5.437897205352783,8.07620906829834
1700935778312282600,2.77528271484375,1.1989307403564453,-5.427814483642578,8.083163261413574
1700935778329278000,2.79227783203125,1.1961313486099243,-5.413702011108398,8.093035697937012
1700935778346279000,2.80927880859375,1.193010687828064,-5.394789695739746,8.10611343383789
1700935778363259000,2.8262587890625,1.1885547637939453,-5.373353004455566,8.120993614196777
1700935778380253400,2.84325341796875,1.1843628883361816,-5.354349613189697,8.134146690368652
1700935778397243000,2.860242919921875,1.1785317659378052,-5.341885089874268,8.143183708190918
1700935778414239700,2.87723974609375,1.1717888116836548,-5.334654331207275,8.148894309997559
1700935778431230500,2.89423046875,1.166292667388916,-5.325647830963135,8.155570983886719
1700935778448216000,2.911216064453125,1.1599961519241333,-5.311800003051758,8.165495872497559
1700935778465216300,2.92821630859375,1.1522877216339111,-5.293999671936035,8.178136825561523
1700935778482204000,2.945203857421875,1.1451164484024048,-5.271787643432617,8.193477630615234
1700935778499204400,2.962204345703125,1.1409008502960205,-5.245851516723633,8.210695266723633
1700935778516185000,2.97918505859375,1.140051245689392,-5.218493461608887,8.228227615356445
1700935778533179100,2.99617919921875,1.1429170370101929,-5.191300392150879,8.245014190673828
1700935778550179300,3.013179443359375,1.1464072465896606,-5.1671905517578125,8.259661674499512
1700935778567171000,3.030171142578125,1.1469428539276123,-5.149562358856201,8.270588874816895
1700935778584156700,3.04715673828125,1.1436026096343994,-5.141210556030273,8.276246070861816
1700935778601152000,3.064152099609375,1.1401886940002441,-5.139852523803711,8.27756118774414
1700935778618144800,3.081144775390625,1.1394168138504028,-5.1415228843688965,8.276627540588379
1700935778635137300,3.09813720703125,1.1414157152175903,-5.143798828125,8.27493953704834
1700935778652126000,3.1151259765625,1.1463195085525513,-5.145938396453857,8.272931098937988
1700935778669119000,3.132118896484375,1.1519842147827148,-5.146982669830322,8.27149486541748
1700935778686113500,3.149113525390625,1.1563571691513062,-5.146029472351074,8.271477699279785
1700935778703104800,3.166104736328125,1.1590006351470947,-5.144484043121338,8.27206802368164
1700935778720097000,3.183096923828125,1.1623586416244507,-5.144688606262207,8.271470069885254
1700935778737089300,3.20008935546875,1.1676452159881592,-5.147863388061523,8.26875114440918
1700935778754081300,3.217081298828125,1.1709446907043457,-5.153278350830078,8.264909744262695
1700935778771073500,3.234073486328125,1.1709082126617432,-5.16139030456543,8.25985050201416
1700935778788065800,3.251065673828125,1.1691888570785522,-5.1716203689575195,8.253693580627441
1700935778805069600,3.268069580078125,1.1671674251556396,-5.182238578796387,8.247316360473633
1700935778822032600,3.28503271484375,1.167356252670288,-5.193210601806641,8.240385055541992
1700935778839042000,3.3020419921875,1.1695501804351807,-5.206069469451904,8.231956481933594
1700935778856034000,3.319033935546875,1.1715160608291626,-5.220106601715088,8.222783088684082
1700935778873012200,3.33601220703125,1.1716455221176147,-5.2325520515441895,8.214850425720215
1700935778890015700,3.353015625,1.1713385581970215,-5.243678092956543,8.207796096801758
1700935778907013000,3.37001318359375,1.1705394983291626,-5.252614498138428,8.202194213867188
1700935778924002800,3.3870029296875,1.1688557863235474,-5.259404182434082,8.19808292388916
1700935778940991000,3.403990966796875,1.1671555042266846,-5.2658305168151855,8.194198608398438
1700935778957991000,3.420990966796875,1.1683543920516968,-5.273999214172363,8.188773155212402
1700935778974979000,3.43797900390625,1.1709420680999756,-5.283710479736328,8.182140350341797
1700935778991971000,3.45497119140625,1.1701503992080688,-5.292874813079834,8.176328659057617
1700935779008963300,3.47196337890625,1.164832592010498,-5.299327850341797,8.172907829284668
1700935779025953000,3.488953125,1.1586962938308716,-5.302789211273193,8.171533584594727
1700935779042950100,3.5059501953125,1.1550301313400269,-5.304616451263428,8.170866012573242
1700935779059939600,3.522939697265625,1.1554049253463745,-5.306412696838379,8.169647216796875
1700935779076933000,3.53993310546875,1.1574718952178955,-5.308365821838379,8.168086051940918
1700935779093922600,3.556922607421875,1.1561760902404785,-5.309784889221191,8.167346000671387
1700935779110924300,3.57392431640625,1.1511305570602417,-5.309792518615723,8.168055534362793
1700935779127908600,3.59090869140625,1.1450824737548828,-5.307565689086914,8.1703519821167
1700935779144912400,3.607912353515625,1.1393697261810303,-5.303581714630127,8.173737525939941
1700935779161892600,3.624892578125,1.1351244449615479,-5.296397686004639,8.178984642028809
1700935779178884900,3.641884765625,1.1327638626098633,-5.286606311798096,8.18564224243164
1700935779195876900,3.658876953125,1.1311640739440918,-5.276683330535889,8.192266464233398
1700935779212868900,3.675868896484375,1.1314035654067993,-5.267600059509277,8.198075294494629
1700935779229861000,3.692861083984375,1.1335631608963013,-5.259576320648193,8.20292854309082
1700935779246860000,3.709860107421875,1.135101556777954,-5.25255012512207,8.20721435546875
1700935779263845600,3.726845703125,1.1343908309936523,-5.245014667510986,8.21213150024414
1700935779280837600,3.743837646484375,1.1327279806137085,-5.23695707321167,8.217501640319824
1700935779297829600,3.76082958984375,1.1340546607971191,-5.230428218841553,8.221476554870605
1700935779314822000,3.77782177734375,1.138076901435852,-5.225093364715576,8.224311828613281
1700935779331814000,3.79481396484375,1.1427868604660034,-5.220175743103027,8.226780891418457
1700935779348806400,3.811806396484375,1.1443864107131958,-5.214834690093994,8.229944229125977
1700935779365798100,3.828798095703125,1.1421571969985962,-5.208950996398926,8.233980178833008
1700935779382790700,3.845790771484375,1.137915849685669,-5.202365875244141,8.238728523254395
1700935779399772200,3.862772216796875,1.1352410316467285,-5.195380687713623,8.24350643157959
1700935779416774700,3.879774658203125,1.1372978687286377,-5.190091133117676,8.246553421020508
1700935779433767000,3.896766845703125,1.1405763626098633,-5.187494277954102,8.247734069824219
1700935779450759200,3.91375927734375,1.141985297203064,-5.186961650848389,8.247872352600098
1700935779467751200,3.930751220703125,1.1416302919387817,-5.188531875610352,8.246933937072754
1700935779484742000,3.947741943359375,1.1398591995239258,-5.1897053718566895,8.246439933776855
1700935779501728000,3.96472802734375,1.136078119277954,-5.189321041107178,8.247204780578613
1700935779518728000,3.98172802734375,1.1324411630630493,-5.187288761138916,8.248982429504395
1700935779535719700,3.9987197265625,1.1307638883590698,-5.185460090637207,8.250364303588867
1700935779552712000,4.0157119140625,1.1290979385375977,-5.186161994934082,8.250150680541992
1700935779569694000,4.03269384765625,1.1259468793869019,-5.188395023345947,8.249176979064941
1700935779586694000,4.04969384765625,1.122511625289917,-5.191432952880859,8.247733116149902
1700935779603690800,4.066690673828125,1.119228482246399,-5.193765163421631,8.246712684631348
1700935779620680400,4.083680419921875,1.1154134273529053,-5.194163799285889,8.246977806091309
1700935779637672700,4.100672607421875,1.1099138259887695,-5.192656993865967,8.248668670654297
1700935779654664700,4.117664794921875,1.1031523942947388,-5.193060874938965,8.249320983886719
1700935779671657000,4.134656982421875,1.0954688787460327,-5.197283744812012,8.247686386108398
1700935779688649200,4.151649169921875,1.0882642269134521,-5.203719139099121,8.244582176208496
1700935779705641200,4.16864111328125,1.0829280614852905,-5.20953893661499,8.241607666015625
1700935779722633000,4.185633056640625,1.077723503112793,-5.212027549743652,8.240715026855469
1700935779739624000,4.2026240234375,1.0717461109161377,-5.210052490234375,8.242745399475098
1700935779756619000,4.219618896484375,1.0644245147705078,-5.205321311950684,8.246682167053223
1700935779773610000,4.23660986328125,1.0558110475540161,-5.2018866539001465,8.249954223632812
1700935779790602000,4.25360205078125,1.04531729221344,-5.201541900634766,8.251509666442871
1700935779807583200,4.270583251953125,1.0355215072631836,-5.204733371734619,8.250731468200684
1700935779824586200,4.287586181640625,1.0263395309448242,-5.2099151611328125,8.248608589172363
1700935779841578200,4.304578125,1.019089937210083,-5.215138912200928,8.246204376220703
1700935779858568000,4.32156787109375,1.0121524333953857,-5.21892786026001,8.24466323852539
1700935779875565000,4.33856494140625,1.0059412717819214,-5.221096038818359,8.244050979614258
1700935779892555000,4.355554931640625,1.0012109279632568,-5.219998359680176,8.245321273803711
1700935779909546800,4.372546630859375,0.9993798136711121,-5.216006755828857,8.248067855834961
1700935779926536700,4.38953662109375,1.000305414199829,-5.210626125335693,8.251357078552246
1700935779943533800,4.406533935546875,1.003239631652832,-5.2059454917907715,8.253952980041504
1700935779960523300,4.423523193359375,1.008345603942871,-5.2045578956604,8.254206657409668
1700935779977513000,4.440512939453125,1.0152465105056763,-5.208005428314209,8.251187324523926
1700935779994510300,4.45751025390625,1.0229002237319946,-5.215297222137451,8.245633125305176
1700935780011499800,4.474499755859375,1.0340360403060913,-5.223695278167725,8.238924980163574
1700935780028492000,4.491491943359375,1.0489057302474976,-5.2298736572265625,8.233124732971191
1700935780045484000,4.508484130859375,1.0656358003616333,-5.2313232421875,8.23005485534668
1700935780062476300,4.525476318359375,1.0845834016799927,-5.229896068572998,8.228487968444824
1700935780079468500,4.542468505859375,1.105272650718689,-5.228387355804443,8.226691246032715
1700935780096460500,4.55946044921875,1.125115156173706,-5.2267632484436035,8.225032806396484
1700935780113452500,4.57645263671875,1.1392356157302856,-5.224267959594727,8.224675178527832
1700935780130444500,4.593444580078125,1.1463724374771118,-5.219811916351318,8.226512908935547
1700935780147436800,4.610436767578125,1.1505411863327026,-5.214466571807861,8.229320526123047
1700935780164428000,4.627427978515625,1.1540132761001587,-5.211224555969238,8.230886459350586
1700935780181422000,4.644422119140625,1.1560804843902588,-5.20851993560791,8.23231029510498
1700935780198413600,4.66141357421875,1.1570465564727783,-5.201921463012695,8.236345291137695
1700935780215405600,4.678405517578125,1.1600847244262695,-5.1910858154296875,8.242751121520996
1700935780232387000,4.695386962890625,1.164915919303894,-5.178426742553711,8.250029563903809
1700935780249389600,4.7123896484375,1.1658600568771362,-5.167702674865723,8.256617546081543
1700935780266382000,4.729382080078125,1.1595873832702637,-5.162703514099121,8.260626792907715
1700935780283374300,4.746374267578125,1.1461697816848755,-5.1630682945251465,8.262271881103516
1700935780300366300,4.763366455078125,1.1295719146728516,-5.164414405822754,8.263716697692871
1700935780317358300,4.7803583984375,1.1154870986938477,-5.163916110992432,8.265941619873047
1700935780334350600,4.7973505859375,1.1067893505096436,-5.1603569984436035,8.269332885742188
1700935780351340300,4.81434033203125,1.1050530672073364,-5.152894496917725,8.274214744567871
1700935780368337400,4.83133740234375,1.1088868379592896,-5.142773628234863,8.279998779296875
1700935780385326800,4.848326904296875,1.1158645153045654,-5.132920742034912,8.285174369812012
1700935780402319000,4.865319091796875,1.1226152181625366,-5.126070976257324,8.28849983215332
1700935780419300900,4.88230078125,1.1291182041168213,-5.124442100524902,8.28862476348877
1700935780436301000,4.899301025390625,1.1366143226623535,-5.12877893447876,8.284916877746582
1700935780453298200,4.916298095703125,1.1450474262237549,-5.136110305786133,8.27921199798584
1700935780470285000,4.93328515625,1.1564558744430542,-5.144262313842773,8.272562026977539
1700935780487285800,4.95028564453125,1.1683897972106934,-5.152596473693848,8.265695571899414
1700935780504258300,4.96725830078125,1.180625081062317,-5.160644054412842,8.25893497467041
1700935780521264000,4.98426416015625,1.1925855875015259,-5.168330669403076,8.25240707397461
1700935780538256400,5.00125634765625,1.204298734664917,-5.176034450531006,8.245874404907227
1700935780555248600,5.01824853515625,1.2141387462615967,-5.1828083992004395,8.24017333984375
1700935780572240600,5.03524072265625,1.224012017250061,-5.188796043395996,8.234944343566895
1700935780589232600,5.052232666015625,1.2357473373413086,-5.195800304412842,8.22877311706543
1700935780606225000,5.069224853515625,1.2473266124725342,-5.204436779022217,8.221565246582031
1700935780623217000,5.086216796875,1.2546128034591675,-5.214976787567139,8.213774681091309
1700935780640209400,5.10320947265625,1.2590663433074951,-5.226138591766357,8.205994606018066
1700935780657201400,5.120201416015625,1.261940836906433,-5.235639572143555,8.199493408203125
1700935780674193700,5.137193603515625,1.263205647468567,-5.241731643676758,8.195405960083008
1700935780691190500,5.1541904296875,1.2643098831176758,-5.244410991668701,8.193521499633789
1700935780708175400,5.17117529296875,1.2674601078033447,-5.245833396911621,8.192124366760254
1700935780725172700,5.1881728515625,1.2724593877792358,-5.247363090515137,8.19036865234375
1700935780742162200,5.205162109375,1.2751438617706299,-5.248354434967041,8.189315795898438
1700935780759154400,5.222154541015625,1.2752938270568848,-5.247942924499512,8.189557075500488
1700935780776146400,5.239146484375,1.2743942737579346,-5.246689796447754,8.190498352050781
1700935780793138700,5.256138671875,1.2738466262817383,-5.243963718414307,8.192329406738281
1700935780810130000,5.2731298828125,1.2748874425888062,-5.239912986755371,8.194761276245117
1700935780827124000,5.2901240234375,1.2774988412857056,-5.234869956970215,8.197575569152832
1700935780844115200,5.307115234375,1.280521035194397,-5.2309160232543945,8.199628829956055
1700935780861107200,5.324107177734375,1.2839539051055908,-5.228483200073242,8.200643539428711
1700935780878099200,5.34109912109375,1.2868058681488037,-5.228078365325928,8.200454711914062
1700935780895091500,5.358091552734375,1.2899774312973022,-5.22819709777832,8.199880599975586
1700935780912083700,5.375083740234375,1.2931606769561768,-5.226970195770264,8.20016098022461
1700935780929076700,5.39207666015625,1.2970432043075562,-5.2243146896362305,8.201238632202148
1700935780946068200,5.409068115234375,1.3015507459640503,-5.221452713012695,8.202346801757812
1700935780963060200,5.426060302734375,1.3081022500991821,-5.218282222747803,8.203324317932129
1700935780980052500,5.443052490234375,1.3165518045425415,-5.214885711669922,8.204131126403809
1700935780997044500,5.46004443359375,1.3256957530975342,-5.211377143859863,8.204889297485352
1700935781014036500,5.477036376953125,1.3330804109573364,-5.20684814453125,8.206567764282227
1700935781031018200,5.494018310546875,1.3390969038009644,-5.201996803283691,8.208662986755371
1700935781048023300,5.511023193359375,1.3442091941833496,-5.197417736053467,8.210728645324707
1700935781065010700,5.5280107421875,1.3504676818847656,-5.195715427398682,8.21077823638916
1700935781082005500,5.545005615234375,1.3591827154159546,-5.198268413543701,8.207724571228027
1700935781098997500,5.56199755859375,1.3663058280944824,-5.2043681144714355,8.202675819396973
1700935781115979300,5.578979248046875,1.3689279556274414,-5.213068962097168,8.196710586547852
1700935781132979200,5.595979248046875,1.3690569400787354,-5.222796440124512,8.190492630004883
1700935781149976300,5.612976318359375,1.3705798387527466,-5.2306742668151855,8.185212135314941
1700935781166966000,5.629966064453125,1.3744202852249146,-5.234260559082031,8.18227481842041
1700935781183958300,5.646958251953125,1.3796055316925049,-5.232435703277588,8.182567596435547
1700935781200950300,5.6639501953125,1.3850916624069214,-5.228626251220703,8.184076309204102
1700935781217942300,5.6809423828125,1.3895093202590942,-5.225533485412598,8.185302734375
1700935781234934800,5.697934814453125,1.3917276859283447,-5.224719047546387,8.185446739196777
1700935781251926800,5.7149267578125,1.3909225463867188,-5.2267584800720215,8.184280395507812
1700935781268900000,5.731900146484375,1.3889026641845703,-5.2308855056762695,8.181986808776855
1700935781285910800,5.748910888671875,1.3878244161605835,-5.235032081604004,8.17951774597168
1700935781302903800,5.76590380859375,1.3889459371566772,-5.2385993003845215,8.177042961120605
1700935781319892200,5.782892333984375,1.3908573389053345,-5.240189552307129,8.175699234008789
1700935781336887600,5.799887451171875,1.3910555839538574,-5.241292953491211,8.174958229064941
1700935781353879800,5.8168798828125,1.38961660861969,-5.243988990783691,8.17347240447998
1700935781370872000,5.8338720703125,1.389515995979309,-5.248965740203857,8.170294761657715
1700935781387864000,5.850864013671875,1.388989806175232,-5.256473064422607,8.165555953979492
1700935781404856300,5.867856201171875,1.389660120010376,-5.266176700592041,8.159187316894531
1700935781421848600,5.8848486328125,1.3909012079238892,-5.2759528160095215,8.152658462524414
1700935781438840600,5.901840576171875,1.3903082609176636,-5.2843523025512695,8.147316932678223
1700935781455832600,5.91883251953125,1.3873785734176636,-5.291278839111328,8.143320083618164
1700935781472809700,5.935809814453125,1.384972095489502,-5.296767234802246,8.14016056060791
1700935781489814800,5.952814697265625,1.3850992918014526,-5.300015926361084,8.138023376464844
1700935781506808800,5.969808837890625,1.3861453533172607,-5.301112174987793,8.13713264465332
1700935781523804000,5.986803955078125,1.3864655494689941,-5.30070161819458,8.137346267700195
1700935781540793300,6.00379345703125,1.3855925798416138,-5.299605369567871,8.13820743560791
1700935781557785600,6.02078564453125,1.3849762678146362,-5.29728364944458,8.139824867248535
1700935781574777900,6.03777783203125,1.3864994049072266,-5.294069290161133,8.141655921936035
1700935781591770000,6.05477001953125,1.3906711339950562,-5.292665004730225,8.141858100891113
1700935781608762000,6.07176220703125,1.3946037292480469,-5.294552326202393,8.139957427978516
1700935781625754400,6.08875439453125,1.395310878753662,-5.298055171966553,8.137557983398438
1700935781642744000,6.105744140625,1.394497275352478,-5.300727367401123,8.135956764221191
1700935781659741200,6.1227412109375,1.3941301107406616,-5.299799919128418,8.13662338256836
1700935781676730600,6.139730712890625,1.3947770595550537,-5.294474124908447,8.139978408813477
1700935781693713200,6.156713134765625,1.3943352699279785,-5.285325527191162,8.145998001098633
1700935781710720000,6.173719970703125,1.3952919244766235,-5.2748260498046875,8.152637481689453
1700935781727705000,6.190705078125,1.3980070352554321,-5.265254020690918,8.158357620239258
1700935781744702200,6.2077021484375,1.4015926122665405,-5.258316516876221,8.162214279174805
1700935781761691600,6.224691650390625,1.4034333229064941,-5.255147933959961,8.163939476013184
1700935781778683600,6.24168359375,1.4033204317092896,-5.253652095794678,8.164921760559082
1700935781795674600,6.258674560546875,1.4018899202346802,-5.252986907958984,8.165595054626465
1700935781812669200,6.275669189453125,1.4007374048233032,-5.251852512359619,8.166522979736328
1700935781829660400,6.292660400390625,1.4008523225784302,-5.2507219314575195,8.167229652404785
1700935781846649300,6.3096494140625,1.4017246961593628,-5.250077247619629,8.167495727539062
1700935781863642000,6.32664208984375,1.4016469717025757,-5.248847007751465,8.168299674987793
1700935781880637000,6.343636962890625,1.4004733562469482,-5.248198509216309,8.168917655944824
1700935781897629000,6.36062890625,1.3983511924743652,-5.249271869659424,8.16858959197998
1700935781914621200,6.37762109375,1.396349310874939,-5.252111434936523,8.167108535766602
1700935781931613400,6.394613525390625,1.3948001861572266,-5.256474018096924,8.164565086364746
1700935781948608500,6.4116083984375,1.3940116167068481,-5.261343479156494,8.161563873291016
1700935781965594400,6.428594482421875,1.3930939435958862,-5.264646530151367,8.159589767456055
1700935781982578000,6.445577880859375,1.3920239210128784,-5.267005443572998,8.158249855041504
1700935781999570200,6.462570068359375,1.3918488025665283,-5.269036293029785,8.15696907043457
1700935782016576500,6.479576416015625,1.390533447265625,-5.271238803863525,8.155770301818848
1700935782033565400,6.4965654296875,1.3876899480819702,-5.2729878425598145,8.155122756958008
1700935782050559500,6.5135595703125,1.3842885494232178,-5.273658275604248,8.155267715454102
1700935782067550700,6.53055078125,1.3814178705215454,-5.274017333984375,8.155522346496582
1700935782084542700,6.547542724609375,1.3802121877670288,-5.275641918182373,8.154675483703613
1700935782101536500,6.56453662109375,1.3806664943695068,-5.279811382293701,8.151899337768555
1700935782118516200,6.58151611328125,1.3809951543807983,-5.286373615264893,8.147591590881348
1700935782135512000,6.598511962890625,1.3796874284744263,-5.293555736541748,8.143147468566895
1700935782152511200,6.61551123046875,1.3776037693023682,-5.298415660858154,8.140337944030762
1700935782169503500,6.63250341796875,1.376857042312622,-5.299559116363525,8.13971996307373
1700935782186496000,6.64949609375,1.3770298957824707,-5.297036647796631,8.141334533691406
1700935782203487700,6.66648779296875,1.3784948587417603,-5.294617176055908,8.142659187316895
1700935782220480000,6.68347998046875,1.3806841373443604,-5.294686794281006,8.142242431640625
1700935782237472000,6.700471923828125,1.3831297159194946,-5.296356678009033,8.140742301940918
1700935782254464000,6.717464111328125,1.3858500719070435,-5.2986273765563965,8.138800621032715
1700935782271456500,6.73445654296875,1.3890031576156616,-5.30130672454834,8.136519432067871
1700935782288448800,6.75144873046875,1.3908997774124146,-5.302739143371582,8.135261535644531
1700935782305440800,6.768440673828125,1.3906468152999878,-5.301672458648682,8.13599967956543
1700935782322433000,6.78543310546875,1.3888301849365234,-5.2999467849731445,8.137434959411621
1700935782339425000,6.802425048828125,1.3877203464508057,-5.2993550300598145,8.138008117675781
1700935782356417300,6.819417236328125,1.3889853954315186,-5.299619674682617,8.13762092590332
1700935782373409500,6.836409423828125,1.390421986579895,-5.300023555755615,8.13711166381836
1700935782390402600,6.853402587890625,1.3916362524032593,-5.299680233001709,8.137127876281738
1700935782407393800,6.870393798828125,1.3909058570861816,-5.299071788787842,8.137649536132812
1700935782424378600,6.887378662109375,1.3876060247421265,-5.298859119415283,8.138351440429688
1700935782441378300,6.90437841796875,1.3830653429031372,-5.298854827880859,8.139126777648926
1700935782458372600,6.92137255859375,1.3801592588424683,-5.298845291137695,8.139625549316406
1700935782475359700,6.93835986328125,1.3804326057434082,-5.299513816833496,8.139144897460938
1700935782492341500,6.955341552734375,1.3819230794906616,-5.300535678863525,8.138225555419922
1700935782509349600,6.972349609375,1.384008765220642,-5.302396297454834,8.1366605758667
1700935782526342100,6.989342041015625,1.3863301277160645,-5.304656982421875,8.134791374206543
1700935782543317200,7.006317138671875,1.3880152702331543,-5.304693698883057,8.134479522705078
1700935782560310300,7.023310302734375,1.3884626626968384,-5.301926136016846,8.136207580566406
1700935782577315600,7.040315673828125,1.387656331062317,-5.298318862915039,8.138693809509277
1700935782594305300,7.05730517578125,1.3875138759613037,-5.2971696853637695,8.1394681930542
1700935782611302100,7.07430224609375,1.3895928859710693,-5.301296234130859,8.136425018310547
1700935782628291800,7.091291748046875,1.3919492959976196,-5.309683799743652,8.130550384521484
1700935782645270300,7.108270263671875,1.3929951190948486,-5.318363189697266,8.124696731567383
1700935782662276400,7.1252763671875,1.3924317359924316,-5.323937892913818,8.12114143371582
1700935782679268400,7.142268310546875,1.3910915851593018,-5.324006080627441,8.12132740020752
1700935782696260900,7.1592607421875,1.3894751071929932,-5.318988800048828,8.124889373779297
1700935782713252900,7.1762529296875,1.3889546394348145,-5.311239242553711,8.130045890808105
1700935782730244900,7.193244873046875,1.3910948038101196,-5.305639743804932,8.133336067199707
1700935782747237000,7.210237060546875,1.3967818021774292,-5.305259704589844,8.132609367370605
1700935782764229400,7.2272294921875,1.4026362895965576,-5.309455871582031,8.128862380981445
1700935782781221400,7.244221435546875,1.4065089225769043,-5.315685272216797,8.12412166595459
1700935782798203400,7.261203369140625,1.408002257347107,-5.320584297180176,8.120654106140137
1700935782815206000,7.278205810546875,1.4066787958145142,-5.321544647216797,8.120254516601562
1700935782832198000,7.295197998046875,1.4049503803253174,-5.319385528564453,8.121969223022461
1700935782849190100,7.312190185546875,1.405000925064087,-5.317328453063965,8.123305320739746
1700935782866182100,7.32918212890625,1.4061923027038574,-5.316109657287598,8.123897552490234
1700935782883174400,7.34617431640625,1.4072842597961426,-5.316421985626221,8.123504638671875
1700935782900166700,7.363166748046875,1.408522367477417,-5.318613529205322,8.121854782104492
1700935782917158700,7.38015869140625,1.4096959829330444,-5.320760250091553,8.120245933532715
1700935782934151000,7.39715087890625,1.4094699621200562,-5.320770740509033,8.120279312133789
1700935782951143400,7.414143310546875,1.4079257249832153,-5.319201946258545,8.121572494506836
1700935782968135400,7.431135498046875,1.4073535203933716,-5.317660808563232,8.122682571411133
1700935782985127400,7.44812744140625,1.4092988967895508,-5.3170294761657715,8.122757911682129
1700935783002119700,7.46511962890625,1.4115322828292847,-5.317977428436279,8.121748924255371
1700935783019114800,7.48211474609375,1.4134819507598877,-5.320559501647949,8.119718551635742
1700935783036101000,7.49910107421875,1.4143836498260498,-5.323882102966309,8.117383003234863
1700935783053096200,7.51609619140625,1.4128239154815674,-5.326399803161621,8.116003036499023
1700935783070088200,7.533088134765625,1.4097181558609009,-5.327218532562256,8.116006851196289
1700935783087079400,7.550079345703125,1.4074634313583374,-5.32668924331665,8.116744041442871
1700935783104073700,7.56707373046875,1.4065930843353271,-5.325131416320801,8.117918014526367
1700935783121064700,7.584064697265625,1.40744948387146,-5.32418966293335,8.118388175964355
1700935783138057000,7.601056884765625,1.4085817337036133,-5.3247480392456055,8.11782455444336
1700935783155049200,7.61804931640625,1.4072983264923096,-5.326770305633545,8.116719245910645
1700935783172040400,7.63504052734375,1.4024567604064941,-5.330074787139893,8.115387916564941
1700935783189033500,7.652033447265625,1.3981722593307495,-5.332817077636719,8.114327430725098
1700935783206024200,7.669024169921875,1.3961437940597534,-5.331853866577148,8.115307807922363
1700935783223020800,7.686020751953125,1.3935186862945557,-5.326308250427246,8.119399070739746
1700935783240009700,7.703009765625,1.3895574808120728,-5.319934368133545,8.12425708770752
1700935783257001200,7.720001220703125,1.3872350454330444,-5.315736293792725,8.127401351928711
1700935783273995300,7.736995361328125,1.3892130851745605,-5.314513683319092,8.127861976623535
1700935783290977300,7.753977294921875,1.392632007598877,-5.315007209777832,8.126955032348633
1700935783307978800,7.770978759765625,1.3940069675445557,-5.316527366638184,8.125724792480469
1700935783324971000,7.787970947265625,1.3933151960372925,-5.31760311126709,8.125138282775879
1700935783341963000,7.804962890625,1.3913496732711792,-5.31719446182251,8.125743865966797
1700935783358955300,7.821955322265625,1.3897736072540283,-5.317541599273682,8.125784873962402
1700935783375947300,7.838947265625,1.3910889625549316,-5.317983627319336,8.125271797180176
1700935783392939500,7.855939453125,1.3946009874343872,-5.318691253662109,8.124205589294434
1700935783409932000,7.87293212890625,1.3967232704162598,-5.319742202758789,8.123152732849121
1700935783426925600,7.889925537109375,1.398263692855835,-5.320558547973633,8.122354507446289
1700935783443914500,7.90691455078125,1.399682879447937,-5.320719242095947,8.122004508972168
1700935783460905500,7.923905517578125,1.4005236625671387,-5.3212738037109375,8.121496200561523
1700935783477893000,7.94089306640625,1.3999781608581543,-5.322738170623779,8.120631217956543
1700935783494892500,7.957892578125,1.4002619981765747,-5.324372291564941,8.11950969696045
1700935783511884800,7.974884765625,1.4020936489105225,-5.324520587921143,8.119096755981445
1700935783528869400,7.991869384765625,1.4042702913284302,-5.322094440460205,8.12031078338623
1700935783545868800,8.008868896484374,1.4045357704162598,-5.318641185760498,8.122528076171875
1700935783562861300,8.025861328125,1.4032546281814575,-5.3155951499938965,8.12474250793457
1700935783579853300,8.042853271484375,1.4006894826889038,-5.313968658447266,8.126249313354492
1700935783596845800,8.059845703125,1.3985402584075928,-5.313817501068115,8.126717567443848
1700935783613837800,8.076837890625,1.398823618888855,-5.313643455505371,8.126782417297363
1700935783630830000,8.093830078125,1.400182843208313,-5.311788082122803,8.127760887145996
1700935783647822300,8.110822265625,1.4010610580444336,-5.309532165527344,8.129084587097168
1700935783664814300,8.127814453125,1.4022623300552368,-5.308940887451172,8.129262924194336
1700935783681806300,8.144806396484375,1.4029502868652344,-5.310471534729004,8.128144264221191
1700935783698798600,8.161798583984375,1.4023770093917847,-5.314574241638184,8.12556266784668
1700935783715791000,8.178791015625,1.4021100997924805,-5.320258140563965,8.121888160705566
1700935783732783000,8.195783203125,1.4037107229232788,-5.323822021484375,8.11927604675293
1700935783749775400,8.212775390625,1.4055262804031372,-5.322717189788818,8.119686126708984
1700935783766767600,8.229767578125,1.407492995262146,-5.318628787994385,8.122023582458496
1700935783783759400,8.24675927734375,1.4095704555511475,-5.315460681915283,8.123737335205078
1700935783800751900,8.263751953125,1.4137051105499268,-5.315011024475098,8.123312950134277
1700935783817744000,8.280743896484376,1.4200223684310913,-5.3165483474731445,8.12120532989502
1700935783834736000,8.297736083984375,1.4247490167617798,-5.3174943923950195,8.119756698608398
1700935783851728400,8.314728271484375,1.426286220550537,-5.3183088302612305,8.118953704833984
1700935783868720600,8.331720703125,1.4262081384658813,-5.318631649017334,8.118757247924805
1700935783885712400,8.34871240234375,1.4258389472961426,-5.318577766418457,8.118857383728027
1700935783902704600,8.36570458984375,1.4257433414459229,-5.320009231567383,8.117935180664062
1700935783919697000,8.38269677734375,1.4279483556747437,-5.324835777282715,8.114383697509766
1700935783936689400,8.399689453125,1.4321556091308594,-5.330264091491699,8.110074996948242
1700935783953681400,8.416681396484375,1.4345910549163818,-5.333648681640625,8.107419967651367
1700935783970673700,8.433673583984374,1.4346287250518799,-5.334955215454102,8.10655403137207
1700935783987665700,8.450665771484376,1.434222936630249,-5.3350019454956055,8.10659408569336
1700935784004658000,8.467657958984375,1.4335078001022339,-5.333452224731445,8.107741355895996
1700935784021650200,8.484650146484375,1.4313955307006836,-5.330672264099121,8.109942436218262
1700935784038642400,8.501642333984375,1.4304815530776978,-5.3288044929504395,8.111329078674316
1700935784055634400,8.518634521484374,1.4317598342895508,-5.327341079711914,8.112065315246582
1700935784072626700,8.535626708984376,1.4357227087020874,-5.325194358825684,8.112774848937988
1700935784089619000,8.552618896484375,1.4387750625610352,-5.322099685668945,8.114264488220215
1700935784106609700,8.569609619140625,1.4392082691192627,-5.3186516761779785,8.116450309753418
1700935784123604700,8.586604736328125,1.4385806322097778,-5.315004825592041,8.118947982788086
1700935784140595500,8.603595458984374,1.4386881589889526,-5.311681747436523,8.121103286743164
1700935784157587500,8.62058740234375,1.441046118736267,-5.308932781219482,8.12248420715332
1700935784174579500,8.637579345703125,1.4442181587219238,-5.305607795715332,8.124091148376465
1700935784191572000,8.654572021484375,1.4477779865264893,-5.302282810211182,8.125628471374512
1700935784208564200,8.671564208984375,1.4517035484313965,-5.300695419311523,8.125965118408203
1700935784225556200,8.68855615234375,1.4547662734985352,-5.301623821258545,8.124810218811035
1700935784242548500,8.705548583984376,1.453973650932312,-5.305588245391846,8.122365951538086
1700935784259540700,8.722540771484375,1.4500861167907715,-5.312010288238525,8.118861198425293
1700935784276532500,8.739532470703125,1.4469366073608398,-5.316953659057617,8.116188049316406
1700935784293524200,8.756524169921875,1.4453223943710327,-5.316437244415283,8.116813659667969
1700935784310502000,8.773501953125,1.4443085193634033,-5.310523509979248,8.12086296081543
1700935784327513600,8.790513671875,1.4432153701782227,-5.304235458374023,8.125168800354004
1700935784344501200,8.807501220703125,1.4433977603912354,-5.30055046081543,8.12753963470459
1700935784361483000,8.82448291015625,1.4433928728103638,-5.29988431930542,8.127973556518555
1700935784378485800,8.84148583984375,1.4420479536056519,-5.3021721839904785,8.126720428466797
1700935784395478000,8.85847802734375,1.4390571117401123,-5.306419372558594,8.12447738647461
1700935784412470000,8.875469970703126,1.435202956199646,-5.310683727264404,8.122373580932617
1700935784429462300,8.892462158203125,1.4318755865097046,-5.313960552215576,8.120817184448242
1700935784446454500,8.90945458984375,1.4299793243408203,-5.316990375518799,8.119168281555176
1700935784463436300,8.926436279296874,1.4299594163894653,-5.320340156555176,8.116976737976074
1700935784480439000,8.94343896484375,1.4309982061386108,-5.323891639709473,8.114463806152344
1700935784497431000,8.96043115234375,1.4305903911590576,-5.327126502990723,8.112412452697754
1700935784514423300,8.97742333984375,1.4291852712631226,-5.32861328125,8.11168384552002
1700935784531415300,8.994415283203125,1.4287762641906738,-5.327868461608887,8.112245559692383
1700935784548407600,9.011407470703125,1.4292969703674316,-5.324890613555908,8.114108085632324
1700935784565399800,9.02839990234375,1.4297281503677368,-5.321243762969971,8.116424560546875
1700935784582391800,9.045391845703126,1.4305435419082642,-5.319340229034424,8.11752986907959
1700935784599384000,9.062384033203125,1.4344033002853394,-5.3190484046936035,8.117040634155273
1700935784616376600,9.07937646484375,1.43996262550354,-5.3178300857543945,8.116853713989258
1700935784633366000,9.096365966796874,1.4434279203414917,-5.315529823303223,8.117744445800781
1700935784650363400,9.11336328125,1.4445134401321411,-5.31305456161499,8.119172096252441
1700935784667352800,9.130352783203126,1.4454399347305298,-5.310373306274414,8.12076187133789
1700935784684345000,9.147344970703125,1.4463684558868408,-5.3065571784973145,8.123088836669922
1700935784701337300,9.16433740234375,1.4473859071731567,-5.302879333496094,8.125309944152832
1700935784718329600,9.18132958984375,1.4496166706085205,-5.300597667694092,8.1264009475708
1700935784735321300,9.1983212890625,1.4535874128341675,-5.2976274490356445,8.1276273727417
1700935784752313900,9.21531396484375,1.457500696182251,-5.293286323547363,8.129755973815918
1700935784769306000,9.23230615234375,1.460748314857483,-5.289267539978027,8.131787300109863
1700935784786298400,9.24929833984375,1.4639768600463867,-5.288176536560059,8.131916999816895
1700935784803290600,9.26629052734375,1.465936541557312,-5.289798259735107,8.130510330200195
1700935784820282600,9.28328271484375,1.4637993574142456,-5.294565200805664,8.127790451049805
1700935784837275000,9.30027490234375,1.4605023860931396,-5.3013916015625,8.123933792114258
1700935784854267100,9.31726708984375,1.4588935375213623,-5.306901454925537,8.120625495910645
1700935784871259100,9.334259033203125,1.4577991962432861,-5.307464122772217,8.120452880859375
1700935784888251400,9.35125146484375,1.4557839632034302,-5.303816795349121,8.123197555541992
1700935784905243400,9.368243408203124,1.4549387693405151,-5.299394130706787,8.126235008239746
1700935784922233600,9.385233642578125,1.4576281309127808,-5.297640323638916,8.126896858215332
1700935784939230000,9.40222998046875,1.4607616662979126,-5.2988152503967285,8.125566482543945
1700935784956220200,9.41922021484375,1.460365891456604,-5.302009582519531,8.123554229736328
1700935784973212400,9.43621240234375,1.4582242965698242,-5.307033538818359,8.120658874511719
1700935784990201900,9.453201904296876,1.4583269357681274,-5.311182975769043,8.117926597595215
1700935785007199200,9.47019921875,1.4604421854019165,-5.3125224113464355,8.116669654846191
1700935785024185300,9.487185302734375,1.4629125595092773,-5.3126349449157715,8.116151809692383
1700935785041184800,9.504184814453126,1.4641832113265991,-5.31317663192749,8.11556625366211
1700935785058174700,9.5211748046875,1.4628968238830566,-5.314815044403076,8.114726066589355
1700935785075163600,9.53816357421875,1.459964394569397,-5.3171515464782715,8.113724708557129
1700935785092157700,9.55515771484375,1.458184838294983,-5.318581581115723,8.113106727600098
1700935785109149700,9.572149658203125,1.458428978919983,-5.316815376281738,8.114221572875977
1700935785126142000,9.589141845703125,1.4605138301849365,-5.313095569610596,8.11628246307373
1700935785143134000,9.606134033203125,1.4618109464645386,-5.310294151306152,8.117880821228027
1700935785160126200,9.623126220703124,1.4615586996078491,-5.308290481567383,8.119237899780273
1700935785177117000,9.640116943359375,1.4603363275527954,-5.30684232711792,8.120403289794922
1700935785194112800,9.65711279296875,1.4569288492202759,-5.306686878204346,8.12111759185791
1700935785211103500,9.674103515625,1.4534988403320312,-5.3070173263549805,8.121517181396484
1700935785228093400,9.691093505859374,1.4535032510757446,-5.307473659515381,8.121216773986816
1700935785245092600,9.708092529296875,1.4558544158935547,-5.306866645812988,8.121193885803223
1700935785262079500,9.72507958984375,1.4587482213974,-5.305309772491455,8.12169075012207
1700935785279071700,9.74207177734375,1.460053563117981,-5.304266929626465,8.122137069702148
1700935785296064000,9.75906396484375,1.4595054388046265,-5.304881572723389,8.121834754943848
1700935785313056000,9.776055908203125,1.4612394571304321,-5.306407451629639,8.120525360107422
1700935785330048300,9.79304833984375,1.4621118307113647,-5.308041095733643,8.119300842285156
1700935785347040300,9.810040283203126,1.461533546447754,-5.308521270751953,8.119091033935547
1700935785364032800,9.82703271484375,1.462893009185791,-5.308865547180176,8.118619918823242
1700935785381024800,9.844024658203125,1.4671611785888672,-5.310575008392334,8.116732597351074
1700935785398019600,9.86101953125,1.4707657098770142,-5.313843250274658,8.11394214630127
1700935785415007000,9.878007080078126,1.4710495471954346,-5.318709850311279,8.110699653625488
1700935785432001300,9.895001220703126,1.46908438205719,-5.3222551345825195,8.108729362487793
1700935785448993500,9.91199365234375,1.466879963874817,-5.322528839111328,8.1089506149292
1700935785465983200,9.928983154296875,1.4652327299118042,-5.320150375366211,8.110808372497559
1700935785482969900,9.945969970703125,1.4646161794662476,-5.316158771514893,8.113536834716797
1700935785499970300,9.96297021484375,1.4659852981567383,-5.31296968460083,8.115378379821777
1700935785516962300,9.97996240234375,1.4700771570205688,-5.31256103515625,8.114904403686523
1700935785533954600,9.99695458984375,1.475394606590271,-5.312460899353027,8.114005088806152
1700935785550946800,10.01394677734375,1.4783443212509155,-5.311056613922119,8.114387512207031
1700935785567939000,10.03093896484375,1.478639006614685,-5.310146808624268,8.114930152893066
1700935785584931000,10.04793115234375,1.4792006015777588,-5.310707092285156,8.114459991455078
1700935785601923000,10.064923095703126,1.4794538021087646,-5.3121466636657715,8.113471984863281
1700935785618911200,10.0819111328125,1.4802800416946411,-5.313501358032227,8.112434387207031
1700935785635911700,10.09891162109375,1.4827290773391724,-5.315068244934082,8.110960960388184
1700935785652892400,10.115892333984375,1.4856023788452148,-5.315414905548096,8.110207557678223
1700935785669892000,10.13289208984375,1.4874635934829712,-5.3147077560424805,8.110329627990723
1700935785686884400,10.14988427734375,1.489211082458496,-5.313140392303467,8.11103630065918
1700935785703876600,10.166876708984375,1.489774465560913,-5.310444355010986,8.11269760131836
1700935785720868600,10.18386865234375,1.4879997968673706,-5.308104991912842,8.114555358886719
1700935785737860600,10.200860595703125,1.4849098920822144,-5.307747840881348,8.115355491638184
1700935785754851300,10.217851318359376,1.4829057455062866,-5.311156749725342,8.113489151000977
1700935785771846700,10.2348466796875,1.482485294342041,-5.317673206329346,8.109295845031738
1700935785788837400,10.25183740234375,1.4802170991897583,-5.324686050415039,8.105108261108398
1700935785805829600,10.26882958984375,1.475707769393921,-5.328643321990967,8.103330612182617
1700935785822822000,10.28582177734375,1.4707131385803223,-5.328625202178955,8.10425090789795
1700935785839814000,10.30281396484375,1.4667348861694336,-5.326932430267334,8.106085777282715
1700935785856806100,10.31980615234375,1.4647959470748901,-5.324976921081543,8.107718467712402
1700935785873794000,10.3367939453125,1.4632432460784912,-5.323999404907227,8.108641624450684
1700935785890791200,10.353791259765625,1.4612587690353394,-5.323462009429932,8.109353065490723
1700935785907783000,10.370782958984375,1.458000898361206,-5.323088645935059,8.110182762145996
1700935785924775000,10.38777490234375,1.4554061889648438,-5.32192325592041,8.111414909362793
1700935785941767200,10.40476708984375,1.456304907798767,-5.319355487823486,8.112936973571777
1700935785958756900,10.4217568359375,1.4579246044158936,-5.317034721374512,8.114167213439941
1700935785975754000,10.43875390625,1.459188461303711,-5.316372871398926,8.114373207092285
1700935785992744000,10.455743896484375,1.460148572921753,-5.319336891174316,8.112259864807129
1700935786009736200,10.472736083984374,1.4600577354431152,-5.326182842254639,8.107782363891602
1700935786026728000,10.48972802734375,1.4577816724777222,-5.3350419998168945,8.102364540100098
1700935786043720200,10.50672021484375,1.4557684659957886,-5.341687202453613,8.098346710205078
1700935786060712700,10.523712646484375,1.4552050828933716,-5.3428754806518555,8.097665786743164
1700935786077704700,10.54070458984375,1.4549899101257324,-5.339488506317139,8.099937438964844
1700935786094697200,10.557697265625,1.4550905227661133,-5.334659576416016,8.103100776672363
1700935786111689000,10.57468896484375,1.4571890830993652,-5.331063270568848,8.105088233947754
1700935786128681200,10.59168115234375,1.459877371788025,-5.329543590545654,8.105605125427246
1700935786145672200,10.608672119140625,1.4619379043579102,-5.330358982086182,8.104698181152344
1700935786162655700,10.62565576171875,1.4620496034622192,-5.33200740814209,8.103593826293945
1700935786179657700,10.64265771484375,1.4608079195022583,-5.333690166473389,8.102710723876953
1700935786196650200,10.659650146484376,1.4602155685424805,-5.336259841918945,8.101123809814453
1700935786213642200,10.676642333984375,1.4597582817077637,-5.339207649230957,8.099264144897461
1700935786230634500,10.693634521484375,1.4583710432052612,-5.341506004333496,8.09799861907959
1700935786247626800,10.710626708984375,1.4561500549316406,-5.342299938201904,8.097875595092773
1700935786264615700,10.72761572265625,1.4548665285110474,-5.341988563537598,8.098311424255371
1700935786281612800,10.74461279296875,1.456520438194275,-5.342691898345947,8.097549438476562
1700935786298601700,10.761601806640625,1.4576486349105835,-5.34429407119751,8.096288681030273
1700935786315595500,10.778595458984375,1.4553723335266113,-5.3470540046691895,8.094876289367676
1700935786332587500,10.79558740234375,1.4539371728897095,-5.3519744873046875,8.091882705688477
1700935786349579800,10.812579833984374,1.4540762901306152,-5.357885360717773,8.087944984436035
1700935786366571800,10.82957177734375,1.454140067100525,-5.362425804138184,8.084922790527344
1700935786383564000,10.84656396484375,1.4526546001434326,-5.365363121032715,8.083242416381836
1700935786400556500,10.863556640625,1.4502557516098022,-5.367617130279541,8.082174301147461
1700935786417548800,10.880548828125,1.447177767753601,-5.367952346801758,8.082504272460938
1700935786434540800,10.897540771484374,1.4435542821884155,-5.367491722106934,8.08345890045166
1700935786451530500,10.914530517578125,1.4407575130462646,-5.3668646812438965,8.084373474121094
1700935786468527600,10.931527587890624,1.4382308721542358,-5.36523962020874,8.085902214050293
1700935786485517600,10.948517578125,1.434252142906189,-5.363284111022949,8.087906837463379
1700935786502509800,10.965509765625,1.4304149150848389,-5.361732006072998,8.089614868164062
1700935786519501800,10.982501708984374,1.4282863140106201,-5.360355854034424,8.090903282165527
1700935786536488200,10.99948828125,1.4289970397949219,-5.358806610107422,8.091803550720215
1700935786553486300,11.016486328125,1.4328944683074951,-5.357640266418457,8.091886520385742
1700935786570478600,11.033478515625,1.4405540227890015,-5.357486248016357,8.090628623962402
1700935786587470600,11.050470703125,1.4500908851623535,-5.358786106109619,8.088064193725586
1700935786604462800,11.067462890625,1.4564777612686157,-5.36161994934082,8.085038185119629
1700935786621449700,11.08444970703125,1.458747386932373,-5.3653788566589355,8.082133293151855
1700935786638447000,11.101447021484375,1.459969162940979,-5.368764400482178,8.07966423034668
1700935786655439600,11.118439697265625,1.4636536836624146,-5.369211196899414,8.07870101928711
1700935786672431900,11.135431884765625,1.4691317081451416,-5.367034435272217,8.079154014587402
1700935786689423600,11.152423583984374,1.4744588136672974,-5.364415168762207,8.079922676086426
1700935786706416000,11.169416015625,1.48138427734375,-5.363918781280518,8.078985214233398
1700935786723408400,11.186408447265626,1.4883097410202026,-5.364649295806885,8.077226638793945
1700935786740400400,11.203400390625,1.4928354024887085,-5.3646087646484375,8.07641887664795
1700935786757382700,11.220382568359375,1.496691107749939,-5.364731311798096,8.075623512268066
1700935786774384600,11.237384521484374,1.502485990524292,-5.366367816925049,8.073458671569824
1700935786791377200,11.254377197265624,1.507435917854309,-5.368907928466797,8.070849418640137
1700935786808369000,11.271368896484375,1.5102946758270264,-5.372043132781982,8.068227767944336
1700935786825361400,11.288361328125,1.511873722076416,-5.375722885131836,8.065481185913086
1700935786842351600,11.3053515625,1.5127779245376587,-5.378098011016846,8.063727378845215
1700935786859348000,11.322347900390625,1.51248037815094,-5.378507137298584,8.063509941101074
1700935786876338000,11.339337890625,1.5122326612472534,-5.377313137054443,8.064351081848145
1700935786893330200,11.356330078125,1.512553095817566,-5.3763957023620605,8.06490421295166
1700935786910322400,11.373322509765625,1.513214111328125,-5.375524520874023,8.065361976623535
1700935786927314700,11.390314697265625,1.5145741701126099,-5.374426364898682,8.065836906433105
1700935786944307000,11.407306884765624,1.5151729583740234,-5.372389793395996,8.067079544067383
1700935786961288700,11.424288818359376,1.5138825178146362,-5.369957447052002,8.068942070007324
1700935786978281000,11.441281005859375,1.5112731456756592,-5.36876106262207,8.070228576660156
1700935786995283200,11.458283203125,1.5093801021575928,-5.369056224822998,8.070385932922363
1700935787012276200,11.475276123046875,1.5091506242752075,-5.370409965515137,8.069528579711914
1700935787029267700,11.492267822265624,1.510011076927185,-5.37308931350708,8.067583084106445
1700935787046260200,11.50926025390625,1.5111980438232422,-5.3754777908325195,8.065768241882324
1700935787063252200,11.526252197265626,1.5123934745788574,-5.376530170440674,8.064844131469727
1700935787080244700,11.54324462890625,1.5128928422927856,-5.3775248527526855,8.064087867736816
1700935787097236700,11.56023681640625,1.5135228633880615,-5.378424167633057,8.063369750976562
1700935787114229000,11.57722900390625,1.516145944595337,-5.378480911254883,8.062838554382324
1700935787131221200,11.59422119140625,1.5210403203964233,-5.377933502197266,8.06228256225586
1700935787148211000,11.6112109375,1.5276702642440796,-5.37836217880249,8.060742378234863
1700935787165207600,11.62820751953125,1.5347254276275635,-5.3802490234375,8.05814266204834
1700935787182197500,11.645197509765625,1.5411158800125122,-5.383471965789795,8.054767608642578
1700935787199179800,11.6621796875,1.5440897941589355,-5.387485027313232,8.051515579223633
1700935787216179000,11.679178955078125,1.545721411705017,-5.391172885894775,8.048733711242676
1700935787233177600,11.696177490234374,1.5484626293182373,-5.392141342163086,8.047560691833496
1700935787250166500,11.71316650390625,1.5505088567733765,-5.388120651245117,8.049859046936035
1700935787267158500,11.730158447265625,1.5510754585266113,-5.38112211227417,8.054427146911621
1700935787284150800,11.74715087890625,1.5511690378189087,-5.374855041503906,8.058594703674316
1700935787301132500,11.764132568359376,1.5525180101394653,-5.371007919311523,8.060896873474121
1700935787318135300,11.78113525390625,1.5543545484542847,-5.3695478439331055,8.061515808105469
1700935787335127600,11.79812744140625,1.5546882152557373,-5.370813369750977,8.060608863830566
1700935787352119800,11.815119873046875,1.5542914867401123,-5.373103141784668,8.059160232543945
1700935787369111800,11.83211181640625,1.553548812866211,-5.374926567077637,8.058085441589355
1700935787386104000,11.84910400390625,1.5532631874084473,-5.3764967918396,8.057095527648926
1700935787403099100,11.86609912109375,1.554927945137024,-5.378426551818848,8.055486679077148
1700935787420088600,11.883088623046875,1.5574790239334106,-5.379673480987549,8.054158210754395
1700935787437080800,11.900080810546875,1.5594451427459717,-5.3802313804626465,8.053407669067383
1700935787454069200,11.9170693359375,1.5606213808059692,-5.381106376647949,8.052594184875488
1700935787471068700,11.934068603515625,1.560482144355774,-5.380868434906006,8.052779197692871
1700935787488057300,11.951057373046876,1.5594773292541504,-5.380730152130127,8.05306625366211
1700935787505049600,11.968049560546875,1.5614078044891357,-5.381675720214844,8.0520601272583
1700935787522041900,11.985041748046875,1.5656490325927734,-5.382771968841553,8.05050277709961
1700935787539033900,12.002033935546875,1.5687390565872192,-5.383578300476074,8.04936408996582
1700935787556026400,12.0190263671875,1.5705960988998413,-5.384084701538086,8.048662185668945
1700935787573018600,12.0360185546875,1.5723663568496704,-5.383942127227783,8.048415184020996
1700935787590010600,12.0530107421875,1.5732568502426147,-5.383673191070557,8.048417091369629
1700935787607003000,12.0700029296875,1.5732930898666382,-5.384084224700928,8.048137664794922
1700935787623992300,12.086992431640626,1.5735571384429932,-5.384716510772705,8.047663688659668
1700935787640990000,12.103989990234375,1.5755794048309326,-5.38527250289917,8.046894073486328
1700935787657979400,12.1209794921875,1.577694058418274,-5.385997295379639,8.045994758605957
1700935787674971600,12.1379716796875,1.5786617994308472,-5.386216640472412,8.045658111572266
1700935787691964200,12.154964111328125,1.5790154933929443,-5.386155128479004,8.04563045501709
1700935787708956200,12.1719560546875,1.580056071281433,-5.384932041168213,8.046242713928223
1700935787725948400,12.188948486328124,1.5807825326919556,-5.38173770904541,8.048239707946777
1700935787742940700,12.205940673828126,1.5795701742172241,-5.378520965576172,8.050626754760742
1700935787759932700,12.2229326171875,1.578660011291504,-5.377251148223877,8.051653861999512
1700935787776924700,12.239924560546875,1.5781735181808472,-5.378892421722412,8.050650596618652
1700935787793917000,12.2569169921875,1.576576590538025,-5.383502960205078,8.047884941101074
1700935787810909200,12.2739091796875,1.5741825103759766,-5.388698101043701,8.04487419128418
1700935787827901400,12.2909013671875,1.5731803178787231,-5.3911895751953125,8.043400764465332
1700935787844887000,12.307886962890626,1.5733202695846558,-5.389247894287109,8.044672966003418
1700935787861886200,12.32488623046875,1.5739989280700684,-5.383849620819092,8.048155784606934
1700935787878878200,12.341878173828125,1.5743409395217896,-5.378073692321777,8.051947593688965
1700935787895870700,12.35887060546875,1.57487952709198,-5.375263690948486,8.053720474243164
1700935787912862700,12.37586279296875,1.5764491558074951,-5.3758544921875,8.053020477294922
1700935787929845000,12.392844970703125,1.5778194665908813,-5.379394054412842,8.05038833618164
1700935787946847000,12.409846923828125,1.5781793594360352,-5.383958339691162,8.047262191772461
1700935787963828700,12.426828857421874,1.5794063806533813,-5.388411998748779,8.04404067993164
1700935787980832500,12.44383251953125,1.5822186470031738,-5.392906665802002,8.040475845336914
1700935787997822500,12.460822509765626,1.5862187147140503,-5.395893096923828,8.037684440612793
1700935788014815200,12.477815185546875,1.5902129411697388,-5.3978800773620605,8.03555965423584
1700935788031808800,12.494808837890625,1.5941755771636963,-5.40043830871582,8.033056259155273
1700935788048797700,12.511797607421874,1.597703456878662,-5.403091907501221,8.030570983886719
1700935788065795300,12.52879541015625,1.599359393119812,-5.404930591583252,8.029003143310547
1700935788082784800,12.54578466796875,1.6005531549453735,-5.405636310577393,8.028289794921875
1700935788099777000,12.562777099609375,1.6024762392044067,-5.404769420623779,8.028491020202637
1700935788116769300,12.579769287109375,1.604498028755188,-5.401952743530273,8.029982566833496
1700935788133761300,12.59676123046875,1.6066644191741943,-5.3988447189331055,8.031637191772461
1700935788150747100,12.6137470703125,1.6094801425933838,-5.3968119621276855,8.032441139221191
1700935788167745800,12.630745849609376,1.6108533143997192,-5.395272254943848,8.03320026397705
1700935788184737800,12.64773779296875,1.6082799434661865,-5.3937668800354,8.0347261428833
1700935788201730000,12.66472998046875,1.6032662391662598,-5.392971992492676,8.036260604858398
1700935788218722600,12.68172265625,1.5993024110794067,-5.390881538391113,8.038453102111816
1700935788235714300,12.69871435546875,1.5979397296905518,-5.387983798980713,8.040667533874512
1700935788252706800,12.715706787109376,1.5977905988693237,-5.3856072425842285,8.042288780212402
1700935788269699300,12.73269921875,1.5964466333389282,-5.383097171783447,8.044239044189453
1700935788286692900,12.74969287109375,1.5934292078018188,-5.379434108734131,8.047285079956055
1700935788303681800,12.766681884765624,1.5894054174423218,-5.375146865844727,8.050945281982422
1700935788320665000,12.7836650390625,1.587004542350769,-5.3703203201293945,8.054638862609863
1700935788337667600,12.80066748046875,1.5850718021392822,-5.365497589111328,8.058233261108398
1700935788354648300,12.8176484375,1.5835622549057007,-5.36334228515625,8.059962272644043
1700935788371640800,12.834640869140625,1.5828036069869995,-5.365179538726807,8.05888843536377
1700935788388646700,12.851646728515625,1.5821987390518188,-5.3699870109558105,8.055806159973145
1700935788405636900,12.868636962890625,1.5801271200180054,-5.376278400421143,8.052016258239746
1700935788422628600,12.885628662109376,1.5767134428024292,-5.382665157318115,8.048415184020996
1700935788439621400,12.902621337890626,1.5729846954345703,-5.3861823081970215,8.046792030334473
1700935788456613000,12.919613037109375,1.5696762800216675,-5.386622428894043,8.04714298248291
1700935788473595100,12.93659521484375,1.5684399604797363,-5.385519504547119,8.04812240600586
1700935788490597600,12.95359765625,1.5690691471099854,-5.38538122177124,8.04809284210205
1700935788507591000,12.9705908203125,1.5710498094558716,-5.387839317321777,8.046063423156738
1700935788524578800,12.987578857421875,1.5737886428833008,-5.39257287979126,8.042354583740234
1700935788541577000,13.004576904296876,1.5763587951660156,-5.39762020111084,8.038464546203613
1700935788558564000,13.021564208984374,1.577782392501831,-5.4014058113098145,8.03564167022705
1700935788575561500,13.0385615234375,1.57736074924469,-5.4040069580078125,8.033975601196289
1700935788592551200,13.05555126953125,1.5783743858337402,-5.405371189117432,8.032858848571777
1700935788609543400,13.07254345703125,1.5792982578277588,-5.4056477546691895,8.032491683959961
1700935788626535400,13.089535400390625,1.5805675983428955,-5.405641555786133,8.032245635986328
1700935788643527700,13.106527587890625,1.5836491584777832,-5.406287670135498,8.031205177307129
1700935788660520200,13.123520263671875,1.5868422985076904,-5.406322002410889,8.030550956726074
1700935788677512200,13.14051220703125,1.589438796043396,-5.405223846435547,8.030774116516113
1700935788694504400,13.15750439453125,1.5912163257598877,-5.402946949005127,8.031957626342773
1700935788711496700,13.17449658203125,1.5934165716171265,-5.400532245635986,8.033143997192383
1700935788728488700,13.19148876953125,1.5967767238616943,-5.3986005783081055,8.033772468566895
1700935788745481000,13.20848095703125,1.599933385848999,-5.396378040313721,8.034638404846191
1700935788762473200,13.22547314453125,1.602443814277649,-5.39425802230835,8.035562515258789
1700935788779465200,13.24246533203125,1.606108546257019,-5.393586158752441,8.03528118133545
1700935788796457700,13.259457763671875,1.608755350112915,-5.392928123474121,8.035195350646973
1700935788813449700,13.27644970703125,1.6079411506652832,-5.392203330993652,8.035844802856445
1700935788830442000,13.29344189453125,1.6052279472351074,-5.3922953605651855,8.03632640838623
1700935788847434500,13.3104345703125,1.603271245956421,-5.3924760818481445,8.03659439086914
1700935788864435200,13.327435302734376,1.6027262210845947,-5.392093181610107,8.036958694458008
1700935788881418500,13.34441845703125,1.603329062461853,-5.392148017883301,8.036802291870117
1700935788898411000,13.361410888671875,1.603543758392334,-5.392307281494141,8.036654472351074
1700935788915403300,13.3784033203125,1.6032004356384277,-5.393057346343994,8.03621768951416
1700935788932395300,13.395395263671874,1.6022344827651978,-5.39311408996582,8.036371231079102
1700935788949387300,13.41238720703125,1.6000988483428955,-5.393139839172363,8.036782264709473
1700935788966385400,13.429385498046875,1.5978604555130005,-5.395289897918701,8.035782814025879
1700935788983371800,13.446371826171875,1.5965243577957153,-5.400106906890869,8.03281021118164
1700935789000364300,13.4633642578125,1.5950313806533813,-5.407219409942627,8.028324127197266
1700935789017354200,13.480354248046876,1.591732382774353,-5.414283752441406,8.024214744567871
1700935789034351600,13.4973515625,1.5881558656692505,-5.419024467468262,8.021724700927734
1700935789051340800,13.5143408203125,1.5862455368041992,-5.41890287399292,8.022185325622559
1700935789068333300,13.531333251953125,1.5871005058288574,-5.415078639984131,8.024599075317383
1700935789085325000,13.548324951171875,1.588944435119629,-5.410192012786865,8.027528762817383
1700935789102317300,13.5653173828125,1.591683268547058,-5.407732009887695,8.028639793395996
1700935789119309600,13.5823095703125,1.5947701930999756,-5.409707546234131,8.026700019836426
1700935789136301800,13.5993017578125,1.597870111465454,-5.413790225982666,8.023330688476562
1700935789153294000,13.616294189453125,1.5996663570404053,-5.417539119720459,8.020440101623535
1700935789170286800,13.633286865234375,1.601204514503479,-5.419510841369629,8.018800735473633
1700935789187270100,13.650270263671874,1.6021676063537598,-5.419373989105225,8.018701553344727
1700935789204270800,13.667270751953126,1.6029683351516724,-5.417547702789307,8.019776344299316
1700935789221262000,13.684261962890625,1.6044225692749023,-5.416613578796387,8.02011489868164
1700935789238255900,13.701255859375,1.6072709560394287,-5.41694450378418,8.019320487976074
1700935789255247400,13.718247314453125,1.6095815896987915,-5.417101860046387,8.01875114440918
1700935789272239600,13.735239501953124,1.6105884313583374,-5.416926383972168,8.01866626739502
1700935789289232000,13.75223193359375,1.6108202934265137,-5.416612148284912,8.01883316040039
1700935789306224000,13.76922412109375,1.6119017601013184,-5.414716720581055,8.019895553588867
1700935789323216400,13.78621630859375,1.614565372467041,-5.411107063293457,8.021796226501465
1700935789340208600,13.803208740234375,1.6161099672317505,-5.407558441162109,8.023876190185547
1700935789357200600,13.82020068359375,1.6147992610931396,-5.404052257537842,8.026503562927246
1700935789374193000,13.83719287109375,1.6113085746765137,-5.402485370635986,8.02825927734375
1700935789391185400,13.854185302734376,1.6059521436691284,-5.403523921966553,8.028634071350098
1700935789408176600,13.8711767578125,1.5992685556411743,-5.406439781188965,8.028005599975586
1700935789425178600,13.8881787109375,1.5937381982803345,-5.4111857414245605,8.025908470153809
1700935789442165000,13.9051650390625,1.5917741060256958,-5.415439128875732,8.023426055908203
1700935789459153700,13.922153564453126,1.5906529426574707,-5.417568683624268,8.022212028503418
1700935789476146200,13.939146240234376,1.5891139507293701,-5.41666841506958,8.023124694824219
1700935789493138400,13.956138427734375,1.5865575075149536,-5.415031909942627,8.024734497070312
1700935789510130700,13.973130615234375,1.5829802751541138,-5.4133806228637695,8.026557922363281
1700935789527123200,13.990123291015625,1.5782606601715088,-5.4127278327941895,8.027925491333008
1700935789544115200,14.007115234375,1.5730645656585693,-5.4144182205200195,8.027804374694824
1700935789561107200,14.024107177734376,1.5713889598846436,-5.418994426727295,8.025045394897461
1700935789578099200,14.04109912109375,1.5733782052993774,-5.42524528503418,8.020431518554688
1700935789595092200,14.05809228515625,1.5737556219100952,-5.431055068969727,8.016423225402832
1700935789612083700,14.075083740234374,1.5709381103515625,-5.4347100257873535,8.014498710632324
1700935789629076200,14.092076171875,1.5689682960510254,-5.4350361824035645,8.014663696289062
1700935789646068500,14.109068359375,1.5676394701004028,-5.432079315185547,8.016928672790527
1700935789663060700,14.126060791015625,1.5646395683288574,-5.427473545074463,8.020633697509766
1700935789680053200,14.14305322265625,1.5602591037750244,-5.423802852630615,8.023967742919922
1700935789697045200,14.160045166015625,1.5574463605880737,-5.42258882522583,8.025335311889648
1700935789714037500,14.17703759765625,1.5562630891799927,-5.42516565322876,8.023823738098145
1700935789731029500,14.194029541015626,1.5545536279678345,-5.4295573234558105,8.021183967590332
1700935789748021800,14.211021728515625,1.5507980585098267,-5.432616710662842,8.019837379455566
1700935789765014300,14.22801416015625,1.5452735424041748,-5.433337211608887,8.020418167114258
1700935789782006300,14.24500634765625,1.5412626266479492,-5.433182716369629,8.021294593811035
1700935789798998300,14.261998291015624,1.5393749475479126,-5.433288097381592,8.021585464477539
1700935789815990800,14.27899072265625,1.5375449657440186,-5.434327602386475,8.021231651306152
1700935789832981800,14.295981689453125,1.5349067449569702,-5.436859607696533,8.020021438598633
1700935789849976000,14.31297607421875,1.533941388130188,-5.4405012130737305,8.01773452758789
1700935789866957300,14.329957275390624,1.534116506576538,-5.443933963775635,8.01537036895752
1700935789883959600,14.34695947265625,1.5337557792663574,-5.44615364074707,8.013933181762695
1700935789900951800,14.363951904296876,1.5348541736602783,-5.447065830230713,8.013103485107422
1700935789917943800,14.38094384765625,1.5344828367233276,-5.447790145874023,8.01268196105957
1700935789934936000,14.39793603515625,1.5325708389282227,-5.4490156173706055,8.012214660644531
1700935789951928600,14.414928466796875,1.5306081771850586,-5.4503397941589355,8.011688232421875
1700935789968920600,14.431920654296874,1.529342770576477,-5.451858043670654,8.010897636413574
1700935789985913000,14.4489130859375,1.5295565128326416,-5.453237533569336,8.009917259216309
1700935790002905000,14.465905029296875,1.5301240682601929,-5.452380657196045,8.010391235351562
1700935790019897000,14.48289697265625,1.5302468538284302,-5.44912576675415,8.012582778930664
1700935790036889600,14.4998896484375,1.53078031539917,-5.445577621459961,8.014892578125
1700935790053882000,14.516882080078124,1.534087896347046,-5.4421186447143555,8.01661205291748
1700935790070873900,14.533873779296876,1.542185664176941,-5.438783645629883,8.017318725585938
1700935790087858700,14.550858642578126,1.5525226593017578,-5.435174465179443,8.01777458190918
1700935790104858600,14.567858642578125,1.5606449842453003,-5.430572509765625,8.019315719604492
1700935790121851000,14.584850830078125,1.5665173530578613,-5.42564582824707,8.021503448486328
1700935790138843000,14.6018427734375,1.5734633207321167,-5.422456741333008,8.022298812866211
1700935790155835000,14.6188349609375,1.580858826637268,-5.420870304107666,8.021917343139648
1700935790172827400,14.635827392578125,1.5842759609222412,-5.41986608505249,8.02192211151123
1700935790189819600,14.652819580078125,1.583816409111023,-5.418888092041016,8.022673606872559
1700935790206812000,14.66981201171875,1.5815941095352173,-5.416171550750732,8.024945259094238
1700935790223804000,14.686803955078124,1.5786073207855225,-5.410891532897949,8.029094696044922
1700935790240796200,14.703796142578126,1.5758813619613647,-5.403923988342285,8.034321784973145
1700935790257788400,14.720788330078125,1.5738922357559204,-5.3980302810668945,8.03867244720459
1700935790274781000,14.737781005859375,1.572342038154602,-5.3947906494140625,8.041150093078613
1700935790291784400,14.754784423828125,1.5715994834899902,-5.393815994262695,8.041948318481445
1700935790308765200,14.77176513671875,1.5701748132705688,-5.394813537597656,8.041558265686035
1700935790325757400,14.78875732421875,1.5670398473739624,-5.397579193115234,8.040313720703125
1700935790342749700,14.805749755859376,1.5611560344696045,-5.401764392852783,8.038646697998047
1700935790359742000,14.822741943359375,1.5545622110366821,-5.40610933303833,8.037003517150879
1700935790376734000,14.83973388671875,1.5487488508224487,-5.40975284576416,8.035675048828125
1700935790393726200,14.856726318359375,1.5458264350891113,-5.4123969078063965,8.034457206726074
1700935790410718500,14.873718505859374,1.5452417135238647,-5.414769172668457,8.032970428466797
1700935790427710700,14.890710693359376,1.5458934307098389,-5.4172282218933105,8.0311861038208
1700935790444703000,14.907702880859375,1.5455840826034546,-5.4193902015686035,8.029787063598633
1700935790461695200,14.9246953125,1.544494390487671,-5.420729160308838,8.029093742370605
1700935790478687500,14.9416875,1.5440614223480225,-5.421069145202637,8.028946876525879
1700935790495679500,14.958679443359374,1.5456531047821045,-5.421041488647461,8.02865982055664
1700935790512672000,14.975672119140626,1.5492725372314453,-5.421257495880127,8.027814865112305
1700935790529663700,14.992663818359375,1.5545791387557983,-5.422231674194336,8.026131629943848
1700935790546656300,15.00965625,1.5609700679779053,-5.423524379730225,8.024017333984375
1700935790563648500,15.0266484375,1.5672210454940796,-5.4233078956604,8.022948265075684
1700935790580640500,15.043640625,1.5709024667739868,-5.421598434448242,8.023381233215332
1700935790597633000,15.060633056640626,1.5723180770874023,-5.419754505157471,8.024351119995117
1700935790614624800,15.077624755859375,1.5752946138381958,-5.418524742126465,8.02459716796875
1700935790631617800,15.09461767578125,1.5800285339355469,-5.416940212249756,8.024736404418945
1700935790648609500,15.111609619140625,1.584998369216919,-5.415491580963135,8.024733543395996
1700935790665601500,15.1286015625,1.58866286277771,-5.4136152267456055,8.025276184082031
1700935790682594000,15.145593994140626,1.589775562286377,-5.409377098083496,8.027913093566895
1700935790699596500,15.162596435546876,1.589257836341858,-5.4051361083984375,8.030871391296387
1700935790716578300,15.179578369140625,1.5889946222305298,-5.403981685638428,8.031699180603027
1700935790733570600,15.196570556640625,1.5883184671401978,-5.404723167419434,8.031333923339844
1700935790750563300,15.213563232421874,1.5855603218078613,-5.406820774078369,8.030467987060547
1700935790767553300,15.23055322265625,1.5830159187316895,-5.410025596618652,8.02881145477295
1700935790784549400,15.24754931640625,1.5829325914382935,-5.411293029785156,8.027972221374512
1700935790801531100,15.26453125,1.5826679468154907,-5.4080424308776855,8.030214309692383
1700935790818531800,15.28153173828125,1.580999732017517,-5.402589321136475,8.034211158752441
1700935790835524000,15.298524169921874,1.579113483428955,-5.3984375,8.037373542785645
1700935790852516400,15.315516357421876,1.5779484510421753,-5.397061347961426,8.038527488708496
1700935790869508400,15.33250830078125,1.5780974626541138,-5.3990373611450195,8.037171363830566
1700935790886500900,15.3495009765625,1.5788170099258423,-5.402973175048828,8.034384727478027
1700935790903482600,15.366482666015624,1.5796700716018677,-5.406107425689697,8.032108306884766
1700935790920484600,15.383484619140624,1.5798258781433105,-5.407611846923828,8.031063079833984
1700935790937478000,15.400477783203126,1.5794391632080078,-5.409196853637695,8.030072212219238
1700935790954470000,15.417469970703126,1.5800554752349854,-5.410651683807373,8.028972625732422
1700935790971451100,15.434451171875,1.5812891721725464,-5.4115824699401855,8.028101921081543
1700935790988454100,15.4514541015625,1.582302212715149,-5.412614345550537,8.027206420898438
1700935791005443800,15.46844384765625,1.5837640762329102,-5.413427352905273,8.026368141174316
1700935791022441000,15.48544091796875,1.5855273008346558,-5.4139323234558105,8.025680541992188
1700935791039420200,15.502420166015625,1.5868803262710571,-5.414220333099365,8.025219917297363
1700935791056423000,15.5194228515625,1.587490439414978,-5.414453029632568,8.024941444396973
1700935791073415200,15.536415283203125,1.5897852182388306,-5.414565563201904,8.024409294128418
1700935791090407400,15.553407470703124,1.593745231628418,-5.413755893707275,8.024170875549316
1700935791107399700,15.570399658203126,1.5967881679534912,-5.412309169769287,8.024540901184082
1700935791124389600,15.5873896484375,1.596875786781311,-5.411062240600586,8.025367736816406
1700935791141386800,15.60438671875,1.595800518989563,-5.4104743003845215,8.02597713470459
1700935791158377500,15.62137744140625,1.595475673675537,-5.4101243019104,8.026277542114258
1700935791175363300,15.63836328125,1.594967007637024,-5.40910530090332,8.027066230773926
1700935791192365000,15.655364990234375,1.5945817232131958,-5.4073615074157715,8.028315544128418
1700935791209353200,15.672353271484376,1.5953131914138794,-5.404715538024902,8.029952049255371
1700935791226345500,15.689345458984375,1.5974000692367554,-5.401495933532715,8.031704902648926
1700935791243335000,15.7063349609375,1.5985338687896729,-5.398107528686523,8.033754348754883
1700935791260332300,15.723332275390625,1.5975061655044556,-5.396435737609863,8.035082817077637
1700935791277321700,15.74032177734375,1.5961177349090576,-5.398108959197998,8.034235000610352
1700935791294316000,15.75731591796875,1.5949442386627197,-5.403694152832031,8.030714988708496
1700935791311304400,15.774304443359375,1.5918381214141846,-5.410703659057617,8.026607513427734
1700935791328298500,15.791298583984375,1.5884710550308228,-5.415920734405518,8.023755073547363
1700935791345291000,15.808291015625,1.5881775617599487,-5.41741418838501,8.022808074951172
1700935791362283300,15.825283203125,1.590160608291626,-5.414240837097168,8.024557113647461
1700935791379275300,15.842275146484376,1.5913572311401367,-5.4085774421691895,8.02813720703125
1700935791396267500,15.859267578125,1.5897101163864136,-5.404102325439453,8.031476020812988
1700935791413260000,15.876260009765625,1.587717890739441,-5.403177738189697,8.032493591308594
1700935791430252000,15.893251953125,1.5875433683395386,-5.404747486114502,8.031469345092773
1700935791447244300,15.910244384765624,1.5880722999572754,-5.406462669372559,8.030210494995117
1700935791464236500,15.927236572265626,1.5881108045578003,-5.407105922698975,8.029769897460938
1700935791481228500,15.944228515625,1.5882929563522339,-5.406213760375977,8.030336380004883
1700935791498220800,15.961220703125,1.5889136791229248,-5.40450382232666,8.031364440917969
1700935791515213300,15.97821337890625,1.58977472782135,-5.403136253356934,8.032113075256348
1700935791532205600,15.99520556640625,1.5907049179077148,-5.40293025970459,8.03207015991211
1700935791549199600,16.01219970703125,1.5916001796722412,-5.402374744415283,8.032264709472656
1700935791566178800,16.0291787109375,1.5926005840301514,-5.401729583740234,8.032500267028809
1700935791583182000,16.04618212890625,1.5941168069839478,-5.400505065917969,8.0330228805542
1700935791600178000,16.063177978515625,1.5959001779556274,-5.3984808921813965,8.034028053283691
1700935791617163300,16.080163330078125,1.59750235080719,-5.396515846252441,8.035032272338867
1700935791634158800,16.097158935546876,1.5984344482421875,-5.395623207092285,8.035447120666504
1700935791651151000,16.114151123046874,1.599439263343811,-5.394588947296143,8.03593921661377
1700935791668143000,16.13114306640625,1.6012340784072876,-5.393324375152588,8.036431312561035
1700935791685124900,16.148124755859374,1.6040232181549072,-5.392868995666504,8.03618049621582
1700935791702127900,16.1651279296875,1.6067739725112915,-5.393266201019287,8.035364151000977
1700935791719120000,16.182119873046876,1.6089274883270264,-5.394503593444824,8.034102439880371
1700935791736112400,16.1991123046875,1.6105451583862305,-5.396794319152832,8.032238960266113
1700935791753104400,16.2161044921875,1.6120833158493042,-5.400816440582275,8.029226303100586
1700935791770097000,16.233096923828125,1.6138781309127808,-5.404195785522461,8.026592254638672
1700935791787089200,16.250089111328126,1.6144697666168213,-5.405184268951416,8.02580738067627
1700935791804081200,16.2670810546875,1.612938404083252,-5.405449867248535,8.0259370803833
1700935791821084000,16.284083984375,1.611891746520996,-5.407629013061523,8.024678230285645
1700935791838065400,16.3010654296875,1.6117266416549683,-5.41162633895874,8.022018432617188
1700935791855047700,16.318047607421875,1.6099233627319336,-5.417937278747559,8.018117904663086
1700935791872050000,16.3350498046875,1.6061875820159912,-5.4259467124938965,8.013449668884277
1700935791889042200,16.352042236328124,1.6047967672348022,-5.432119846343994,8.009544372558594
1700935791906034400,16.369034423828126,1.6059179306030273,-5.4332709312438965,8.008538246154785
1700935791923027000,16.38602685546875,1.607422113418579,-5.429497718811035,8.010796546936035
1700935791940019200,16.403019287109377,1.6063731908798218,-5.424110412597656,8.014657020568848
1700935791957008400,16.42000830078125,1.603231430053711,-5.419714450836182,8.018258094787598
1700935791974006000,16.437006103515625,1.6000698804855347,-5.418590068817139,8.01965045928955
1700935791990995700,16.45399560546875,1.5977762937545776,-5.420111656188965,8.019079208374023
1700935792007983400,16.4709833984375,1.5963443517684937,-5.422630786895752,8.017661094665527
1700935792024980200,16.487980224609377,1.5965209007263184,-5.423884391784668,8.016778945922852
1700935792041969000,16.504968994140626,1.598160743713379,-5.423600196838379,8.016642570495605
1700935792058968300,16.52196826171875,1.6013057231903076,-5.422146320343018,8.017001152038574
1700935792075957500,16.53895751953125,1.603973150253296,-5.420192718505859,8.01778793334961
1700935792092949000,16.555948974609375,1.6042146682739258,-5.4181132316589355,8.019142150878906
1700935792109938700,16.572938720703124,1.6022906303405762,-5.4166364669799805,8.020524978637695
1700935792126936300,16.589936279296875,1.6006735563278198,-5.41636848449707,8.021031379699707
1700935792143925800,16.60692578125,1.6007627248764038,-5.416744232177734,8.020758628845215
1700935792160918000,16.62391796875,1.6019500494003296,-5.416726112365723,8.02053165435791
1700935792177910300,16.64091015625,1.6025201082229614,-5.414884090423584,8.021663665771484
1700935792194902800,16.65790283203125,1.6016199588775635,-5.411800861358643,8.023923873901367
1700935792211894800,16.674894775390626,1.6005563735961914,-5.409396171569824,8.025758743286133
1700935792228871700,16.69187158203125,1.599198579788208,-5.408006191253662,8.026963233947754
1700935792245868800,16.708868896484375,1.5974310636520386,-5.407168865203857,8.02787971496582
1700935792262872000,16.7258720703125,1.5949795246124268,-5.408013820648193,8.027798652648926
1700935792279863600,16.742863525390625,1.5924115180969238,-5.411125659942627,8.026209831237793
1700935792296855800,16.759855712890626,1.589174509048462,-5.414295196533203,8.024714469909668
1700935792313848000,16.77684814453125,1.5850200653076172,-5.414891242980957,8.025135040283203
1700935792330840300,16.79384033203125,1.5811331272125244,-5.412561416625977,8.027471542358398
1700935792347832800,16.810832763671876,1.579091191291809,-5.409644603729248,8.029838562011719
1700935792364824800,16.827824951171873,1.5784565210342407,-5.4085822105407715,8.030681610107422
1700935792381817300,16.8448173828125,1.5782361030578613,-5.4101691246032715,8.029653549194336
1700935792398809300,16.861809326171876,1.5768651962280273,-5.414759159088135,8.026830673217773
1700935792415801600,16.878801513671874,1.5752133131027222,-5.420677185058594,8.023158073425293
1700935792432794000,16.895794189453124,1.573948621749878,-5.42478084564209,8.020631790161133
1700935792449786000,16.9127861328125,1.5737521648406982,-5.4243388175964355,8.020970344543457
1700935792466769700,16.929769775390625,1.574167251586914,-5.4188313484191895,8.024609565734863
1700935792483770400,16.946770263671876,1.5738290548324585,-5.410215854644775,8.030488967895508
1700935792500756200,16.963756103515625,1.5732218027114868,-5.4033308029174805,8.035242080688477
1700935792517755000,16.9807548828125,1.5724706649780273,-5.40053653717041,8.037267684936523
1700935792534747100,16.9977470703125,1.571286678314209,-5.400376796722412,8.037604331970215
1700935792551736800,17.01473681640625,1.568243145942688,-5.401480674743652,8.037457466125488
1700935792568734500,17.031734375,1.5643422603607178,-5.403001308441162,8.037196159362793
1700935792585723600,17.0487236328125,1.5603348016738892,-5.40457820892334,8.036913871765137
1700935792602716000,17.0657158203125,1.5562928915023804,-5.405960559844971,8.03676700592041
1700935792619708200,17.082708251953125,1.5521949529647827,-5.407876968383789,8.036270141601562
1700935792636700700,17.09970068359375,1.5489046573638916,-5.409683704376221,8.035691261291504
1700935792653693000,17.11669287109375,1.545375943183899,-5.409734725952148,8.036338806152344
1700935792670685200,17.133685302734374,1.5413763523101807,-5.409543037414551,8.037232398986816
1700935792687666700,17.150666748046874,1.538092017173767,-5.410914421081543,8.036940574645996
1700935792704669700,17.167669677734374,1.533860683441162,-5.413990020751953,8.035676002502441
1700935792721661700,17.18466162109375,1.5282365083694458,-5.416962146759033,8.034745216369629
1700935792738654000,17.201654052734376,1.5215572118759155,-5.418642997741699,8.034879684448242
1700935792755646200,17.218646240234374,1.5143098831176758,-5.418598175048828,8.03627872467041
1700935792772628200,17.235628173828125,1.5069681406021118,-5.417143821716309,8.038640022277832
1700935792789630700,17.252630615234374,1.499456524848938,-5.414734363555908,8.041665077209473
1700935792806623000,17.269623046875,1.4916216135025024,-5.413288116455078,8.044095993041992
1700935792823612400,17.2866123046875,1.482901930809021,-5.413572788238525,8.045517921447754
1700935792840610300,17.3036103515625,1.4740731716156006,-5.4139933586120605,8.046857833862305
1700935792857599500,17.320599609375,1.467468500137329,-5.413961887359619,8.048086166381836
1700935792874592000,17.337592041015625,1.4642902612686157,-5.411597728729248,8.050252914428711
1700935792891584000,17.354583984375,1.4621703624725342,-5.406670093536377,8.053947448730469
1700935792908576300,17.371576171875,1.4596115350723267,-5.4019575119018555,8.057574272155762
1700935792925568500,17.388568603515626,1.4595990180969238,-5.400269985198975,8.058708190917969
1700935792942556400,17.405556396484375,1.4622948169708252,-5.402151584625244,8.056958198547363
1700935792959557600,17.4225576171875,1.463143229484558,-5.405490875244141,8.05456256866455
1700935792976545300,17.439545166015623,1.460932731628418,-5.408632755279541,8.052857398986816
1700935792993537500,17.45653759765625,1.4598468542099,-5.408972263336182,8.052825927734375
1700935793010529500,17.473529541015626,1.4609816074371338,-5.404730319976807,8.05546760559082
1700935793027522000,17.49052197265625,1.4634613990783691,-5.397641181945801,8.059767723083496
1700935793044514600,17.5075146484375,1.4665744304656982,-5.391572952270508,8.063263893127441
1700935793061506600,17.524506591796875,1.4702894687652588,-5.3881707191467285,8.064861297607422
1700935793078498800,17.541498779296877,1.4741731882095337,-5.387701988220215,8.06446647644043
1700935793095502300,17.55850244140625,1.4771515130996704,-5.389352798461914,8.062817573547363
1700935793112472800,17.575472900390626,1.481013536453247,-5.390993118286133,8.06101131439209
1700935793129464800,17.59246484375,1.4859777688980103,-5.390665054321289,8.060317039489746
1700935793146467600,17.609467529296875,1.4911473989486694,-5.388078689575195,8.061089515686035
1700935793163456300,17.626456298828124,1.4946489334106445,-5.382959842681885,8.063861846923828
1700935793180455700,17.64345556640625,1.4976930618286133,-5.376540184020996,8.067578315734863
1700935793197433900,17.660433837890626,1.4991247653961182,-5.371547222137451,8.07064151763916
1700935793214436600,17.6774365234375,1.4971345663070679,-5.36926794052124,8.072526931762695
1700935793231426300,17.69442626953125,1.4921363592147827,-5.369024276733398,8.073615074157715
1700935793248423700,17.711423583984374,1.4879144430160522,-5.371374607086182,8.07282829284668
1700935793265413600,17.72841357421875,1.4869410991668701,-5.374067306518555,8.071216583251953
1700935793282405400,17.7454052734375,1.48849618434906,-5.375330448150635,8.070088386535645
1700935793299398000,17.76239794921875,1.4896072149276733,-5.375312328338623,8.069896697998047
1700935793316390100,17.77939013671875,1.4905000925064087,-5.375044345855713,8.069907188415527
1700935793333382400,17.79638232421875,1.491082787513733,-5.374472141265869,8.070181846618652
1700935793350375000,17.813375,1.4909892082214355,-5.3744940757751465,8.070182800292969
1700935793367367000,17.830366943359376,1.4897890090942383,-5.376295566558838,8.069207191467285
1700935793384359200,17.847359130859374,1.488964557647705,-5.379605293273926,8.06715202331543
1700935793401351200,17.86435107421875,1.4880892038345337,-5.382943630218506,8.065088272094727
1700935793418343400,17.881343505859373,1.4869996309280396,-5.384815216064453,8.06403923034668
1700935793435335700,17.898335693359375,1.4856293201446533,-5.384544849395752,8.064472198486328
1700935793452328200,17.915328125,1.486293911933899,-5.384032249450684,8.064691543579102
1700935793469320200,17.9323203125,1.490683674812317,-5.3852620124816895,8.063058853149414
1700935793486312400,17.9493125,1.4961098432540894,-5.388864994049072,8.059648513793945
1700935793503304700,17.9663046875,1.500149130821228,-5.39382791519165,8.055574417114258
1700935793520297000,17.983296875,1.5028976202011108,-5.397060871124268,8.052894592285156
1700935793537289200,18.000289306640624,1.5041059255599976,-5.395047187805176,8.054021835327148
1700935793554281500,18.017281494140626,1.5044643878936768,-5.387844562530518,8.058775901794434
1700935793571273500,18.0342734375,1.5055251121520996,-5.380462646484375,8.063506126403809
1700935793588266000,18.051265869140625,1.5070292949676514,-5.376933574676514,8.06557846069336
1700935793605258200,18.06825830078125,1.5072622299194336,-5.376527309417725,8.06580638885498
1700935793622250200,18.085250244140624,1.506677269935608,-5.37660026550293,8.06586742401123
1700935793639242800,18.10224267578125,1.5080580711364746,-5.375725746154785,8.066192626953125
1700935793656234800,18.11923486328125,1.511825680732727,-5.373889446258545,8.066707611083984
1700935793673216500,18.136216552734375,1.5142619609832764,-5.371129035949707,8.068092346191406
1700935793690216700,18.153216796875,1.5129059553146362,-5.368231296539307,8.070276260375977
1700935793707214300,18.17021435546875,1.5104048252105713,-5.366197109222412,8.072097778320312
1700935793724204000,18.1872041015625,1.5101443529129028,-5.365564346313477,8.072566032409668
1700935793741196000,18.204196044921876,1.5105311870574951,-5.366306781768799,8.07199764251709
1700935793758188500,18.2211884765625,1.5104645490646362,-5.3685126304626465,8.070545196533203
1700935793775180300,18.23818017578125,1.5103460550308228,-5.3715105056762695,8.068572044372559
1700935793792180200,18.25518017578125,1.5105756521224976,-5.374386787414551,8.06661319732666
1700935793809165300,18.272165283203126,1.5087589025497437,-5.37686824798584,8.065299034118652
1700935793826157000,18.289156982421876,1.505136251449585,-5.379661560058594,8.064112663269043
1700935793843149600,18.306149658203125,1.5025417804718018,-5.3825225830078125,8.062688827514648
1700935793860141800,18.323141845703127,1.5032589435577393,-5.383835792541504,8.061676979064941
1700935793877133800,18.3401337890625,1.5055323839187622,-5.384453773498535,8.06084156036377
1700935793894126300,18.357126220703126,1.5079835653305054,-5.384719371795654,8.060205459594727
1700935793911118300,18.374118408203124,1.5102788209915161,-5.383759021759033,8.060417175292969
1700935793928100000,18.39110009765625,1.5120084285736084,-5.382339000701904,8.061042785644531
1700935793945103400,18.408103271484375,1.5140517950057983,-5.3805437088012695,8.061853408813477
1700935793962095400,18.425095458984377,1.5173910856246948,-5.378413677215576,8.062649726867676
1700935793979087400,18.44208740234375,1.5203617811203003,-5.375936031341553,8.063742637634277
1700935793996066300,18.45906640625,1.5232994556427002,-5.374139785766602,8.064383506774902
1700935794013075000,18.476074951171874,1.5273933410644531,-5.374136447906494,8.063611030578613
1700935794030064000,18.493064208984375,1.5323702096939087,-5.375566005706787,8.061715126037598
1700935794047056600,18.510056640625,1.5358644723892212,-5.377010345458984,8.06008529663086
1700935794064048400,18.52704833984375,1.5378295183181763,-5.3762736320495605,8.06020450592041
1700935794081041000,18.544041015625,1.539492130279541,-5.372438907623291,8.0624418258667
1700935794098033200,18.561033203125,1.5414743423461914,-5.365791320800781,8.066488265991211
1700935794115023400,18.5780234375,1.5425437688827515,-5.358993053436279,8.070801734924316
1700935794132019700,18.595019775390625,1.541613221168518,-5.354873180389404,8.073714256286621
1700935794149009700,18.612009765625,1.5400134325027466,-5.3532209396362305,8.075116157531738
1700935794166002400,18.62900244140625,1.539279580116272,-5.353170394897461,8.075287818908691
1700935794182994400,18.645994384765626,1.5384539365768433,-5.353372097015381,8.07531452178955
1700935794199986700,18.662986572265623,1.535965919494629,-5.35296630859375,8.076057434082031
1700935794216978700,18.679978759765625,1.5332882404327393,-5.352380275726318,8.07695198059082
1700935794233971200,18.69697119140625,1.5316039323806763,-5.351907730102539,8.077585220336914
1700935794250962400,18.71396240234375,1.5308048725128174,-5.3512139320373535,8.07819938659668
1700935794267946200,18.7309462890625,1.5302406549453735,-5.351145267486572,8.078349113464355
1700935794284947700,18.74794775390625,1.529900074005127,-5.351734161376953,8.078023910522461
1700935794301940000,18.76493994140625,1.5295675992965698,-5.351919651031494,8.077963829040527
1700935794318935000,18.78193505859375,1.5287507772445679,-5.352070331573486,8.078018188476562
1700935794335921700,18.798921630859375,1.5273141860961914,-5.353734493255615,8.077187538146973
1700935794352916700,18.815916748046874,1.5274384021759033,-5.356290817260742,8.075470924377441
1700935794369909000,18.832908935546875,1.5288136005401611,-5.358147621154785,8.073976516723633
1700935794386903800,18.84990380859375,1.5294115543365479,-5.358320713043213,8.073747634887695
1700935794403891500,18.866891357421874,1.5296114683151245,-5.357181072235107,8.074466705322266
1700935794420885800,18.8838857421875,1.5306605100631714,-5.354988098144531,8.075721740722656
1700935794437877800,18.900877685546874,1.5322073698043823,-5.3519287109375,8.0774564743042
1700935794454870300,18.917870361328124,1.5325376987457275,-5.349058151245117,8.079297065734863
1700935794471862500,18.934862548828125,1.5304316282272339,-5.346610069274902,8.081315040588379
1700935794488854800,18.951854736328126,1.5280611515045166,-5.344252586364746,8.08332347869873
1700935794505847000,18.968846923828124,1.527856707572937,-5.342010498046875,8.084842681884766
1700935794522839300,18.98583935546875,1.52816903591156,-5.339428901672363,8.086488723754883
1700935794539831600,19.00283154296875,1.5296056270599365,-5.337550163269043,8.087457656860352
1700935794556823600,19.019823486328125,1.5312919616699219,-5.3369245529174805,8.087553024291992
1700935794573815800,19.03681591796875,1.5316898822784424,-5.33798885345459,8.086774826049805
1700935794590808000,19.05380810546875,1.5302643775939941,-5.340824127197266,8.085172653198242
1700935794607800600,19.070800537109374,1.529279112815857,-5.341736793518066,8.084756851196289
1700935794624793000,19.08779296875,1.53007173538208,-5.3393659591674805,8.086170196533203
1700935794641785000,19.10478515625,1.530685305595398,-5.334683418273926,8.089147567749023
1700935794658777300,19.12177734375,1.530874490737915,-5.330475330352783,8.091883659362793
1700935794675769300,19.138769287109376,1.530511736869812,-5.329401016235352,8.092657089233398
1700935794692761600,19.15576171875,1.5317273139953613,-5.331718444824219,8.090903282165527
1700935794709744400,19.172744384765625,1.5328967571258545,-5.335662364959717,8.088079452514648
1700935794726735400,19.1897353515625,1.5342320203781128,-5.339303493499756,8.085423469543457
1700935794743729400,19.2067294921875,1.5359203815460205,-5.341889381408691,8.083395957946777
1700935794760733400,19.2237333984375,1.537541151046753,-5.343095302581787,8.082290649414062
1700935794777723000,19.240722900390626,1.5370638370513916,-5.342629432678223,8.08269214630127
1700935794794715400,19.25771533203125,1.5357654094696045,-5.3426127433776855,8.08294677734375
1700935794811707400,19.274707275390625,1.5349204540252686,-5.344204425811768,8.082054138183594
1700935794828699600,19.29169970703125,1.534838080406189,-5.346214294433594,8.080740928649902
1700935794845681400,19.308681396484374,1.5343419313430786,-5.347445011138916,8.080020904541016
1700935794862680800,19.325680908203125,1.5326777696609497,-5.347351551055908,8.080398559570312
1700935794879665700,19.342665771484373,1.5297772884368896,-5.345516204833984,8.082162857055664
1700935794896660500,19.359660400390624,1.5275152921676636,-5.342589378356934,8.084525108337402
1700935794913661000,19.376660888671875,1.5268504619598389,-5.3389363288879395,8.087065696716309
1700935794930653400,19.3936533203125,1.5258344411849976,-5.335347652435303,8.089622497558594
1700935794947645400,19.4106455078125,1.5245975255966187,-5.331883430480957,8.092140197753906
1700935794964637700,19.4276376953125,1.5237841606140137,-5.328531742095947,8.094500541687012
1700935794981630200,19.444630126953125,1.5242416858673096,-5.325221061706543,8.096593856811523
1700935794998622200,19.461622314453123,1.5261610746383667,-5.321140766143799,8.098916053771973
1700935795015614500,19.478614501953125,1.5289759635925293,-5.316523551940918,8.101414680480957
1700935795032607000,19.49560693359375,1.5325734615325928,-5.311953067779541,8.103734016418457
1700935795049599000,19.512598876953124,1.5354183912277222,-5.307399749755859,8.106178283691406
1700935795066591200,19.52959130859375,1.5373190641403198,-5.30363130569458,8.108285903930664
1700935795083583500,19.54658349609375,1.5389021635055542,-5.299742698669434,8.110526084899902
1700935795100575500,19.563575439453125,1.5397859811782837,-5.296583652496338,8.112421035766602
1700935795117567700,19.580567626953126,1.541202187538147,-5.2956013679504395,8.11279296875
1700935795134560000,19.59756005859375,1.543312430381775,-5.2969279289245605,8.111526489257812
1700935795151552500,19.614552490234374,1.542535662651062,-5.299073219299316,8.110270500183105
1700935795168544800,19.631544677734375,1.5379464626312256,-5.301393985748291,8.109626770019531
1700935795185534500,19.648534423828124,1.5343226194381714,-5.302779197692871,8.109406471252441
1700935795202531600,19.665531494140627,1.5319404602050781,-5.300584316253662,8.111292839050293
1700935795219521300,19.682521240234376,1.530126690864563,-5.296485424041748,8.114313125610352
1700935795236501200,19.699501220703127,1.5276851654052734,-5.294795036315918,8.115876197814941
1700935795253505800,19.716505859375,1.5249539613723755,-5.296578884124756,8.115226745605469
1700935795270498300,19.733498291015625,1.521500587463379,-5.301309108734131,8.112784385681152
1700935795287490300,19.750490234375,1.5169482231140137,-5.308060646057129,8.109223365783691
1700935795304482800,19.76748291015625,1.5103557109832764,-5.3142476081848145,8.106398582458496
1700935795321460200,19.784460205078126,1.5034565925598145,-5.31918478012085,8.10444450378418
1700935795338467000,19.801467041015623,1.4977166652679443,-5.322580814361572,8.103276252746582
1700935795355459300,19.818459228515625,1.494725227355957,-5.324333190917969,8.102677345275879
1700935795372451600,19.83545166015625,1.4926141500473022,-5.325258255004883,8.102458953857422
1700935795389443800,19.85244384765625,1.48984694480896,-5.325201988220215,8.103006362915039
1700935795406425300,19.86942529296875,1.4867078065872192,-5.324299335479736,8.104175567626953
1700935795423428400,19.886428466796875,1.482850432395935,-5.322331428527832,8.106173515319824
1700935795440420900,19.9034208984375,1.4785720109939575,-5.319991111755371,8.108490943908691
1700935795457412600,19.92041259765625,1.4747391939163208,-5.318155765533447,8.110393524169922
1700935795474405000,19.937405029296876,1.4708192348480225,-5.317272186279297,8.111685752868652
1700935795491400700,19.954400634765626,1.4661329984664917,-5.316005706787109,8.113363265991211
1700935795508386600,19.971386474609375,1.4617958068847656,-5.314155578613281,8.1153564453125
1700935795525379300,19.98837939453125,1.4595388174057007,-5.311944007873535,8.117210388183594
1700935795542376400,20.00537646484375,1.4575176239013672,-5.309084892272949,8.11944580078125
1700935795559366400,20.022366455078124,1.4543911218643188,-5.305891036987305,8.122091293334961
1700935795576357600,20.039357666015626,1.4522472620010376,-5.3030009269714355,8.12436294555664
1700935795593351700,20.0563515625,1.4516581296920776,-5.300097942352295,8.126362800598145
1700935795610343000,20.073343017578125,1.4505717754364014,-5.296931266784668,8.128622055053711
1700935795627335400,20.09033544921875,1.447623610496521,-5.294366836547852,8.130817413330078
1700935795644323300,20.1073232421875,1.4452192783355713,-5.2924299240112305,8.132506370544434
1700935795661314000,20.12431396484375,1.4451359510421753,-5.290977954864502,8.133465766906738
1700935795678312200,20.141312255859376,1.4446090459823608,-5.291579723358154,8.133166313171387
1700935795695304400,20.158304443359373,1.4428566694259644,-5.295186519622803,8.13113021850586
1700935795712296700,20.175296630859375,1.4402494430541992,-5.301621437072754,8.127398490905762
1700935795729288700,20.192288818359376,1.437508463859558,-5.309342384338379,8.122843742370605
1700935795746281000,20.209281005859374,1.4352558851242065,-5.316584587097168,8.118502616882324
1700935795763263000,20.226262939453125,1.4342585802078247,-5.321564674377441,8.115415573120117
1700935795780265700,20.243265625,1.4348056316375732,-5.322463512420654,8.114728927612305
1700935795797258000,20.260258056640627,1.4361817836761475,-5.320864677429199,8.115533828735352
1700935795814252300,20.277252197265625,1.4372833967208862,-5.318918704986572,8.11661434173584
1700935795831240200,20.294240234375,1.4385039806365967,-5.318965911865234,8.11636734008789
1700935795848225000,20.31122509765625,1.439713478088379,-5.321574687957764,8.114444732666016
1700935795865226800,20.328226806640625,1.4390196800231934,-5.325351238250732,8.112088203430176
1700935795882219000,20.345218994140627,1.4369231462478638,-5.329377174377441,8.10981559753418
1700935795899211300,20.362211181640625,1.4360922574996948,-5.332391738891602,8.107980728149414
1700935795916203500,20.37920361328125,1.4368009567260742,-5.333582878112793,8.107072830200195
1700935795933195800,20.39619580078125,1.4383221864700317,-5.332786560058594,8.10732650756836
1700935795950188300,20.413188232421874,1.4393813610076904,-5.329953193664551,8.109002113342285
1700935795967180500,20.4301806640625,1.4381738901138306,-5.325041770935059,8.112442016601562
1700935795984172500,20.447172607421876,1.433855414390564,-5.3195390701293945,8.116814613342285
1700935796001155300,20.4641552734375,1.4326196908950806,-5.315980911254883,8.119363784790039
1700935796018156800,20.48115673828125,1.437597393989563,-5.315557956695557,8.11876106262207
1700935796035149300,20.4981494140625,1.4448177814483643,-5.315474033355713,8.117533683776855
1700935796052142000,20.51514208984375,1.448980450630188,-5.314742565155029,8.117271423339844
1700935796069134000,20.532134033203125,1.4492449760437012,-5.3128132820129395,8.118487358093262
1700935796086126000,20.5491259765625,1.4481077194213867,-5.309476852416992,8.120871543884277
1700935796103118300,20.566118408203124,1.4482890367507935,-5.305328845977783,8.123549461364746
1700935796120110600,20.583110595703126,1.4511029720306396,-5.301377296447754,8.125626564025879
1700935796137102800,20.600102783203123,1.454499363899231,-5.298654079437256,8.12679672241211
1700935796154095000,20.61709521484375,1.4577258825302124,-5.297138690948486,8.127205848693848
1700935796171087600,20.634087646484375,1.4631417989730835,-5.297520160675049,8.125985145568848
1700935796188079900,20.651079833984376,1.4693152904510498,-5.298418998718262,8.124284744262695
1700935796205069300,20.6680693359375,1.4718866348266602,-5.298331260681152,8.123875617980957
1700935796222056400,20.685056396484374,1.4704400300979614,-5.297317981719971,8.124797821044922
1700935796239056100,20.70205615234375,1.4682376384735107,-5.295381546020508,8.126458168029785
1700935796256048400,20.71904833984375,1.4656932353973389,-5.292366027832031,8.12888240814209
1700935796273038600,20.73603857421875,1.4624053239822388,-5.291207790374756,8.130228996276855
1700935796290035500,20.753035400390626,1.4608075618743896,-5.2934346199035645,8.12906551361084
1700935796307025400,20.770025390625,1.461910367012024,-5.299067497253418,8.12519645690918
1700935796324017700,20.787017578125,1.4628843069076538,-5.306107997894287,8.120424270629883
1700935796341010200,20.80401025390625,1.4612962007522583,-5.3114471435546875,8.117220878601074
1700935796358002200,20.821002197265624,1.4580930471420288,-5.312177658081055,8.117318153381348
1700935796374994200,20.837994140625,1.4525378942489624,-5.308084011077881,8.120991706848145
1700935796391987000,20.854987060546875,1.4480489492416382,-5.303572654724121,8.124738693237305
1700935796408979000,20.87197900390625,1.4474384784698486,-5.302023410797119,8.125859260559082
1700935796425971500,20.888971435546875,1.449077844619751,-5.304200649261475,8.1241455078125
1700935796442963500,20.90596337890625,1.4522738456726074,-5.308777809143066,8.120585441589355
1700935796459955700,20.922955810546874,1.4553966522216797,-5.312562465667725,8.117548942565918
1700935796476948000,20.939947998046875,1.4562625885009766,-5.313567638397217,8.11673641204834
1700935796493938000,20.95693798828125,1.4562304019927979,-5.313690662384033,8.11666202545166
1700935796510934800,20.973934814453123,1.4561190605163574,-5.313809394836426,8.11660385131836
1700935796527924700,20.9909248046875,1.456980586051941,-5.3142170906066895,8.116181373596191
1700935796544917000,21.0079169921875,1.4584897756576538,-5.31564474105835,8.11497688293457
1700935796561909200,21.0249091796875,1.4608818292617798,-5.317601203918457,8.113263130187988
1700935796578901500,21.041901611328125,1.4638420343399048,-5.318688869476318,8.112016677856445
1700935796595893800,21.058893798828127,1.4668755531311035,-5.317875862121582,8.1120023727417
1700935796612886000,21.075885986328124,1.4693728685379028,-5.316612243652344,8.11237907409668
1700935796629878300,21.092878173828126,1.470984697341919,-5.315314769744873,8.112936973571777
1700935796646870500,21.10987060546875,1.4715241193771362,-5.313662052154541,8.113921165466309
1700935796663852000,21.12685205078125,1.471447467803955,-5.31277322769165,8.114518165588379
1700935796680855000,21.14385498046875,1.4736031293869019,-5.3128814697265625,8.114056587219238
1700935796697847300,21.160847412109376,1.4768725633621216,-5.312733173370361,8.113558769226074
1700935796714839600,21.177839599609374,1.4785826206207275,-5.311332702636719,8.114164352416992
1700935796731831800,21.194831787109376,1.4789974689483643,-5.3105621337890625,8.114592552185059
1700935796748824000,21.211823974609374,1.4800441265106201,-5.309518814086914,8.115083694458008
1700935796765816600,21.228816650390623,1.4825531244277954,-5.307837009429932,8.115727424621582
1700935796782808600,21.24580859375,1.4854872226715088,-5.306663990020752,8.115957260131836
1700935796799801000,21.262801025390626,1.488079309463501,-5.30609130859375,8.115857124328613
1700935796816793000,21.27979296875,1.4913461208343506,-5.305750370025635,8.115479469299316
1700935796833785300,21.296785400390625,1.4940016269683838,-5.305954933166504,8.11485767364502
1700935796850767400,21.313767333984377,1.4958102703094482,-5.305993556976318,8.114500045776367
1700935796867770000,21.33077001953125,1.4970731735229492,-5.3061323165893555,8.114175796508789
1700935796884761900,21.347761962890626,1.4994685649871826,-5.306714057922363,8.113351821899414
1700935796901754400,21.36475439453125,1.5024946928024292,-5.309397220611572,8.111035346984863
1700935796918746600,21.38174658203125,1.5040860176086426,-5.314306259155273,8.107527732849121
1700935796935738600,21.398738525390623,1.5030618906021118,-5.319126129150391,8.1045560836792
1700935796952731000,21.41573095703125,1.5002686977386475,-5.3205718994140625,8.104125022888184
1700935796969720600,21.432720458984374,1.4968340396881104,-5.317333221435547,8.106884002685547
1700935796986715600,21.449715576171876,1.495314121246338,-5.311797618865967,8.110794067382812
1700935797003707600,21.466707763671874,1.495676040649414,-5.307231426239014,8.113714218139648
1700935797020700200,21.4837001953125,1.4964572191238403,-5.305337905883789,8.114808082580566
1700935797037692400,21.5006923828125,1.4967834949493408,-5.3063554763793945,8.114082336425781
1700935797054672100,21.517672119140624,1.4958654642105103,-5.30875825881958,8.112679481506348
1700935797071677200,21.53467724609375,1.4944562911987305,-5.310368537902832,8.11188793182373
1700935797088666600,21.55166650390625,1.492689609527588,-5.310276985168457,8.112271308898926
1700935797105654000,21.568654052734374,1.4913634061813354,-5.310168266296387,8.11258602142334
1700935797122653400,21.5856533203125,1.4911037683486938,-5.311151504516602,8.111990928649902
1700935797139646200,21.602646240234375,1.4930269718170166,-5.312592506408691,8.110692024230957
1700935797156635400,21.619635498046875,1.4945805072784424,-5.314042568206787,8.109457015991211
1700935797173633000,21.636633056640626,1.4959657192230225,-5.315210342407227,8.10843563079834
1700935797190612500,21.653612548828125,1.497131109237671,-5.315379619598389,8.108109474182129
1700935797207615000,21.670614990234377,1.4983198642730713,-5.314367771148682,8.108551979064941
1700935797224607000,21.68760693359375,1.5002388954162598,-5.312919616699219,8.109148979187012
1700935797241599500,21.704599609375,1.5017468929290771,-5.312257766723633,8.10930347442627
1700935797258589400,21.72158935546875,1.50325608253479,-5.312868118286133,8.108623504638672
1700935797275586800,21.7385869140625,1.5053967237472534,-5.313685417175293,8.107691764831543
1700935797292565500,21.7555654296875,1.5069307088851929,-5.314434051513672,8.106913566589355
1700935797309568500,21.772568603515627,1.5076534748077393,-5.314028739929199,8.107046127319336
1700935797326560500,21.789560546875,1.5082098245620728,-5.312891960144043,8.107687950134277
1700935797343552800,21.806552734375,1.509203314781189,-5.311166763305664,8.10863208770752
1700935797360545500,21.823545654296876,1.509200096130371,-5.309549331665039,8.109694480895996
1700935797377534700,21.84053466796875,1.5096473693847656,-5.309080123901367,8.109916687011719
1700935797394532400,21.857532470703124,1.5111591815948486,-5.309229850769043,8.109536170959473
1700935797411521800,21.874521728515624,1.512555718421936,-5.309125900268555,8.109346389770508
1700935797428511700,21.89151171875,1.5139803886413574,-5.3086113929748535,8.109415054321289
1700935797445509000,21.908509033203124,1.5146206617355347,-5.30797815322876,8.109712600708008
1700935797462508300,21.92550830078125,1.5141938924789429,-5.306118011474609,8.111006736755371
1700935797479491300,21.9424912109375,1.5140409469604492,-5.305319786071777,8.111557960510254
1700935797496483600,21.959483642578125,1.5151952505111694,-5.30746603012085,8.109938621520996
