time,seconds_elapsed,z,y,x
1700935869068842800,0.1158427734375,8.492591857910156,4.676638603210449,1.4970121383666992
1700935869085837000,0.132837158203125,8.499869346618652,4.66113805770874,1.5040335655212402
1700935869102825700,0.14982568359375,8.50693416595459,4.644199371337891,1.5164380073547363
1700935869119819000,0.166819091796875,8.512093544006348,4.631030559539795,1.527717113494873
1700935869136817000,0.18381689453125,8.513832092285156,4.623963356018066,1.5393950939178467
1700935869153804000,0.200803955078125,8.513275146484375,4.620004177093506,1.5542935132980347
1700935869170799600,0.217799560546875,8.514595031738281,4.613710403442383,1.565711498260498
1700935869187792600,0.234792724609375,8.518780708312988,4.604542255401611,1.5699293613433838
1700935869204781800,0.25178173828125,8.521766662597656,4.5981974601745605,1.5723178386688232
1700935869221778000,0.26877783203125,8.517778396606445,4.601985931396484,1.5828099250793457
1700935869238760400,0.285760498046875,8.503524780273438,4.620388507843018,1.6056733131408691
1700935869255763200,0.30276318359375,8.482294082641602,4.647721767425537,1.6387399435043335
1700935869272753200,0.319753173828125,8.460283279418945,4.673868179321289,1.6776996850967407
1700935869289739300,0.3367392578125,8.437835693359375,4.701714515686035,1.7125756740570068
1700935869306733600,0.353733642578125,8.41014575958252,4.741944789886475,1.737676978111267
1700935869323730200,0.370730224609375,8.36935043334961,4.802534580230713,1.7679754495620728
1700935869340726300,0.387726318359375,8.307531356811523,4.89083194732666,1.8168091773986816
1700935869357720600,0.404720458984375,8.226531982421875,5.00304651260376,1.8787765502929688
1700935869374696000,0.421696044921875,8.137430191040039,5.129096031188965,1.9263207912445068
1700935869391705300,0.438705322265625,8.042143821716309,5.27337646484375,1.9368880987167358
1700935869408697000,0.455697021484375,7.932458400726318,5.440375328063965,1.9273117780685425
1700935869425697800,0.47269775390625,7.802174091339111,5.620567798614502,1.9420100450515747
1700935869442677800,0.489677734375,7.646335124969482,5.813635349273682,1.9928134679794312
1700935869459677700,0.506677734375,7.46610689163208,6.015888214111328,2.074233055114746
1700935869476669700,0.523669677734375,7.277140140533447,6.197762489318848,2.206146478652954
1700935869493658400,0.540658447265625,7.138396739959717,6.3095383644104,2.3386130332946777
1700935869510653700,0.55765380859375,7.078017234802246,6.329164505004883,2.4656543731689453
1700935869527648000,0.57464794921875,7.059493064880371,6.290489673614502,2.6133148670196533
1700935869544636400,0.591636474609375,7.031998634338379,6.2214202880859375,2.8427164554595947
1700935869561632800,0.6086328125,6.941799163818359,6.147971153259277,3.2015621662139893
1700935869578624800,0.625624755859375,6.757715225219727,6.107577323913574,3.6423752307891846
1700935869595611400,0.642611328125,6.4967145919799805,6.060580253601074,4.159107685089111
1700935869612607500,0.659607421875,6.181290626525879,5.946295261383057,4.761232852935791
1700935869629603800,0.676603759765625,5.833437442779541,5.744337558746338,5.404599666595459
1700935869646595600,0.693595703125,5.439737319946289,5.4556403160095215,6.073000907897949
1700935869663585500,0.71058544921875,5.066861152648926,5.095631122589111,6.678141117095947
1700935869680571000,0.72757080078125,4.77419376373291,4.675246715545654,7.182287693023682
1700935869697563000,0.74456298828125,4.487095832824707,4.21737813949585,7.636477947235107
1700935869714564000,0.761564208984375,4.117537498474121,3.7350025177001953,8.082805633544922
1700935869731559700,0.7785595703125,3.7092721462249756,3.2339155673980713,8.48641300201416
1700935869748541400,0.79554150390625,3.368945360183716,2.7170982360839844,8.803618431091309
1700935869765535500,0.812535400390625,3.1362812519073486,2.1722757816314697,9.037757873535156
1700935869782534700,0.82953466796875,2.9869935512542725,1.5936558246612549,9.207292556762695
1700935869799530000,0.846530029296875,2.8431053161621094,0.9987226128578186,9.335707664489746
1700935869816523300,0.863523193359375,2.663135528564453,0.43296265602111816,9.431668281555176
1700935869833513700,0.880513671875,2.4858217239379883,-0.10929381847381592,9.48919677734375
1700935869850508300,0.89750830078125,2.328843116760254,-0.6389855146408081,9.50811767578125
1700935869867502600,0.914502685546875,2.1981053352355957,-1.1477599143981934,9.491421699523926
1700935869884496400,0.931496337890625,2.08742618560791,-1.612920880317688,9.448664665222168
1700935869901484500,0.948484619140625,2.0040881633758545,-2.033635139465332,9.385311126708984
1700935869918481700,0.965481689453125,1.9279499053955078,-2.422680139541626,9.308584213256836
1700935869935473700,0.9824736328125,1.8358982801437378,-2.7928569316864014,9.223098754882812
1700935869952462000,0.999462158203125,1.7173620462417603,-3.164506435394287,9.125387191772461
1700935869969457200,1.01645703125,1.5526793003082275,-3.5510261058807373,9.011964797973633
1700935869986451700,1.03345166015625,1.3495687246322632,-3.9368600845336914,8.883463859558105
1700935870003440000,1.050440185546875,1.1555142402648926,-4.31520938873291,8.733835220336914
1700935870020435500,1.067435546875,1.007287859916687,-4.674075603485107,8.565892219543457
1700935870037429800,1.0844296875,0.9124399423599243,-5.012239456176758,8.383377075195312
1700935870054418400,1.10141845703125,0.8722712993621826,-5.314931392669678,8.199193000793457
1700935870071401200,1.118401123046875,0.896507978439331,-5.5544562339782715,8.03619384765625
1700935870088404000,1.135404052734375,0.9746569395065308,-5.731982707977295,7.901299476623535
1700935870105403100,1.152403076171875,1.08930504322052,-5.867465019226074,7.786037921905518
1700935870122389200,1.16938916015625,1.2188684940338135,-5.979492664337158,7.680893898010254
1700935870139384300,1.18638427734375,1.353380799293518,-6.078707218170166,7.579827308654785
1700935870156369000,1.203368896484375,1.483229398727417,-6.168972015380859,7.481972694396973
1700935870173365000,1.220364990234375,1.6030482053756714,-6.243185043334961,7.395202159881592
1700935870190365200,1.237365234375,1.7151457071304321,-6.291975975036621,7.328397750854492
1700935870207357200,1.254357177734375,1.8241939544677734,-6.322709560394287,7.275423049926758
1700935870224345600,1.271345703125,1.9243649244308472,-6.343461036682129,7.231419563293457
1700935870241336000,1.288336181640625,2.0070457458496094,-6.3583574295043945,7.195775032043457
1700935870258335000,1.3053349609375,2.064267158508301,-6.373114585876465,7.166471004486084
1700935870275338200,1.322338134765625,2.09482479095459,-6.378654956817627,7.1526618003845215
1700935870292309500,1.3393095703125,2.112994432449341,-6.359426975250244,7.164430618286133
1700935870309314000,1.35631396484375,2.1267037391662598,-6.312027454376221,7.202191352844238
1700935870326310400,1.373310302734375,2.1350417137145996,-6.24367094039917,7.259081840515137
1700935870343307000,1.39030712890625,2.13364315032959,-6.16652774810791,7.325135231018066
1700935870360291000,1.407291015625,2.1232054233551025,-6.091664791107178,7.3905158042907715
1700935870377286400,1.424286376953125,2.1025378704071045,-6.0277605056762695,7.44859504699707
1700935870394273300,1.441273193359375,2.079270839691162,-5.968817710876465,7.5023980140686035
1700935870411268600,1.4582685546875,2.0565574169158936,-5.904379367828369,7.559431552886963
1700935870428262000,1.475261962890625,2.0332846641540527,-5.837484836578369,7.617456436157227
1700935870445255400,1.49225537109375,2.009320020675659,-5.774357795715332,7.6717376708984375
1700935870462244400,1.509244384765625,1.9811680316925049,-5.713998794555664,7.724074363708496
1700935870479239200,1.5262392578125,1.9462358951568604,-5.654561996459961,7.776515483856201
1700935870496233700,1.543233642578125,1.9058464765548706,-5.601344108581543,7.824883937835693
1700935870513222100,1.56022216796875,1.8656013011932373,-5.552713394165039,7.869117736816406
1700935870530205400,1.577205322265625,1.8273099660873413,-5.506622791290283,7.910383701324463
1700935870547206000,1.594205810546875,1.795304298400879,-5.464154243469238,7.947076797485352
1700935870564202200,1.6112021484375,1.771173119544983,-5.426959991455078,7.9779181480407715
1700935870581196500,1.628196533203125,1.7470253705978394,-5.391849994659424,8.00699520111084
1700935870598188300,1.645188232421875,1.7188361883163452,-5.357851982116699,8.035865783691406
1700935870615182800,1.662182861328125,1.6925818920135498,-5.331950664520264,8.058634757995605
1700935870632171300,1.679171142578125,1.6764429807662964,-5.3189802169799805,8.070569038391113
1700935870649166600,1.69616650390625,1.6711199283599854,-5.317409038543701,8.072709083557129
1700935870666165200,1.713165283203125,1.6714898347854614,-5.322257041931152,8.069437026977539
1700935870683149600,1.730149658203125,1.6711279153823853,-5.328540802001953,8.065363883972168
1700935870700144600,1.74714453125,1.6706764698028564,-5.331209182739258,8.06369400024414
1700935870717139000,1.764138916015625,1.6715158224105835,-5.332944869995117,8.062372207641602
1700935870734130700,1.781130615234375,1.6750092506408691,-5.338068962097168,8.058256149291992
1700935870751120600,1.79812060546875,1.6865543127059937,-5.351013660430908,8.04725456237793
1700935870768115700,1.81511572265625,1.7045317888259888,-5.3730692863464355,8.028749465942383
1700935870785110300,1.8321103515625,1.7184970378875732,-5.402317523956299,8.006113052368164
1700935870802099500,1.849099365234375,1.7175991535186768,-5.438855171203613,7.98153018951416
1700935870819093800,1.86609375,1.7012217044830322,-5.47829532623291,7.9580302238464355
1700935870836088300,1.88308837890625,1.683184266090393,-5.519103527069092,7.933630466461182
1700935870853078800,1.900078857421875,1.680277943611145,-5.568049907684326,7.8999738693237305
1700935870870068200,1.917068115234375,1.6887116432189941,-5.624136924743652,7.858335494995117
1700935870887068000,1.93406787109375,1.693512201309204,-5.67751407623291,7.818820953369141
1700935870904056300,1.951056396484375,1.6848530769348145,-5.720696926116943,7.789159774780273
1700935870921050400,1.96805029296875,1.6624000072479248,-5.753964424133301,7.769455909729004
1700935870938042600,1.985042724609375,1.6373833417892456,-5.777977466583252,7.756937026977539
1700935870955036700,2.00203662109375,1.6244118213653564,-5.795587539672852,7.746518611907959
1700935870972027000,2.01902685546875,1.6233190298080444,-5.806786060333252,7.738358497619629
1700935870989011200,2.03601123046875,1.6245015859603882,-5.817615032196045,7.729972839355469
1700935871006012700,2.0530126953125,1.6174770593643188,-5.830265045166016,7.721909999847412
1700935871023004700,2.070004638671875,1.5998196601867676,-5.840988636016846,7.717483997344971
1700935871040000300,2.087000244140625,1.5795639753341675,-5.851528644561768,7.713670253753662
1700935871056996600,2.10399658203125,1.5630242824554443,-5.863020896911621,7.708310604095459
1700935871073983000,2.12098291015625,1.5572559833526611,-5.869631290435791,7.704447269439697
1700935871090978800,2.137978759765625,1.5591955184936523,-5.864984512329102,7.707592487335205
1700935871107970800,2.154970703125,1.5610169172286987,-5.851334095001221,7.717594146728516
1700935871124962300,2.17196240234375,1.56033194065094,-5.82931661605835,7.734375476837158
1700935871141945300,2.1889453125,1.5545270442962646,-5.80019474029541,7.757404327392578
1700935871158946800,2.20594677734375,1.546241044998169,-5.7680158615112305,7.783010005950928
1700935871175934500,2.2229345703125,1.537394404411316,-5.736992359161377,7.807652950286865
1700935871192932000,2.23993212890625,1.5291452407836914,-5.706411838531494,7.83164644241333
1700935871209925000,2.256925048828125,1.5239958763122559,-5.675405502319336,7.855146408081055
1700935871226922800,2.2739228515625,1.522934913635254,-5.641447067260742,7.87977409362793
1700935871243910000,2.290909912109375,1.5223711729049683,-5.603426933288574,7.906966686248779
1700935871260905700,2.30790576171875,1.5205872058868408,-5.565484523773193,7.934060573577881
1700935871277897700,2.324897705078125,1.5183091163635254,-5.533415794372559,7.956894397735596
1700935871294889000,2.341888916015625,1.5169376134872437,-5.506740570068359,7.975639820098877
1700935871311883800,2.3588837890625,1.5181714296340942,-5.4794206619262695,7.994198322296143
1700935871328876000,2.3758759765625,1.5195671319961548,-5.445791721343994,8.016881942749023
1700935871345870300,2.392870361328125,1.5189133882522583,-5.407565593719482,8.042840003967285
1700935871362860300,2.4098603515625,1.5172574520111084,-5.367886066436768,8.069687843322754
1700935871379854300,2.426854248046875,1.5129904747009277,-5.3296027183532715,8.095820426940918
1700935871396848600,2.4438486328125,1.504983901977539,-5.2972092628479,8.118542671203613
1700935871413837000,2.460837158203125,1.494279146194458,-5.27276611328125,8.1364107131958
1700935871430833400,2.47783349609375,1.4837298393249512,-5.254292011260986,8.15028190612793
1700935871447826200,2.494826171875,1.4714065790176392,-5.236964225769043,8.163655281066895
1700935871464815000,2.511815185546875,1.4572299718856812,-5.219172477722168,8.177580833435059
1700935871481811700,2.528811767578125,1.4425914287567139,-5.203080177307129,8.190421104431152
1700935871498803500,2.545803466796875,1.4258015155792236,-5.19015645980835,8.201554298400879
1700935871515795200,2.562795166015625,1.407938003540039,-5.1847028732299805,8.208086967468262
1700935871532790300,2.579790283203125,1.387825846672058,-5.1869964599609375,8.210062026977539
1700935871549780500,2.596780517578125,1.364973545074463,-5.191699504852295,8.210920333862305
1700935871566775300,2.613775390625,1.3378360271453857,-5.191323757171631,8.21562385559082
1700935871583764700,2.6307646484375,1.305385947227478,-5.179937839508057,8.228019714355469
1700935871600760600,2.647760498046875,1.269586443901062,-5.1609907150268555,8.24551010131836
1700935871617750000,2.66475,1.2354371547698975,-5.139124393463135,8.264333724975586
1700935871634741000,2.681740966796875,1.203982949256897,-5.115382671356201,8.283682823181152
1700935871651741200,2.6987412109375,1.1742194890975952,-5.092128753662109,8.302262306213379
1700935871668730600,2.715730712890625,1.1433014869689941,-5.072400093078613,8.318638801574707
1700935871685725200,2.73272509765625,1.1081041097640991,-5.05651330947876,8.333060264587402
1700935871702713900,2.7497138671875,1.0712172985076904,-5.040756702423096,8.347417831420898
1700935871719709000,2.766708984375,1.035750389099121,-5.019381523132324,8.36475658416748
1700935871736703500,2.783703369140625,1.002509593963623,-4.990530014038086,8.386042594909668
1700935871753692200,2.800692138671875,0.9713231325149536,-4.961185932159424,8.407096862792969
1700935871770687500,2.8176875,0.9435500502586365,-4.938310146331787,8.423711776733398
1700935871787681500,2.834681640625,0.9182517528533936,-4.923525333404541,8.435154914855957
1700935871804670200,2.851670166015625,0.8891861438751221,-4.912593364715576,8.444637298583984
1700935871821666300,2.868666259765625,0.8548556566238403,-4.900700569152832,8.455085754394531
1700935871838658600,2.885658447265625,0.8176010251045227,-4.886722564697266,8.466852188110352
1700935871855652600,2.902652587890625,0.7784658670425415,-4.871984004974365,8.479026794433594
1700935871872641300,2.919641357421875,0.7367395758628845,-4.857398986816406,8.49111270904541
1700935871889636400,2.93663623046875,0.699347198009491,-4.841015815734863,8.503623008728027
1700935871906630700,2.953630615234375,0.668055534362793,-4.821387767791748,8.517279624938965
1700935871923613400,2.970613525390625,0.6407171487808228,-4.7973527908325195,8.532936096191406
1700935871940614700,2.98761474609375,0.608148455619812,-4.768150329589844,8.551668167114258
1700935871957609000,3.00460888671875,0.5621179938316345,-4.734652519226074,8.573402404785156
1700935871974597600,3.02159765625,0.5117533206939697,-4.702549934387207,8.594197273254395
1700935871991593500,3.038593505859375,0.4711414575576782,-4.681069850921631,8.608237266540527
1700935872008583700,3.055583740234375,0.44971171021461487,-4.672661304473877,8.6139497756958
1700935872025581800,3.072581787109375,0.44233545660972595,-4.672065734863281,8.614652633666992
1700935872042568400,3.089568359375,0.4307100176811218,-4.671739101409912,8.615418434143066
1700935872059567000,3.106567138671875,0.40522727370262146,-4.667994022369385,8.618684768676758
1700935872076564500,3.123564453125,0.37443846464157104,-4.66704797744751,8.620590209960938
1700935872093550000,3.140550048828125,0.35076016187667847,-4.673011302947998,8.61835765838623
1700935872110543000,3.157543212890625,0.3381003439426422,-4.685402870178223,8.61213207244873
1700935872127537200,3.174537109375,0.33070477843284607,-4.699474811553955,8.604748725891113
1700935872144528600,3.191528564453125,0.3226701319217682,-4.712432861328125,8.597963333129883
1700935872161521400,3.208521484375,0.3101290166378021,-4.721800327301025,8.593284606933594
1700935872178514000,3.225513916015625,0.29391029477119446,-4.727206230163574,8.590882301330566
1700935872195507000,3.2425068359375,0.2801968455314636,-4.735832214355469,8.586588859558105
1700935872212487000,3.25948681640625,0.2705135643482208,-4.749101638793945,8.579566955566406
1700935872229482200,3.276482177734375,0.2605189085006714,-4.762899875640869,8.572225570678711
1700935872246486500,3.293486572265625,0.25050845742225647,-4.77573299407959,8.565381050109863
1700935872263477500,3.3104775390625,0.24502992630004883,-4.787920951843262,8.558732032775879
1700935872280468200,3.32746826171875,0.243495911359787,-4.794177532196045,8.555273056030273
1700935872297463300,3.34446337890625,0.2451293170452118,-4.790462970733643,8.557307243347168
1700935872314455800,3.361455810546875,0.24966910481452942,-4.786201000213623,8.559560775756836
1700935872331448800,3.37844873046875,0.2504575848579407,-4.783236503601074,8.561192512512207
1700935872348441600,3.395441650390625,0.24147452414035797,-4.77930212020874,8.563648223876953
1700935872365423900,3.412423828125,0.22802124917507172,-4.774333477020264,8.566787719726562
1700935872382427100,3.42942724609375,0.21659404039382935,-4.770442962646484,8.569252014160156
1700935872399419400,3.44641943359375,0.21623297035694122,-4.772172451019287,8.56829833984375
1700935872416402000,3.46340185546875,0.22556249797344208,-4.780610084533691,8.563352584838867
1700935872433402600,3.480402587890625,0.23370766639709473,-4.793367862701416,8.555998802185059
1700935872450400500,3.497400390625,0.23291771113872528,-4.80348539352417,8.550345420837402
1700935872467388200,3.51438818359375,0.22246113419532776,-4.808835029602051,8.547616004943848
1700935872484383000,3.531383056640625,0.20911720395088196,-4.809136867523193,8.547781944274902
1700935872501374200,3.548374267578125,0.1987190991640091,-4.806797027587891,8.549347877502441
1700935872518369000,3.565369140625,0.19918423891067505,-4.807472229003906,8.548955917358398
1700935872535361800,3.58236181640625,0.2088909149169922,-4.8136820793151855,8.5452299118042
1700935872552354000,3.59935400390625,0.21482641994953156,-4.821734428405762,8.540541648864746
1700935872569347000,3.61634716796875,0.21323861181735992,-4.824778079986572,8.538862228393555
1700935872586339800,3.63333984375,0.20338459312915802,-4.821112155914307,8.54117202758789
1700935872603332900,3.650332763671875,0.18982255458831787,-4.814188480377197,8.545389175415039
1700935872620325000,3.6673251953125,0.1812075525522232,-4.809006690979004,8.548494338989258
1700935872637318000,3.68431787109375,0.17645786702632904,-4.8052873611450195,8.550682067871094
1700935872654300200,3.701300048828125,0.17313577234745026,-4.800123691558838,8.553650856018066
1700935872671302100,3.71830224609375,0.17106936872005463,-4.791928291320801,8.558286666870117
1700935872688297500,3.73529736328125,0.16916580498218536,-4.78303861618042,8.563297271728516
1700935872705289700,3.752289794921875,0.1651049107313156,-4.775449752807617,8.567609786987305
1700935872722281700,3.76928173828125,0.15848059952259064,-4.766897201538086,8.57249641418457
1700935872739286500,3.78628662109375,0.15366308391094208,-4.757652282714844,8.577718734741211
1700935872756266200,3.803266357421875,0.15186096727848053,-4.745288372039795,8.584595680236816
1700935872773262600,3.8202626953125,0.15434837341308594,-4.72905969619751,8.593503952026367
1700935872790252800,3.837252685546875,0.16115950047969818,-4.712784290313721,8.602314949035645
1700935872807245600,3.85424560546875,0.17055685818195343,-4.703338146209717,8.607300758361816
1700935872824238000,3.871238037109375,0.18208377063274384,-4.70222282409668,8.607675552368164
1700935872841231400,3.8882314453125,0.19339461624622345,-4.704651832580566,8.606101036071777
1700935872858223600,3.9052236328125,0.20409005880355835,-4.706583499908447,8.604799270629883
1700935872875216400,3.92221630859375,0.21629494428634644,-4.707738399505615,8.60386848449707
1700935872892209400,3.93920947265625,0.231217622756958,-4.710177421569824,8.602143287658691
1700935872909202000,3.956201904296875,0.2486853152513504,-4.715746879577637,8.59860610961914
1700935872926204400,3.973204345703125,0.2691026031970978,-4.728154182434082,8.59117317199707
1700935872943187700,3.990187744140625,0.29086682200431824,-4.746713161468506,8.580223083496094
1700935872960180200,4.00718017578125,0.3112414479255676,-4.7664690017700195,8.568548202514648
1700935872977173200,4.02417333984375,0.33170875906944275,-4.78079891204834,8.559793472290039
1700935872994165800,4.041165771484375,0.3559694290161133,-4.787849426269531,8.554876327514648
1700935873011158500,4.058158447265625,0.3786121904850006,-4.789453983306885,8.553006172180176
1700935873028151300,4.0751513671875,0.39816588163375854,-4.786871910095215,8.553563117980957
1700935873045144000,4.09214404296875,0.41517338156700134,-4.78048849105835,8.55632495880127
1700935873062138000,4.10913818359375,0.4379722476005554,-4.7707200050354,8.560637474060059
1700935873079125800,4.126125732421875,0.4707382917404175,-4.760385990142822,8.564651489257812
1700935873096125000,4.143125,0.5077841877937317,-4.746184349060059,8.570415496826172
1700935873113115000,4.160114990234375,0.5390759110450745,-4.72885799407959,8.57807731628418
1700935873130107600,4.177107666015625,0.5587514638900757,-4.711703300476074,8.586254119873047
1700935873147100400,4.194100341796875,0.569920539855957,-4.697657108306885,8.593214988708496
1700935873164093400,4.211093505859375,0.5867912173271179,-4.691068649291992,8.59567642211914
1700935873181086000,4.2280859375,0.6165564656257629,-4.692821025848389,8.59263801574707
1700935873198078700,4.24507861328125,0.6553316712379456,-4.698493003845215,8.586666107177734
1700935873215071500,4.262071533203125,0.6917806267738342,-4.7041335105896,8.580716133117676
1700935873232064500,4.279064453125,0.7153788208961487,-4.708111763000488,8.576598167419434
1700935873249056800,4.296056884765625,0.7285122275352478,-4.712268829345703,8.573208808898926
1700935873266049500,4.313049560546875,0.7412930727005005,-4.717822551727295,8.569058418273926
1700935873283040300,4.330040283203125,0.7601833939552307,-4.7235331535339355,8.56425666809082
1700935873300036900,4.347036865234375,0.7900571227073669,-4.728253364562988,8.558945655822754
1700935873317028000,4.364028076171875,0.8268735408782959,-4.728777885437012,8.55517578125
1700935873334020900,4.381020751953125,0.8608481884002686,-4.72802209854126,8.55224323272705
1700935873351013400,4.398013427734375,0.8871565461158752,-4.727663993835449,8.549752235412598
1700935873368010800,4.4150107421875,0.9057422280311584,-4.7280592918396,8.547585487365723
1700935873384999000,4.4319990234375,0.9191268086433411,-4.729735851287842,8.545228004455566
1700935873401991700,4.44899169921875,0.9319427013397217,-4.733188629150391,8.5419282913208
1700935873418984400,4.465984375,0.9477640986442566,-4.735145092010498,8.539102554321289
1700935873435977500,4.4829775390625,0.9648262858390808,-4.732958793640137,8.538402557373047
1700935873452970200,4.49997021484375,0.9792352914810181,-4.724476337432861,8.541460990905762
1700935873469964500,4.516964599609375,0.9880040884017944,-4.708761692047119,8.549123764038086
1700935873486954000,4.5339541015625,0.9919734597206116,-4.689061641693115,8.559486389160156
1700935873503948300,4.5509482421875,0.9932718276977539,-4.669803142547607,8.56985855102539
1700935873520940800,4.56794091796875,0.9947265982627869,-4.654823303222656,8.577836036682129
1700935873537933600,4.58493359375,0.9963495135307312,-4.642428874969482,8.58436107635498
1700935873554926600,4.601926513671875,0.9928800463676453,-4.631563186645508,8.590630531311035
1700935873571919400,4.61891943359375,0.9818068742752075,-4.624255657196045,8.595839500427246
1700935873588912000,4.635912109375,0.9668040871620178,-4.618958950042725,8.600384712219238
1700935873605905200,4.6529052734375,0.9493528008460999,-4.6106486320495605,8.606786727905273
1700935873622897700,4.669897705078125,0.9318240284919739,-4.598330497741699,8.615287780761719
1700935873639890200,4.68689013671875,0.9177681803703308,-4.585544109344482,8.623608589172363
1700935873656878000,4.703878173828125,0.9088301658630371,-4.57514762878418,8.630073547363281
1700935873673876000,4.7208759765625,0.9003779888153076,-4.566799640655518,8.635377883911133
1700935873690868700,4.73786865234375,0.8917196989059448,-4.556076526641846,8.641940116882324
1700935873707861500,4.754861572265625,0.8827840089797974,-4.540837287902832,8.650873184204102
1700935873724854300,4.771854248046875,0.8712220191955566,-4.5252766609191895,8.660194396972656
1700935873741849600,4.788849609375,0.8593890070915222,-4.51273250579834,8.66791820526123
1700935873758837000,4.8058369140625,0.8527927398681641,-4.505865097045898,8.672141075134277
1700935873775828700,4.822828857421875,0.854203999042511,-4.5061211585998535,8.671870231628418
1700935873792819000,4.83981884765625,0.8630543351173401,-4.514003753662109,8.666893005371094
1700935873809817900,4.85681787109375,0.8712965846061707,-4.526948928833008,8.65931224822998
1700935873826810600,4.873810546875,0.8731364011764526,-4.539096832275391,8.652765274047852
1700935873843803400,4.890803466796875,0.8722356557846069,-4.551358222961426,8.646413803100586
1700935873860796200,4.907796142578125,0.8728782534599304,-4.56816291809082,8.637482643127441
1700935873877789000,4.924788818359375,0.8754580020904541,-4.5871124267578125,8.627172470092773
1700935873894781400,4.941781494140625,0.8803489208221436,-4.60493803024292,8.617172241210938
1700935873911774200,4.958774169921875,0.88792484998703,-4.622623443603516,8.60692024230957
1700935873928757800,4.9757578125,0.8964089155197144,-4.640873432159424,8.596212387084961
1700935873945760000,4.992760009765625,0.9045537710189819,-4.660240650177002,8.58487319946289
1700935873962752800,5.009752685546875,0.9105287790298462,-4.677229404449463,8.574996948242188
1700935873979745500,5.02674560546875,0.9142563343048096,-4.690517425537109,8.567337989807129
1700935873996738000,5.043738037109375,0.9183028936386108,-4.701137065887451,8.561083793640137
1700935874013729500,5.0607294921875,0.9232622385025024,-4.709174633026123,8.556131362915039
1700935874030725000,5.07772509765625,0.9292331337928772,-4.714663982391357,8.552461624145508
1700935874047705900,5.094705810546875,0.9362901449203491,-4.718539237976074,8.549554824829102
1700935874064709400,5.11170947265625,0.9436862468719482,-4.722261905670166,8.546685218811035
1700935874081710300,5.12871044921875,0.9511575698852539,-4.724945545196533,8.54437255859375
1700935874098694700,5.145694580078125,0.9563001990318298,-4.727643966674805,8.542305946350098
1700935874115687400,5.1626875,0.9599286913871765,-4.73039436340332,8.540376663208008
1700935874132680200,5.17968017578125,0.9610332250595093,-4.730888843536377,8.539977073669434
1700935874149673000,5.1966728515625,0.9605209827423096,-4.730985164642334,8.539982795715332
1700935874166665500,5.21366552734375,0.9630712270736694,-4.735471248626709,8.537208557128906
1700935874183658200,5.230658203125,0.9680066108703613,-4.74647855758667,8.530534744262695
1700935874200651300,5.2476513671875,0.9705097675323486,-4.762699604034424,8.521203994750977
1700935874217644300,5.264644287109375,0.9716324806213379,-4.780947208404541,8.510849952697754
1700935874234634200,5.28163427734375,0.9734164476394653,-4.797684669494629,8.50122356414795
1700935874251631900,5.2986318359375,0.9755775928497314,-4.808409690856934,8.494914054870605
1700935874268606700,5.315606689453125,0.9749448895454407,-4.81243371963501,8.492709159851074
1700935874285614800,5.33261474609375,0.970845103263855,-4.812753200531006,8.492997169494629
1700935874302608000,5.34960791015625,0.9667336344718933,-4.812404155731201,8.493663787841797
1700935874319590000,5.36658984375,0.965972363948822,-4.813467025756836,8.493146896362305
1700935874336593400,5.383593505859375,0.9686386585235596,-4.815070152282715,8.491934776306152
1700935874353586200,5.400586181640625,0.975556492805481,-4.81646728515625,8.490348815917969
1700935874370576400,5.417576416015625,0.9835259914398193,-4.815722942352295,8.489851951599121
1700935874387574000,5.434573974609375,0.9894691109657288,-4.813084125518799,8.490657806396484
1700935874404564200,5.451564208984375,0.9941044449806213,-4.808404445648193,8.492770195007324
1700935874421557000,5.468556884765625,0.9992210865020752,-4.8032708168029785,8.495071411132812
1700935874438548700,5.485548828125,1.0053319931030273,-4.799291133880615,8.496601104736328
1700935874455543600,5.50254345703125,1.012326717376709,-4.794940948486328,8.498226165771484
1700935874472535600,5.51953564453125,1.0209861993789673,-4.788060188293457,8.501070022583008
1700935874489528000,5.536528076171875,1.031704068183899,-4.778071880340576,8.505393981933594
1700935874506520800,5.553520751953125,1.0417195558547974,-4.766984939575195,8.510394096374512
1700935874523513900,5.570513916015625,1.0503686666488647,-4.756158828735352,8.515385627746582
1700935874540506600,5.587506591796875,1.058985710144043,-4.747013568878174,8.519420623779297
1700935874557499100,5.6044990234375,1.0687544345855713,-4.7420334815979,8.520975112915039
1700935874574481400,5.6214814453125,1.077467679977417,-4.742502689361572,8.519615173339844
1700935874591484700,5.638484619140625,1.0845801830291748,-4.748309135437012,8.515478134155273
1700935874608477400,5.6554775390625,1.0916097164154053,-4.758113384246826,8.50910472869873
1700935874625469000,5.672468994140625,1.097989559173584,-4.766941070556641,8.503340721130371
1700935874642464000,5.689464111328125,1.1023720502853394,-4.7728590965271,8.499452590942383
1700935874659455700,5.706455810546875,1.1046513319015503,-4.77458381652832,8.498187065124512
1700935874676448300,5.7234482421875,1.1056874990463257,-4.773581027984619,8.498616218566895
1700935874693441000,5.74044091796875,1.1062856912612915,-4.774406433105469,8.498075485229492
1700935874710430200,5.75743017578125,1.1058307886123657,-4.7804365158081055,8.494744300842285
1700935874727426800,5.7744267578125,1.1041666269302368,-4.79111909866333,8.488940238952637
1700935874744419300,5.79141943359375,1.1010500192642212,-4.804329872131348,8.481876373291016
1700935874761412400,5.808412353515625,1.097037672996521,-4.817017555236816,8.475197792053223
1700935874778404900,5.82540478515625,1.0941309928894043,-4.8272013664245605,8.469776153564453
1700935874795398000,5.84239794921875,1.092297911643982,-4.836123943328857,8.464921951293945
1700935874812390400,5.859390380859375,1.0921388864517212,-4.844170570373535,8.460338592529297
1700935874829383200,5.876383056640625,1.0930790901184082,-4.852523326873779,8.455430030822754
1700935874846378000,5.8933779296875,1.0917845964431763,-4.862141132354736,8.450071334838867
1700935874863350500,5.9103505859375,1.0868302583694458,-4.873245716094971,8.444310188293457
1700935874880359000,5.92735888671875,1.079322338104248,-4.88473653793335,8.43863296508789
1700935874897357000,5.944357177734375,1.0710158348083496,-4.895691394805908,8.433341979980469
1700935874914347300,5.96134716796875,1.0656644105911255,-4.903261184692383,8.429621696472168
1700935874931339800,5.97833984375,1.063314437866211,-4.907398223876953,8.427509307861328
1700935874948332300,5.995332275390625,1.0650492906570435,-4.909467697143555,8.426085472106934
1700935874965325300,6.0123251953125,1.068904995918274,-4.912915229797363,8.423589706420898
1700935874982318300,6.029318359375,1.0703212022781372,-4.914989471435547,8.422199249267578
1700935874999308300,6.046308349609375,1.0686856508255005,-4.913283348083496,8.423398971557617
1700935875016306200,6.06330615234375,1.06695556640625,-4.907966136932373,8.426717758178711
1700935875033296100,6.080296142578125,1.0703773498535156,-4.900241374969482,8.430779457092285
1700935875050289000,6.097288818359375,1.0788726806640625,-4.8899760246276855,8.43565559387207
1700935875067281700,6.11428173828125,1.0869418382644653,-4.877762317657471,8.44168758392334
1700935875084274700,6.131274658203125,1.0933562517166138,-4.864015579223633,8.4487886428833
1700935875101267200,6.14826708984375,1.0992414951324463,-4.849839210510254,8.456171989440918
1700935875118249500,6.16524951171875,1.1056406497955322,-4.8344950675964355,8.46412181854248
1700935875135252700,6.182252685546875,1.1155126094818115,-4.818272113800049,8.472070693969727
1700935875152245500,6.19924560546875,1.1281126737594604,-4.802623748779297,8.47928524017334
1700935875169238500,6.216238525390625,1.140295386314392,-4.788534641265869,8.485621452331543
1700935875186231000,6.23323095703125,1.1496708393096924,-4.775210857391357,8.491863250732422
1700935875203223800,6.250223876953125,1.1574487686157227,-4.7621541023254395,8.498135566711426
1700935875220216800,6.267216796875,1.1664880514144897,-4.747629642486572,8.505023002624512
1700935875237209300,6.284209228515625,1.1755149364471436,-4.730175018310547,8.51350212097168
1700935875254202400,6.301202392578125,1.1843857765197754,-4.712777614593506,8.521917343139648
1700935875271195100,6.318195068359375,1.1969666481018066,-4.699251174926758,8.527627944946289
1700935875288179500,6.335179443359375,1.2132329940795898,-4.690199375152588,8.530311584472656
1700935875305180700,6.3521806640625,1.227797269821167,-4.684491157531738,8.531364440917969
1700935875322173200,6.369173095703125,1.236604928970337,-4.682860851287842,8.530987739562988
1700935875339166000,6.386166015625,1.2410633563995361,-4.682641506195068,8.530460357666016
1700935875356159000,6.403158935546875,1.243991732597351,-4.680328369140625,8.531303405761719
1700935875373151500,6.4201513671875,1.2468211650848389,-4.67644739151001,8.533019065856934
1700935875390144300,6.437144287109375,1.2491284608840942,-4.671627521514893,8.535321235656738
1700935875407140600,6.454140625,1.2515257596969604,-4.667327404022217,8.537321090698242
1700935875424132400,6.47113232421875,1.253943681716919,-4.665243148803711,8.538106918334961
1700935875441122800,6.488122802734375,1.2557568550109863,-4.6670637130737305,8.536844253540039
1700935875458114300,6.5051142578125,1.2567877769470215,-4.67195987701416,8.534013748168945
1700935875475109000,6.522109130859375,1.2555392980575562,-4.677376747131348,8.531230926513672
1700935875492100600,6.5391005859375,1.2523795366287231,-4.681121349334717,8.529641151428223
1700935875509094000,6.556093994140625,1.2484688758850098,-4.685850143432617,8.527616500854492
1700935875526086400,6.57308642578125,1.248051404953003,-4.692541599273682,8.52399730682373
1700935875543079400,6.590079345703125,1.2497611045837402,-4.698520183563232,8.520453453063965
1700935875560072200,6.607072265625,1.2524789571762085,-4.70446252822876,8.51677417755127
1700935875577062100,6.624062255859375,1.254904866218567,-4.710135459899902,8.51328182220459
1700935875594060000,6.64106005859375,1.2560960054397583,-4.715864181518555,8.509932518005371
1700935875611050000,6.658050048828125,1.2581390142440796,-4.724474906921387,8.504855155944824
1700935875628043000,6.67504296875,1.263685703277588,-4.737016677856445,8.497052192687988
1700935875645035800,6.692035888671875,1.271239161491394,-4.751890182495117,8.487615585327148
1700935875662028500,6.709028564453125,1.2773442268371582,-4.76854133605957,8.4773530960083
1700935875679018800,6.726018798828125,1.2821804285049438,-4.786041736602783,8.466754913330078
1700935875696016600,6.7430166015625,1.2882065773010254,-4.801019668579102,8.457354545593262
1700935875713006800,6.7600068359375,1.296123743057251,-4.810920238494873,8.450516700744629
1700935875729999600,6.77699951171875,1.3069615364074707,-4.817068099975586,8.445343017578125
1700935875746992600,6.79399267578125,1.3220824003219604,-4.82254695892334,8.439861297607422
1700935875763985200,6.810985107421875,1.338434100151062,-4.828827857971191,8.433690071105957
1700935875780968000,6.827968017578125,1.3500473499298096,-4.836139678955078,8.427647590637207
1700935875797971000,6.844970947265625,1.3557413816452026,-4.846913814544678,8.420539855957031
1700935875814963500,6.86196337890625,1.3589842319488525,-4.860489368438721,8.412189483642578
1700935875831956200,6.878956298828125,1.3610914945602417,-4.874013423919678,8.40401840209961
1700935875848948700,6.89594873046875,1.3634800910949707,-4.884116172790527,8.3977632522583
1700935875865941800,6.912941650390625,1.3671387434005737,-4.894767761230469,8.390966415405273
1700935875882934500,6.9299345703125,1.3725666999816895,-4.908596038818359,8.381997108459473
1700935875899927300,6.94692724609375,1.3789372444152832,-4.923439025878906,8.37224006652832
1700935875916919800,6.963919921875,1.3848557472229004,-4.937196731567383,8.363155364990234
1700935875933919000,6.9809189453125,1.3898978233337402,-4.94895076751709,8.355367660522461
1700935875950905300,6.9979052734375,1.3928769826889038,-4.957910537719727,8.349559783935547
1700935875967903000,7.014903076171875,1.3928922414779663,-4.963513374328613,8.346226692199707
1700935875984891100,7.03189111328125,1.3917912244796753,-4.967933177947998,8.343782424926758
1700935876001883600,7.048883544921875,1.3924092054367065,-4.973726749420166,8.340225219726562
1700935876018876400,7.06587646484375,1.394618272781372,-4.980443477630615,8.335847854614258
1700935876035869200,7.082869140625,1.3957597017288208,-4.9857707023620605,8.33247184753418
1700935876052862000,7.099862060546875,1.3960304260253906,-4.987964630126953,8.3311128616333
1700935876069854200,7.116854248046875,1.3960239887237549,-4.987196445465088,8.331573486328125
1700935876086848500,7.1338486328125,1.3984025716781616,-4.985272407531738,8.332326889038086
1700935876103840300,7.15084033203125,1.4040416479110718,-4.984103679656982,8.332075119018555
1700935876120833000,7.1678330078125,1.409375548362732,-4.985416412353516,8.330391883850098
1700935876137825800,7.18482568359375,1.4113833904266357,-4.9879255294799805,8.328547477722168
1700935876154818800,7.20181884765625,1.4143860340118408,-4.990071773529053,8.326753616333008
1700935876171810600,7.218810546875,1.4160243272781372,-4.988420009613037,8.32746410369873
1700935876188810000,7.23581005859375,1.4122055768966675,-4.980523586273193,8.33283805847168
1700935876205797000,7.252797119140625,1.3961514234542847,-4.965798854827881,8.344322204589844
1700935876222790000,7.269789794921875,1.3706873655319214,-4.944788932800293,8.361005783081055
1700935876239782400,7.286782470703125,1.344998836517334,-4.919310092926025,8.3801851272583
1700935876256775200,7.303775146484375,1.3261053562164307,-4.8925580978393555,8.398836135864258
1700935876273768000,7.320767822265625,1.3135466575622559,-4.8663811683654785,8.415999412536621
1700935876290761000,7.337760986328125,1.3015931844711304,-4.8412346839904785,8.432343482971191
1700935876307753700,7.354753662109375,1.2861722707748413,-4.818016052246094,8.447994232177734
1700935876324746500,7.37174658203125,1.2689300775527954,-4.7971510887146,8.46246337890625
1700935876341739000,7.388739013671875,1.2510486841201782,-4.778486251831055,8.475675582885742
1700935876358731800,7.405731689453125,1.2353898286819458,-4.760170936584473,8.48826789855957
1700935876375724500,7.422724609375,1.2215372323989868,-4.7421088218688965,8.500374794006348
1700935876392717300,7.43971728515625,1.208026647567749,-4.724435806274414,8.512138366699219
1700935876409710300,7.45671044921875,1.1954224109649658,-4.708195686340332,8.522910118103027
1700935876426702800,7.473702880859375,1.1842424869537354,-4.693109035491943,8.532783508300781
1700935876443695900,7.49069580078125,1.1749207973480225,-4.680708885192871,8.54088020324707
1700935876460688600,7.507688720703125,1.1674399375915527,-4.671104431152344,8.547163009643555
1700935876477681400,7.524681396484375,1.1608366966247559,-4.663579940795898,8.552168846130371
1700935876494674000,7.541673828125,1.1551090478897095,-4.656400680541992,8.556854248046875
1700935876511666700,7.558666748046875,1.1503797769546509,-4.6482648849487305,8.561914443969727
1700935876528651800,7.57565185546875,1.1438884735107422,-4.63865852355957,8.567991256713867
1700935876545652200,7.59265234375,1.1376652717590332,-4.628791332244873,8.5741548538208
1700935876562645000,7.60964501953125,1.1365435123443604,-4.62019681930542,8.578936576843262
1700935876579635000,7.626635009765625,1.1450951099395752,-4.610697269439697,8.582910537719727
1700935876596633600,7.643633544921875,1.1547374725341797,-4.599523544311523,8.58761215209961
1700935876613623300,7.660623291015625,1.156886339187622,-4.585299491882324,8.594926834106445
1700935876630616300,7.6776162109375,1.1503254175186157,-4.569051265716553,8.60445499420166
1700935876647608800,7.69460888671875,1.1428953409194946,-4.552629470825195,8.614143371582031
1700935876664591400,7.71159130859375,1.1411981582641602,-4.5377583503723145,8.622212409973145
1700935876681585700,7.728585693359375,1.1428751945495605,-4.527904510498047,8.627169609069824
1700935876698587100,7.745587158203125,1.143695592880249,-4.52647066116333,8.627813339233398
1700935876715580200,7.762580078125,1.1379375457763672,-4.533048152923584,8.625118255615234
1700935876732572700,7.77957275390625,1.1226569414138794,-4.5446953773498535,8.620991706848145
1700935876749554700,7.7965546875,1.1013201475143433,-4.559961795806885,8.615680694580078
1700935876766558200,7.81355810546875,1.0773881673812866,-4.577099800109863,8.609617233276367
1700935876783542000,7.8305419921875,1.0560739040374756,-4.595492362976074,8.602457046508789
1700935876800546800,7.847546875,1.037575364112854,-4.614306926727295,8.594634056091309
1700935876817533700,7.86453369140625,1.0233230590820312,-4.6339311599731445,8.585780143737793
1700935876834529300,7.881529296875,1.0110876560211182,-4.653745651245117,8.576506614685059
1700935876851521000,7.89852099609375,0.9981732368469238,-4.671175003051758,8.568541526794434
1700935876868516000,7.91551611328125,0.9850845336914062,-4.6858320236206055,8.562049865722656
1700935876885507600,7.932507568359375,0.9715681076049805,-4.697063446044922,8.557439804077148
1700935876902500400,7.949500244140625,0.9573222398757935,-4.703678131103516,8.555411338806152
1700935876919492400,7.966492431640625,0.9452348947525024,-4.70566463470459,8.5556640625
1700935876936486000,7.98348583984375,0.9366216659545898,-4.704154014587402,8.557439804077148
1700935876953468200,8.00046826171875,0.9357436895370483,-4.701546669006348,8.558968544006348
1700935876970471400,8.017471435546875,0.9408500790596008,-4.699325084686279,8.559629440307617
1700935876987464200,8.034464111328125,0.9452843070030212,-4.695371627807617,8.561308860778809
1700935877004457200,8.051457275390625,0.9457810521125793,-4.689709663391113,8.564358711242676
1700935877021449700,8.06844970703125,0.9433161616325378,-4.682295322418213,8.568685531616211
1700935877038442500,8.0854423828125,0.9414190053939819,-4.673918724060059,8.573467254638672
1700935877055435500,8.102435546875,0.9412397742271423,-4.6694722175598145,8.575910568237305
1700935877072428000,8.119427978515626,0.9455605745315552,-4.672613620758057,8.573722839355469
1700935877089420800,8.1364208984375,0.9508549571037292,-4.680394172668457,8.568891525268555
1700935877106413800,8.153413818359375,0.953922688961029,-4.689754962921143,8.563431739807129
1700935877123406800,8.17040673828125,0.9567705988883972,-4.697593688964844,8.558816909790039
1700935877140399000,8.187399169921875,0.958918571472168,-4.700101852416992,8.557198524475098
1700935877157392000,8.204391845703125,0.9598421454429626,-4.696196556091309,8.559237480163574
1700935877174385000,8.221385009765624,0.9593392610549927,-4.688536643981934,8.563491821289062
1700935877191377700,8.238377685546874,0.9578871130943298,-4.6813483238220215,8.567585945129395
1700935877208370400,8.255370361328126,0.9564919471740723,-4.676334381103516,8.570479393005371
1700935877225363200,8.27236328125,0.9525406956672668,-4.674458980560303,8.571943283081055
1700935877242353200,8.289353271484375,0.9470834732055664,-4.676009654998779,8.57170295715332
1700935877259348700,8.3063486328125,0.9408141374588013,-4.6803789138793945,8.570008277893066
1700935877276344000,8.323343994140625,0.934629499912262,-4.684772968292236,8.568283081054688
1700935877293334000,8.340333984375,0.9273439049720764,-4.686666965484619,8.568039894104004
1700935877310326800,8.357326904296874,0.9203637838363647,-4.687117576599121,8.5685453414917
1700935877327319800,8.37431982421875,0.9167399406433105,-4.687314510345459,8.568826675415039
1700935877344312300,8.391312255859376,0.9180158376693726,-4.687705039978027,8.568476676940918
1700935877361305300,8.408305419921875,0.9235852956771851,-4.68768835067749,8.567887306213379
1700935877378298000,8.425298095703125,0.9300774335861206,-4.688687324523926,8.56663703918457
1700935877395291000,8.442290771484375,0.9358106255531311,-4.690920829772949,8.564789772033691
1700935877412283600,8.45928369140625,0.9408594369888306,-4.691771030426025,8.56377124786377
1700935877429276200,8.476276123046874,0.9465903043746948,-4.692553520202637,8.562711715698242
1700935877446269200,8.493269287109374,0.9542969465255737,-4.694383144378662,8.560853004455566
1700935877463262000,8.510261962890626,0.9648336172103882,-4.697041034698486,8.55821418762207
1700935877480252200,8.527252197265625,0.9762023687362671,-4.700962543487549,8.554771423339844
1700935877497250000,8.54425,0.9872413277626038,-4.703757286071777,8.55196762084961
1700935877514240300,8.561240234375,0.9982434511184692,-4.705971717834473,8.549471855163574
1700935877531225300,8.578225341796875,1.0134567022323608,-4.7103400230407715,8.54527473449707
1700935877548225500,8.5952255859375,1.0308501720428467,-4.715987682342529,8.540077209472656
1700935877565218300,8.61221826171875,1.0473582744598389,-4.723479270935059,8.533926010131836
1700935877582213400,8.62921337890625,1.0611152648925781,-4.733703136444092,8.526558876037598
1700935877599202000,8.6462021484375,1.0729562044143677,-4.745369911193848,8.518588066101074
1700935877616196900,8.66319677734375,1.0852915048599243,-4.755049705505371,8.511625289916992
1700935877633190000,8.68018994140625,1.099075436592102,-4.762070178985596,8.505928993225098
1700935877650181600,8.697181640625,1.1139194965362549,-4.767740726470947,8.500822067260742
1700935877667175000,8.7141748046875,1.1314023733139038,-4.773030757904053,8.495542526245117
1700935877684157200,8.7311572265625,1.150651454925537,-4.776261329650879,8.49113941192627
1700935877701160400,8.748160400390624,1.168631911277771,-4.778114318847656,8.487641334533691
1700935877718153200,8.7651533203125,1.1846897602081299,-4.776930809020996,8.48608112335205
1700935877735146500,8.782146484375,1.1974616050720215,-4.770849227905273,8.487709045410156
1700935877752138800,8.799138671875,1.2055190801620483,-4.761216163635254,8.491976737976074
1700935877769131800,8.8161318359375,1.2115472555160522,-4.751417636871338,8.496604919433594
1700935877786124500,8.83312451171875,1.215620994567871,-4.742546558380127,8.50097942352295
1700935877803117300,8.850117431640625,1.2185331583023071,-4.7349724769592285,8.504782676696777
1700935877820109800,8.86710986328125,1.220484972000122,-4.729287147521973,8.507665634155273
1700935877837102800,8.884102783203126,1.219804048538208,-4.723626613616943,8.510907173156738
1700935877854095600,8.901095703125,1.2164937257766724,-4.716668605804443,8.515238761901855
1700935877871088400,8.91808837890625,1.2120985984802246,-4.709679126739502,8.519733428955078
1700935877888081400,8.935081298828125,1.206032156944275,-4.7044219970703125,8.523497581481934
1700935877905063400,8.9520634765625,1.1986898183822632,-4.701862812042236,8.525945663452148
1700935877922066700,8.969066650390625,1.191211462020874,-4.70290470123291,8.526420593261719
1700935877939059500,8.9860595703125,1.1826874017715454,-4.705883979797363,8.525961875915527
1700935877956052200,9.00305224609375,1.1736888885498047,-4.710432052612305,8.524694442749023
1700935877973045200,9.020045166015626,1.1648732423782349,-4.715514659881592,8.523093223571777
1700935877990037500,9.03703759765625,1.1544535160064697,-4.720232963562012,8.521899223327637
1700935878007030800,9.05403076171875,1.141993761062622,-4.725020408630371,8.52092456817627
1700935878024023600,9.0710234375,1.1288825273513794,-4.73148775100708,8.519082069396973
1700935878041016300,9.088016357421875,1.1186925172805786,-4.741677761077881,8.51476001739502
1700935878058008800,9.1050087890625,1.1115087270736694,-4.7539472579956055,8.508855819702148
1700935878075001600,9.122001708984374,1.1051156520843506,-4.768753528594971,8.5014009475708
1700935878092008200,9.13900830078125,1.0987775325775146,-4.786769390106201,8.49209213256836
1700935878108987400,9.1559873046875,1.092305302619934,-4.805776596069336,8.482187271118164
1700935878125980200,9.172980224609375,1.085970401763916,-4.820478916168213,8.474655151367188
1700935878142973000,9.189972900390625,1.0812656879425049,-4.8278703689575195,8.471047401428223
1700935878159965700,9.206965576171875,1.0790718793869019,-4.829639911651611,8.470319747924805
1700935878176958200,9.223958251953125,1.0805798768997192,-4.829212188720703,8.470370292663574
1700935878193951000,9.240950927734374,1.0844833850860596,-4.830535411834717,8.469117164611816
1700935878210943700,9.25794384765625,1.0897941589355469,-4.834967613220215,8.465906143188477
1700935878227936800,9.274936767578126,1.094346523284912,-4.840317726135254,8.462259292602539
1700935878244929500,9.291929443359376,1.0964503288269043,-4.844943046569824,8.459339141845703
1700935878261923000,9.308923095703125,1.0965555906295776,-4.849397659301758,8.456774711608887
1700935878278914300,9.325914306640625,1.0981054306030273,-4.855266571044922,8.453203201293945
1700935878295907800,9.342907958984375,1.102548360824585,-4.860758304595947,8.449468612670898
1700935878312900600,9.359900634765625,1.1080608367919922,-4.864030361175537,8.44686508178711
1700935878329890600,9.376890625,1.114155650138855,-4.865293979644775,8.445335388183594
1700935878346888400,9.393888427734375,1.1203762292861938,-4.864701271057129,8.444852828979492
1700935878363879000,9.41087890625,1.1269330978393555,-4.863439559936523,8.444708824157715
1700935878380871700,9.42787158203125,1.1320631504058838,-4.8615851402282715,8.445089340209961
1700935878397864400,9.444864501953125,1.1332626342773438,-4.8597187995910645,8.446002960205078
1700935878414857200,9.461857177734375,1.1306761503219604,-4.858011245727539,8.447332382202148
1700935878431850000,9.47885009765625,1.128598928451538,-4.858335971832275,8.447422981262207
1700935878448842800,9.4958427734375,1.129461646080017,-4.860013008117676,8.446342468261719
1700935878465835500,9.51283544921875,1.131393313407898,-4.8611626625061035,8.44542121887207
1700935878482823700,9.52982373046875,1.1331486701965332,-4.860375881195068,8.445639610290527
1700935878499814000,9.54681396484375,1.1343300342559814,-4.857591152191162,8.44708251953125
1700935878516813800,9.563813720703125,1.1338090896606445,-4.852030277252197,8.450349807739258
1700935878533806300,9.580806396484375,1.1332988739013672,-4.84421443939209,8.454899787902832
1700935878550797000,9.597797119140624,1.1370338201522827,-4.837055683135986,8.458497047424316
1700935878567794700,9.614794677734375,1.1424068212509155,-4.8321123123168945,8.460597038269043
1700935878584772400,9.6317724609375,1.145506739616394,-4.831697463989258,8.460415840148926
1700935878601769500,9.64876953125,1.1472184658050537,-4.83675479888916,8.457293510437012
1700935878618770400,9.6657705078125,1.1462022066116333,-4.844473361968994,8.453012466430664
1700935878635763200,9.68276318359375,1.1427526473999023,-4.853352069854736,8.448385238647461
1700935878652756000,9.699755859375,1.1393831968307495,-4.861368179321289,8.444230079650879
1700935878669749000,9.7167490234375,1.1396092176437378,-4.8671746253967285,8.4408540725708
1700935878686741500,9.733741455078125,1.1411411762237549,-4.868165969848633,8.440074920654297
1700935878703734500,9.750734619140625,1.1419702768325806,-4.864381790161133,8.442144393920898
1700935878720727000,9.76772705078125,1.1427199840545654,-4.858814239501953,8.445249557495117
1700935878737710600,9.784710693359376,1.145785927772522,-4.854287624359131,8.44743537902832
1700935878754712800,9.801712890625,1.1506808996200562,-4.852769374847412,8.447643280029297
1700935878771701500,9.818701416015625,1.1544337272644043,-4.853464126586914,8.446732521057129
1700935878788702500,9.835702392578124,1.154618740081787,-4.8560872077941895,8.445199012756348
1700935878805691400,9.85269140625,1.1518495082855225,-4.858850002288818,8.443987846374512
1700935878822684000,9.869683837890625,1.1489869356155396,-4.859684467315674,8.44389820098877
1700935878839676400,9.886676513671874,1.148292064666748,-4.859865665435791,8.443889617919922
1700935878856669400,9.90366943359375,1.1488896608352661,-4.860141754150391,8.443648338317871
1700935878873653500,9.920653564453126,1.1509490013122559,-4.861095905303955,8.442817687988281
1700935878890655000,9.937655029296875,1.1531028747558594,-4.863602638244629,8.441082000732422
1700935878907647700,9.954647705078125,1.1545255184173584,-4.8683671951293945,8.438139915466309
1700935878924640500,9.971640625,1.156306505203247,-4.875212669372559,8.433942794799805
1700935878941633300,9.98863330078125,1.1584380865097046,-4.882990837097168,8.42914867401123
1700935878958626300,10.005626220703125,1.1581790447235107,-4.889787673950195,8.42524242401123
1700935878975618800,10.022618896484374,1.1575005054473877,-4.89618444442749,8.42162036895752
1700935878992611300,10.039611328125,1.1593365669250488,-4.902681350708008,8.417586326599121
1700935879009604600,10.0566044921875,1.1617552042007446,-4.908501148223877,8.413860321044922
1700935879026597400,10.073597412109375,1.1628539562225342,-4.914353370666504,8.410292625427246
1700935879043590000,10.09058984375,1.1632696390151978,-4.921379566192627,8.406126022338867
1700935879060566500,10.10756640625,1.1630630493164062,-4.928347587585449,8.402070045471191
1700935879077575400,10.124575439453125,1.1624864339828491,-4.934157848358154,8.398740768432617
1700935879094568200,10.141568115234374,1.1624811887741089,-4.938372611999512,8.396263122558594
1700935879111561000,10.15856103515625,1.1629384756088257,-4.94100284576416,8.394652366638184
1700935879128543200,10.175543212890625,1.1634374856948853,-4.942953109741211,8.393433570861816
1700935879145546800,10.192546630859376,1.1630600690841675,-4.945218563079834,8.392152786254883
1700935879162539300,10.209539306640625,1.1622662544250488,-4.949191570281982,8.389920234680176
1700935879179532300,10.2265322265625,1.1622657775878906,-4.954956531524658,8.386515617370605
1700935879196525000,10.243525146484375,1.1630922555923462,-4.961864471435547,8.382317543029785
1700935879213517600,10.260517578125,1.1633696556091309,-4.969676494598389,8.37764835357666
1700935879230510300,10.27751025390625,1.163397192955017,-4.975459575653076,8.374211311340332
1700935879247503000,10.294503173828126,1.1636091470718384,-4.975915908813477,8.373910903930664
1700935879264495900,10.311495849609376,1.1639219522476196,-4.970957279205322,8.376812934875488
1700935879281489000,10.328489013671875,1.165459156036377,-4.962902069091797,8.381373405456543
1700935879298481700,10.345481689453125,1.1679848432540894,-4.955559730529785,8.38536548614502
1700935879315474400,10.362474365234375,1.1718817949295044,-4.951848030090332,8.387015342712402
1700935879332467500,10.379467529296875,1.176398754119873,-4.952421188354492,8.386043548583984
1700935879349460000,10.3964599609375,1.1808563470840454,-4.953702926635742,8.384660720825195
1700935879366452500,10.413452392578124,1.1840659379959106,-4.951945781707764,8.385246276855469
1700935879383443500,10.430443359375,1.1846458911895752,-4.947964191436768,8.387514114379883
1700935879400440800,10.44744091796875,1.1842048168182373,-4.943125247955322,8.39042854309082
1700935879417430500,10.464430419921875,1.1838624477386475,-4.937816143035889,8.393601417541504
1700935879434424000,10.481424072265625,1.1859022378921509,-4.934753894805908,8.395115852355957
1700935879451417000,10.4984169921875,1.1892848014831543,-4.933330059051514,8.395474433898926
1700935879468409000,10.5154091796875,1.190118670463562,-4.932292461395264,8.395964622497559
1700935879485402400,10.53240234375,1.1856271028518677,-4.9311604499816895,8.397263526916504
1700935879502395000,10.549394775390626,1.1784703731536865,-4.930798053741455,8.398486137390137
1700935879519387600,10.5663876953125,1.1713073253631592,-4.931169033050537,8.399269104003906
1700935879536380700,10.583380615234375,1.1645996570587158,-4.933268070220947,8.398970603942871
1700935879553373400,10.60037353515625,1.159117579460144,-4.938004970550537,8.396943092346191
1700935879570366500,10.617366455078125,1.1544257402420044,-4.943962574005127,8.394084930419922
1700935879587359000,10.63435888671875,1.148798942565918,-4.948859691619873,8.391969680786133
1700935879604351700,10.651351806640625,1.1436163187026978,-4.953629016876221,8.389863014221191
1700935879621344500,10.668344482421874,1.1430935859680176,-4.9587883949279785,8.386887550354004
1700935879638337300,10.685337158203126,1.1445852518081665,-4.96131706237793,8.385188102722168
1700935879655328300,10.702328369140625,1.145009994506836,-4.960888862609863,8.385383605957031
1700935879672324900,10.719324951171876,1.144293189048767,-4.959784030914307,8.38613510131836
1700935879689315600,10.736315673828125,1.1450210809707642,-4.959229469299316,8.386362075805664
1700935879706305800,10.753305908203124,1.1474941968917847,-4.9577107429504395,8.386924743652344
1700935879723304000,10.770303955078125,1.149114727973938,-4.955273628234863,8.388140678405762
1700935879740294100,10.787294189453124,1.150779128074646,-4.952892303466797,8.389318466186523
1700935879757286700,10.80428662109375,1.154320478439331,-4.951677322387695,8.38955020904541
1700935879774279400,10.821279541015626,1.1589272022247314,-4.952491283416748,8.388435363769531
1700935879791272400,10.8382724609375,1.161653757095337,-4.955366611480713,8.386360168457031
1700935879808265200,10.85526513671875,1.1618406772613525,-4.959333896636963,8.383987426757812
1700935879825258000,10.872258056640625,1.1617871522903442,-4.962872505187988,8.381900787353516
1700935879842248000,10.889248046875,1.1642754077911377,-4.964100360870361,8.380828857421875
1700935879859246000,10.90624609375,1.1665514707565308,-4.961385726928711,8.382120132446289
1700935879876236000,10.923236083984374,1.1667587757110596,-4.955359935760498,8.38565444946289
1700935879893228800,10.940228759765626,1.1656334400177002,-4.950079917907715,8.388927459716797
1700935879910221600,10.9572216796875,1.1653536558151245,-4.947961807250977,8.390216827392578
1700935879927211800,10.974211669921875,1.1658520698547363,-4.948756217956543,8.389679908752441
1700935879944210000,10.9912099609375,1.1671881675720215,-4.95078706741333,8.388296127319336
1700935879961205000,11.008205078125,1.1672621965408325,-4.952600002288818,8.387214660644531
1700935879978190300,11.0251904296875,1.1645143032073975,-4.954183578491211,8.386661529541016
1700935879995188200,11.042188232421875,1.160325050354004,-4.956621170043945,8.385802268981934
1700935880012178200,11.05917822265625,1.156036376953125,-4.9592719078063965,8.384827613830566
1700935880029184300,11.076184326171875,1.1526947021484375,-4.961061954498291,8.38422679901123
1700935880046164200,11.093164306640626,1.1506613492965698,-4.961404323577881,8.38430404663086
1700935880063156500,11.110156494140625,1.1482359170913696,-4.959262847900391,8.385903358459473
1700935880080149500,11.1271494140625,1.1432151794433594,-4.95496129989624,8.389131546020508
1700935880097142300,11.144142333984375,1.1378670930862427,-4.95085334777832,8.392282485961914
1700935880114135300,11.16113525390625,1.1358833312988281,-4.948774337768555,8.393779754638672
1700935880131128000,11.178128173828124,1.1360251903533936,-4.947986602783203,8.3942232131958
1700935880148109300,11.195109375,1.1357526779174805,-4.946855068206787,8.394928932189941
1700935880165113600,11.212113525390626,1.1348644495010376,-4.945130348205566,8.396063804626465
1700935880182106600,11.229106689453126,1.1343233585357666,-4.942910194396973,8.397445678710938
1700935880199099000,11.246098876953125,1.1342213153839111,-4.940561771392822,8.398839950561523
1700935880216092200,11.263092041015625,1.134293794631958,-4.938816547393799,8.399855613708496
1700935880233084700,11.280084716796875,1.13446044921875,-4.9369611740112305,8.400923728942871
1700935880250077700,11.29707763671875,1.135196328163147,-4.934805870056152,8.402091026306152
1700935880267070000,11.314070068359374,1.1386476755142212,-4.932561874389648,8.402941703796387
1700935880284062700,11.331062744140626,1.1449111700057983,-4.92986536026001,8.403672218322754
1700935880301055700,11.3480556640625,1.1519936323165894,-4.927104949951172,8.404325485229492
1700935880318045700,11.365045654296875,1.158022403717041,-4.923262119293213,8.405747413635254
1700935880335041500,11.38204150390625,1.1630024909973145,-4.918919086456299,8.407602310180664
1700935880352034000,11.399033935546875,1.1682080030441284,-4.91626501083374,8.408434867858887
1700935880369027000,11.416027099609375,1.1724328994750977,-4.915183067321777,8.408478736877441
1700935880386019800,11.433019775390624,1.1733622550964355,-4.912304401397705,8.410029411315918
1700935880403012400,11.450012451171874,1.1714200973510742,-4.904669761657715,8.414753913879395
1700935880420005000,11.467005126953126,1.170983076095581,-4.891012668609619,8.422760963439941
1700935880436987600,11.483987548828125,1.1734274625778198,-4.8699870109558105,8.434596061706543
1700935880453979000,11.500978759765625,1.1778219938278198,-4.843273639678955,8.449352264404297
1700935880470983700,11.517983642578125,1.1842237710952759,-4.816261291503906,8.463886260986328
1700935880487976400,11.5349765625,1.1930644512176514,-4.793663024902344,8.475465774536133
1700935880504969000,11.551968994140625,1.2046197652816772,-4.775003910064697,8.484358787536621
1700935880521961700,11.568961669921874,1.2197552919387817,-4.760657787322998,8.490257263183594
1700935880538954800,11.585954833984376,1.2339701652526855,-4.750489711761475,8.493896484375
1700935880555947500,11.602947509765626,1.2438031435012817,-4.744794845581055,8.495646476745605
1700935880572940300,11.619940185546875,1.251083493232727,-4.745314598083496,8.49428653717041
1700935880589933000,11.63693310546875,1.2576466798782349,-4.75499153137207,8.487902641296387
1700935880606926000,11.653926025390625,1.264605164527893,-4.773970603942871,8.476208686828613
1700935880623918600,11.670918701171875,1.2692779302597046,-4.798816680908203,8.461466789245605
1700935880640911400,11.687911376953124,1.2693151235580444,-4.824858665466309,8.446639060974121
1700935880657893600,11.7048935546875,1.2664350271224976,-4.8495774269104,8.432902336120605
1700935880674900500,11.721900390625,1.2629168033599854,-4.87523078918457,8.418627738952637
1700935880691901700,11.738901611328124,1.2590008974075317,-4.901886940002441,8.403721809387207
1700935880708882700,11.755882568359375,1.253280520439148,-4.93006706237793,8.388077735900879
1700935880725875200,11.772875244140625,1.2452499866485596,-4.957512855529785,8.373083114624023
1700935880742858000,11.78985791015625,1.2362645864486694,-4.982630252838135,8.359495162963867
1700935880759860700,11.80686083984375,1.228556513786316,-5.005960464477539,8.346684455871582
1700935880776853800,11.823853759765624,1.2224221229553223,-5.027576446533203,8.334583282470703
1700935880793846800,11.8408466796875,1.2154806852340698,-5.0458269119262695,8.324563980102539
1700935880810839300,11.85783935546875,1.2074246406555176,-5.061767578125,8.31605339050293
1700935880827832000,11.87483203125,1.20121169090271,-5.075783729553223,8.308406829833984
1700935880844824800,11.891824951171875,1.1979191303253174,-5.087926387786865,8.301453590393066
1700935880861817900,11.90881787109375,1.195200800895691,-5.098048210144043,8.295632362365723
1700935880878810400,11.925810302734375,1.1921993494033813,-5.107170104980469,8.290452003479004
1700935880895802600,11.942802734375,1.1894128322601318,-5.115665912628174,8.285614013671875
1700935880912797000,11.959796875,1.188170075416565,-5.121685981750488,8.282071113586426
1700935880929788700,11.97678857421875,1.188698649406433,-5.124202251434326,8.280438423156738
1700935880946781400,11.993781494140626,1.1914044618606567,-5.124105930328369,8.280109405517578
1700935880963772000,12.01077197265625,1.197152018547058,-5.1218953132629395,8.280648231506348
1700935880980770000,12.02777001953125,1.2027182579040527,-5.117307186126709,8.282678604125977
1700935880997760000,12.044760009765625,1.2042659521102905,-5.111662864685059,8.285937309265137
1700935881014752800,12.061752685546875,1.2028173208236694,-5.10573148727417,8.28980541229248
1700935881031745500,12.07874560546875,1.2033356428146362,-5.096676826477051,8.29529857635498
1700935881048738300,12.09573828125,1.2086718082427979,-5.08279275894165,8.303038597106934
1700935881065731300,12.1127314453125,1.214785099029541,-5.064694881439209,8.313199996948242
1700935881082715100,12.129715087890625,1.217602014541626,-5.043506145477295,8.325658798217773
1700935881099716900,12.146716796875,1.2178864479064941,-5.020844459533691,8.33930492401123
1700935881116709400,12.16370947265625,1.2195634841918945,-4.998821258544922,8.352278709411621
1700935881133702400,12.180702392578125,1.2240619659423828,-4.977741718292236,8.364202499389648
1700935881150695200,12.197695068359375,1.2278826236724854,-4.956015586853027,8.376534461975098
1700935881167688000,12.21468798828125,1.2288830280303955,-4.934312343597412,8.389189720153809
1700935881184680400,12.231680419921876,1.2284889221191406,-4.914756774902344,8.400718688964844
1700935881201673500,12.248673583984376,1.2298197746276855,-4.898386001586914,8.41008186340332
1700935881218666200,12.265666259765625,1.2311567068099976,-4.885068893432617,8.417628288269043
1700935881235659000,12.282658935546875,1.2300504446029663,-4.874814033508301,8.42373275756836
1700935881252651800,12.29965185546875,1.2288236618041992,-4.867969036102295,8.427870750427246
1700935881269644800,12.316644775390625,1.231511116027832,-4.863499164581299,8.430058479309082
1700935881286637300,12.33363720703125,1.2364414930343628,-4.858929634094238,8.431971549987793
1700935881303628500,12.350628662109376,1.2402456998825073,-4.853862285614014,8.434330940246582
1700935881320634400,12.36763427734375,1.2436209917068481,-4.851626396179199,8.435120582580566
1700935881337605400,12.38460546875,1.2470731735229492,-4.852413177490234,8.434157371520996
1700935881354608600,12.401608642578125,1.249456524848938,-4.855979919433594,8.43175220489502
1700935881371600000,12.418599853515625,1.2517588138580322,-4.860827922821045,8.428616523742676
1700935881388595200,12.43559521484375,1.2534343004226685,-4.8640289306640625,8.426520347595215
1700935881405584400,12.45258447265625,1.2541190385818481,-4.867487907409668,8.424420356750488
1700935881422582300,12.469582275390625,1.25369131565094,-4.872677803039551,8.421483039855957
1700935881439572200,12.486572265625,1.2530995607376099,-4.879703521728516,8.417501449584961
1700935881456565200,12.503565185546876,1.2515144348144531,-4.888330459594727,8.412731170654297
1700935881473558000,12.52055810546875,1.2493897676467896,-4.89900016784668,8.406838417053223
1700935881490550800,12.53755078125,1.2470108270645142,-4.910783290863037,8.400315284729004
1700935881507543600,12.55454345703125,1.2443488836288452,-4.921998023986816,8.394143104553223
1700935881524536300,12.571536376953125,1.241753101348877,-4.9319539070129395,8.38868236541748
1700935881541529300,12.588529296875,1.2372381687164307,-4.938901424407959,8.385261535644531
1700935881558522400,12.6055224609375,1.2301255464553833,-4.942946910858154,8.38392448425293
1700935881575515000,12.622514892578126,1.2247315645217896,-4.948941230773926,8.381176948547363
1700935881592507400,12.63950732421875,1.223684549331665,-4.957864761352539,8.376055717468262
1700935881609500700,12.656500732421875,1.2234323024749756,-4.967548847198486,8.37035083770752
1700935881626493400,12.673493408203125,1.2203551530838013,-4.976730823516846,8.365345001220703
1700935881643486000,12.69048583984375,1.216080904006958,-4.985267162322998,8.360883712768555
1700935881660478700,12.707478759765625,1.213240623474121,-4.99084997177124,8.357966423034668
1700935881677471500,12.724471435546874,1.211311936378479,-4.990784645080566,8.358283996582031
1700935881694461400,12.74146142578125,1.2078827619552612,-4.9859938621521,8.361638069152832
1700935881711459600,12.75845947265625,1.2058824300765991,-4.979010581970215,8.366086959838867
1700935881728440300,12.7754404296875,1.2083748579025269,-4.971306324005127,8.370307922363281
1700935881745442800,12.79244287109375,1.2138954401016235,-4.964056968688965,8.373810768127441
1700935881762435300,12.809435302734375,1.2195743322372437,-4.9585394859313965,8.37625503540039
1700935881779415800,12.826415771484376,1.2216544151306152,-4.952594757080078,8.379467010498047
1700935881796411000,12.843410888671874,1.2195792198181152,-4.946234226226807,8.383524894714355
1700935881813412900,12.860412841796874,1.2168258428573608,-4.94145393371582,8.386744499206543
1700935881830409200,12.8774091796875,1.2166457176208496,-4.937382221221924,8.389168739318848
1700935881847396900,12.89439697265625,1.2177990674972534,-4.933741569519043,8.391143798828125
1700935881864394800,12.911394775390624,1.2187392711639404,-4.931474685668945,8.392339706420898
1700935881881385000,12.928385009765625,1.219456434249878,-4.93084192276001,8.392607688903809
1700935881898378000,12.9453779296875,1.221861720085144,-4.931614875793457,8.391801834106445
1700935881915370800,12.962370849609375,1.224567174911499,-4.931421279907227,8.391522407531738
1700935881932365000,12.979364990234375,1.225293755531311,-4.930627822875977,8.391880989074707
1700935881949354800,12.996354736328126,1.2244689464569092,-4.931180477142334,8.391676902770996
1700935881966345500,13.013345458984375,1.2232658863067627,-4.932982444763184,8.390793800354004
1700935881983345200,13.03034521484375,1.2220932245254517,-4.935853481292725,8.389275550842285
1700935882000321000,13.047321044921874,1.2208644151687622,-4.939444541931152,8.387341499328613
1700935882017327600,13.06432763671875,1.2197257280349731,-4.943089962005615,8.385357856750488
1700935882034320000,13.08131982421875,1.2179852724075317,-4.9462056159973145,8.383773803710938
1700935882051313000,13.09831298828125,1.2154847383499146,-4.948058128356934,8.383044242858887
1700935882068306000,13.115305908203124,1.2137126922607422,-4.949676036834717,8.382346153259277
1700935882085298700,13.132298583984374,1.2126909494400024,-4.951838970184326,8.381216049194336
1700935882102291200,13.149291259765626,1.211335301399231,-4.954475402832031,8.379854202270508
1700935882119284000,13.166283935546875,1.2102172374725342,-4.957300662994385,8.378345489501953
1700935882136277000,13.183277099609375,1.2090545892715454,-4.959108829498291,8.37744140625
1700935882153269500,13.20026953125,1.2073787450790405,-4.958913326263428,8.377799987792969
1700935882170259700,13.217259765625,1.2050690650939941,-4.9562249183654785,8.37972354888916
1700935882187257900,13.2342578125,1.202775001525879,-4.9527153968811035,8.382126808166504
1700935882204245800,13.251245849609376,1.2014011144638062,-4.951300621032715,8.383160591125488
1700935882221243100,13.2682431640625,1.2002050876617432,-4.953640937805176,8.381948471069336
1700935882238223400,13.285223388671875,1.1981322765350342,-4.959143161773682,8.37899112701416
1700935882255231200,13.302231201171875,1.196547031402588,-4.96445894241333,8.376070976257324
1700935882272219400,13.319219482421875,1.1973267793655396,-4.966493129730225,8.37475299835205
1700935882289212200,13.336212158203125,1.2002191543579102,-4.965485095977783,8.3749361038208
1700935882306205000,13.353204833984375,1.2019493579864502,-4.9628705978393555,8.376238822937012
1700935882323197700,13.37019775390625,1.2006804943084717,-4.958449840545654,8.379036903381348
1700935882340190500,13.3871904296875,1.1973776817321777,-4.953066825866699,8.382692337036133
1700935882357196000,13.404196044921875,1.19619619846344,-4.949344158172607,8.385059356689453
1700935882374176000,13.421176025390626,1.1987111568450928,-4.948477745056152,8.385212898254395
1700935882391168800,13.438168701171875,1.1995426416397095,-4.9491143226623535,8.38471794128418
1700935882408161800,13.455161865234375,1.1948745250701904,-4.949103355407715,8.38538932800293
1700935882425154600,13.472154541015625,1.1883548498153687,-4.948735237121582,8.386534690856934
1700935882442147300,13.489147216796875,1.185168981552124,-4.9477667808532715,8.387556076049805
1700935882459140000,13.50614013671875,1.184108018875122,-4.943588733673096,8.390169143676758
1700935882476132900,13.5231328125,1.182519555091858,-4.937499523162842,8.3939790725708
1700935882493125400,13.54012548828125,1.1807599067687988,-4.93186092376709,8.397539138793945
1700935882510118700,13.55711865234375,1.1793913841247559,-4.928033351898193,8.399979591369629
1700935882527111400,13.574111328125,1.179120659828186,-4.9269633293151855,8.40064525604248
1700935882544104000,13.59110400390625,1.1790419816970825,-4.928037643432617,8.400025367736816
1700935882561097000,13.608096923828125,1.1789087057113647,-4.93080997467041,8.398415565490723
1700935882578086700,13.625086669921876,1.1780295372009277,-4.9340972900390625,8.39660930633545
1700935882595085800,13.6420859375,1.1747937202453613,-4.936145305633545,8.395858764648438
1700935882612075000,13.659074951171876,1.1694996356964111,-4.937004566192627,8.396092414855957
1700935882629068000,13.676068115234376,1.1653627157211304,-4.9378743171691895,8.396157264709473
1700935882646047500,13.693047607421875,1.162498116493225,-4.939058303833008,8.395857810974121
1700935882663056100,13.71005615234375,1.1595028638839722,-4.940672397613525,8.395320892333984
1700935882680046300,13.72704638671875,1.1563749313354492,-4.943302631378174,8.394205093383789
1700935882697039000,13.7440390625,1.1531212329864502,-4.945475101470947,8.393373489379883
1700935882714030000,13.761030029296874,1.1482341289520264,-4.947317600250244,8.392955780029297
1700935882731026400,13.7780263671875,1.1431151628494263,-4.950010299682617,8.392068862915039
1700935882748017400,13.795017333984376,1.1380687952041626,-4.952924728393555,8.391035079956055
1700935882765010400,13.812010498046876,1.132181167602539,-4.9555559158325195,8.390276908874512
1700935882782003500,13.82900341796875,1.1266757249832153,-4.957333564758301,8.389967918395996
1700935882798995700,13.84599560546875,1.1211398839950562,-4.957840442657471,8.390411376953125
1700935882815988700,13.86298876953125,1.1156978607177734,-4.9595208168029785,8.390141487121582
1700935882832981500,13.8799814453125,1.1111770868301392,-4.96331262588501,8.38849925994873
1700935882849974300,13.896974365234374,1.1065067052841187,-4.968369483947754,8.386123657226562
1700935882866967000,13.913967041015624,1.099642038345337,-4.9727044105529785,8.3844575881958
1700935882883959800,13.930959716796876,1.091334342956543,-4.97451114654541,8.384469985961914
1700935882900952600,13.94795263671875,1.0839489698410034,-4.973638534545898,8.385946273803711
1700935882917945300,13.9649453125,1.0787426233291626,-4.969552993774414,8.3890380859375
1700935882934938600,13.981938720703125,1.07305908203125,-4.963322639465332,8.393455505371094
1700935882951931100,13.99893115234375,1.0670666694641113,-4.958034038543701,8.397344589233398
1700935882968924000,14.015923828125,1.0626425743103027,-4.954564571380615,8.399951934814453
1700935882985916400,14.03291650390625,1.0581998825073242,-4.951131820678711,8.40253734588623
1700935883002909200,14.0499091796875,1.0516767501831055,-4.94687557220459,8.405861854553223
1700935883019884000,14.066884033203126,1.0461657047271729,-4.94393253326416,8.408281326293945
1700935883036876000,14.0838759765625,1.04301118850708,-4.941793441772461,8.409930229187012
1700935883053888500,14.100888427734375,1.0394481420516968,-4.939218044281006,8.411884307861328
1700935883070878200,14.117878173828124,1.03537118434906,-4.937977313995361,8.413115501403809
1700935883087865600,14.134865478515625,1.0328551530838013,-4.938690662384033,8.413004875183105
1700935883104866300,14.1518662109375,1.0326390266418457,-4.941704273223877,8.411261558532715
1700935883121859300,14.168859375,1.0332705974578857,-4.94577169418335,8.408793449401855
1700935883138850600,14.1858505859375,1.0345326662063599,-4.951182842254639,8.4054536819458
1700935883155844400,14.20284423828125,1.0374960899353027,-4.957534313201904,8.401344299316406
1700935883172837600,14.219837646484375,1.0417025089263916,-4.962615966796875,8.397821426391602
1700935883189830100,14.236830078125,1.0462265014648438,-4.9673380851745605,8.3944673538208
1700935883206823000,14.253822998046875,1.0543179512023926,-4.972044467926025,8.390666961669922
1700935883223815700,14.270815673828125,1.0651832818984985,-4.976207256317139,8.38682746887207
1700935883240809000,14.28780908203125,1.076892614364624,-4.980231761932373,8.382942199707031
1700935883257801500,14.304801513671874,1.0883493423461914,-4.984627723693848,8.378849029541016
1700935883274784000,14.321783935546875,1.0985716581344604,-4.988885402679443,8.374979019165039
1700935883291786800,14.338786865234376,1.1066466569900513,-4.991990566253662,8.372066497802734
1700935883308780000,14.355780029296875,1.112176775932312,-4.993698596954346,8.370314598083496
1700935883325772800,14.372772705078125,1.117354154586792,-4.99488639831543,8.368914604187012
1700935883342765300,14.389765380859375,1.1224786043167114,-4.996248722076416,8.367416381835938
1700935883359758000,14.406758056640625,1.1279326677322388,-4.9977707862854,8.36577320098877
1700935883376751000,14.423751220703124,1.1324925422668457,-4.998847007751465,8.36451530456543
1700935883393743600,14.44074365234375,1.1358041763305664,-4.997187614440918,8.365056991577148
1700935883410738200,14.45773828125,1.1391712427139282,-4.9952712059021,8.365744590759277
1700935883427728100,14.47472802734375,1.1439712047576904,-4.996572494506836,8.364312171936035
1700935883444722000,14.491721923828125,1.146751880645752,-5.000414848327637,8.3616361618042
1700935883461715200,14.508715087890625,1.146748661994934,-5.004629611968994,8.359114646911621
1700935883478707700,14.525707763671875,1.1465063095092773,-5.007548809051514,8.35739803314209
1700935883495700700,14.54270068359375,1.1472927331924438,-5.007626533508301,8.357243537902832
1700935883512693500,14.559693603515624,1.1472123861312866,-5.003057956695557,8.359990119934082
1700935883529686000,14.57668603515625,1.1469533443450928,-4.995855331420898,8.364331245422363
1700935883546679000,14.593678955078126,1.1467527151107788,-4.98895263671875,8.368477821350098
1700935883563671800,14.610671875,1.1481680870056152,-4.98434591293335,8.371028900146484
1700935883580664600,14.62766455078125,1.1495985984802246,-4.981515884399414,8.372516632080078
1700935883597657000,14.644656982421875,1.150755524635315,-4.979671478271484,8.373454093933105
1700935883614650000,14.661650146484375,1.1512571573257446,-4.978769779205322,8.373923301696777
1700935883631643000,14.678642822265624,1.1498900651931763,-4.97903299331665,8.373953819274902
1700935883648635600,14.6956357421875,1.147996425628662,-4.980482578277588,8.37335205078125
1700935883665628400,14.71262841796875,1.1475485563278198,-4.982895851135254,8.371977806091309
1700935883682615600,14.729615478515624,1.1492044925689697,-4.985550880432129,8.37016773223877
1700935883699614200,14.7466142578125,1.1521222591400146,-4.98805570602417,8.368273735046387
1700935883716606700,14.763606689453125,1.1552300453186035,-4.990419387817383,8.366436958312988
1700935883733596400,14.780596435546874,1.1587947607040405,-4.992679595947266,8.364596366882324
1700935883750585000,14.797585205078125,1.1613497734069824,-4.9932403564453125,8.363906860351562
1700935883767585300,14.814585205078124,1.1617547273635864,-4.990175247192383,8.365678787231445
1700935883784578000,14.831578125,1.1631892919540405,-4.986073017120361,8.367925643920898
1700935883801570800,14.84857080078125,1.167272686958313,-4.984015464782715,8.368581771850586
1700935883818563800,14.865563720703125,1.171794056892395,-4.983046531677246,8.36852741241455
1700935883835556600,14.882556640625,1.1731631755828857,-4.982737064361572,8.36851978302002
1700935883852549600,14.899549560546875,1.1730786561965942,-4.982560157775879,8.368638038635254
1700935883869542100,14.916542236328125,1.1755499839782715,-4.9825119972229,8.36832046508789
1700935883886538500,14.93353857421875,1.180808424949646,-4.981466770172119,8.36820125579834
1700935883903524600,14.950524658203125,1.1864761114120483,-4.978170871734619,8.36936092376709
1700935883920520700,14.967520751953124,1.1897183656692505,-4.973660945892334,8.37158203125
1700935883937513500,14.984513427734376,1.190924048423767,-4.968886375427246,8.374245643615723
1700935883954506000,15.001506103515625,1.1929142475128174,-4.963050365447998,8.377421379089355
1700935883971496700,15.01849658203125,1.19572114944458,-4.95409631729126,8.38232135772705
1700935883988494300,15.035494384765625,1.1991127729415894,-4.943803310394287,8.387911796569824
1700935884005481700,15.052481689453124,1.2036830186843872,-4.933956623077393,8.39305305480957
1700935884022480100,15.069480224609375,1.2084336280822754,-4.924922943115234,8.397674560546875
1700935884039470000,15.086469970703124,1.2101781368255615,-4.916101932525635,8.40259075164795
1700935884056455200,15.103455078125,1.2077710628509521,-4.908055782318115,8.407639503479004
1700935884073455600,15.12045556640625,1.2058295011520386,-4.901610374450684,8.411677360534668
1700935884090448600,15.13744873046875,1.208449125289917,-4.895860195159912,8.414648056030273
1700935884107448800,15.15444873046875,1.213143229484558,-4.890365123748779,8.417167663574219
1700935884124434200,15.17143408203125,1.2177119255065918,-4.886325836181641,8.418854713439941
1700935884141427000,15.188427001953125,1.2208060026168823,-4.88404655456543,8.419729232788086
1700935884158419700,15.205419677734374,1.224514365196228,-4.8840484619140625,8.419190406799316
1700935884175420000,15.222419921875,1.2297215461730957,-4.8873515129089355,8.416513442993164
1700935884192405500,15.239405517578126,1.2340396642684937,-4.892912864685059,8.412649154663086
1700935884209398300,15.256398193359376,1.2370878458023071,-4.900323390960693,8.40788745880127
1700935884226391000,15.27339111328125,1.241032361984253,-4.90973424911499,8.401814460754395
1700935884243383800,15.2903837890625,1.2459934949874878,-4.918258190155029,8.396092414855957
1700935884260376800,15.307376953125,1.2491778135299683,-4.925632476806641,8.3912935256958
1700935884277369300,15.324369384765625,1.2477531433105469,-4.9333906173706055,8.386947631835938
1700935884294362400,15.3413623046875,1.2429672479629517,-4.943939208984375,8.381443977355957
1700935884311354400,15.358354248046876,1.2364672422409058,-4.956933498382568,8.374728202819824
1700935884328348200,15.37534814453125,1.230427622795105,-4.971938610076904,8.366720199584961
1700935884345340700,15.392340576171875,1.2288278341293335,-4.986917495727539,8.35803508758545
1700935884362333400,15.40933349609375,1.2289067506790161,-5.000916004180908,8.349655151367188
1700935884379323600,15.42632373046875,1.2270539999008179,-5.015116214752197,8.34140682220459
1700935884396321500,15.443321533203125,1.223899483680725,-5.030214786529541,8.332775115966797
1700935884413312000,15.46031201171875,1.2197359800338745,-5.046478748321533,8.323545455932617
1700935884430304500,15.477304443359374,1.2152148485183716,-5.06289529800415,8.31423282623291
1700935884447297300,15.49429736328125,1.2096948623657227,-5.078934192657471,8.305249214172363
1700935884464290300,15.511290283203126,1.203473448753357,-5.0928192138671875,8.297648429870605
1700935884481283000,15.528282958984375,1.1963862180709839,-5.105188846588135,8.291068077087402
1700935884498275800,15.54527587890625,1.1870237588882446,-5.116544246673584,8.285412788391113
1700935884515268900,15.562268798828125,1.1758248805999756,-5.126248359680176,8.28100872039795
1700935884532261600,15.57926171875,1.1649010181427002,-5.133056163787842,8.278338432312012
1700935884549254100,15.596254150390624,1.1547576189041138,-5.1366705894470215,8.27751636505127
1700935884566247200,15.6132470703125,1.152577519416809,-5.137705326080322,8.277178764343262
1700935884583239700,15.63023974609375,1.1567891836166382,-5.135097980499268,8.278206825256348
1700935884600232700,15.647232666015626,1.1543456315994263,-5.128595352172852,8.28257942199707
1700935884617225500,15.6642255859375,1.1406947374343872,-5.119559288024902,8.290057182312012
1700935884634218200,15.68121826171875,1.122490644454956,-5.106947898864746,8.300314903259277
1700935884651211000,15.6982109375,1.1083353757858276,-5.0910725593566895,8.311962127685547
1700935884668204000,15.7152041015625,1.0994470119476318,-5.072909832000732,8.324236869812012
1700935884685196800,15.73219677734375,1.093355417251587,-5.0532097816467285,8.33701229095459
1700935884702189300,15.749189208984374,1.088880181312561,-5.033344268798828,8.349604606628418
1700935884719182000,15.76618212890625,1.0837806463241577,-5.013919830322266,8.361947059631348
1700935884736175000,15.783175048828125,1.075355887413025,-4.994875907897949,8.374422073364258
1700935884753167600,15.800167724609375,1.0650603771209717,-4.977174758911133,8.38626766204834
1700935884770156000,15.817156005859376,1.055334210395813,-4.960711479187012,8.397245407104492
1700935884787158300,15.834158203125,1.0505985021591187,-4.944269180297852,8.407530784606934
1700935884804146200,15.851146240234375,1.0503581762313843,-4.929106712341309,8.416460037231445
1700935884821139000,15.868138916015624,1.0519120693206787,-4.916679859161377,8.423529624938965
1700935884838131700,15.885131591796876,1.052247166633606,-4.906684398651123,8.429314613342285
1700935884855124200,15.902124267578126,1.0514060258865356,-4.896478652954102,8.435351371765137
1700935884872117800,15.91911767578125,1.0489226579666138,-4.885108947753906,8.442249298095703
1700935884889110300,15.9361103515625,1.046995759010315,-4.871806621551514,8.45017147064209
1700935884906103000,15.95310302734375,1.0483745336532593,-4.855364799499512,8.45945930480957
1700935884923096000,15.970095947265625,1.0539709329605103,-4.835376739501953,8.470208168029785
1700935884940088600,15.987088623046875,1.0606273412704468,-4.814695358276367,8.48115062713623
1700935884957070300,16.0040703125,1.0649341344833374,-4.795752048492432,8.491337776184082
1700935884974063900,16.02106396484375,1.0678746700286865,-4.780451774597168,8.499591827392578
1700935884991069400,16.0380693359375,1.0712766647338867,-4.7684245109558105,8.505916595458984
1700935885008060000,16.055059814453124,1.072589635848999,-4.758950710296631,8.511054992675781
1700935885025052700,16.072052734375,1.0721460580825806,-4.750638961791992,8.515754699707031
1700935885042043600,16.089043701171875,1.0720365047454834,-4.741755962371826,8.520715713500977
1700935885059040000,16.1060400390625,1.0726486444473267,-4.732361316680908,8.525860786437988
1700935885076020700,16.123020751953124,1.0747469663619995,-4.7254767417907715,8.529413223266602
1700935885093013500,16.140013427734374,1.0770244598388672,-4.720454216003418,8.531907081604004
1700935885110016500,16.1570166015625,1.0759762525558472,-4.716672420501709,8.534132957458496
1700935885127009500,16.174009521484376,1.0709705352783203,-4.715511798858643,8.535402297973633
1700935885144002300,16.191002197265625,1.0637085437774658,-4.716755390167236,8.535622596740723
1700935885160995000,16.2079951171875,1.054819941520691,-4.720603942871094,8.534598350524902
1700935885177987800,16.22498779296875,1.044460654258728,-4.72678279876709,8.532453536987305
1700935885194970600,16.241970703125,1.0315126180648804,-4.732434272766113,8.530895233154297
1700935885211970800,16.258970703125,1.0178271532058716,-4.7363457679748535,8.530367851257324
1700935885228969200,16.27596923828125,1.0057518482208252,-4.740067958831787,8.529732704162598
1700935885245948400,16.292948486328125,0.9954835176467896,-4.74493408203125,8.52823257446289
1700935885262944500,16.309944580078124,0.9863986968994141,-4.75182580947876,8.5254487991333
1700935885279945000,16.326945068359375,0.976047694683075,-4.760534763336182,8.521781921386719
1700935885296937500,16.3439375,0.9648649096488953,-4.770112991333008,8.517698287963867
1700935885313930500,16.360930419921875,0.9541282057762146,-4.778429985046387,8.51424503326416
1700935885330923300,16.37792333984375,0.9448714852333069,-4.784714221954346,8.511747360229492
1700935885347906800,16.39490673828125,0.9366135001182556,-4.788331985473633,8.510625839233398
1700935885364919000,16.4119189453125,0.9306840896606445,-4.789000034332275,8.51090145111084
1700935885381901800,16.42890185546875,0.9279537200927734,-4.787059307098389,8.512290000915527
1700935885398894300,16.445894287109375,0.9273804426193237,-4.782402515411377,8.514969825744629
1700935885415887400,16.462887451171873,0.9279642701148987,-4.773902893066406,8.519673347473145
1700935885432880000,16.479880126953127,0.9264527559280396,-4.760752201080322,8.527194023132324
1700935885449873000,16.496872802734377,0.9228599667549133,-4.745388031005859,8.536142349243164
1700935885466865700,16.51386572265625,0.9202909469604492,-4.729864597320557,8.545031547546387
1700935885483858700,16.530858642578124,0.9191595315933228,-4.714371681213379,8.553709983825684
1700935885500851200,16.547851318359374,0.9191226959228516,-4.700680255889893,8.561245918273926
1700935885517844200,16.56484423828125,0.9179389476776123,-4.688915252685547,8.567822456359863
1700935885534837200,16.581837158203125,0.915154755115509,-4.678348064422607,8.573895454406738
1700935885551829800,16.598829833984375,0.9115753769874573,-4.668029308319092,8.5798978805542
1700935885568820500,16.615820556640625,0.9076381921768188,-4.65808629989624,8.58571720123291
1700935885585817600,16.632817626953123,0.9033568501472473,-4.648155212402344,8.591548919677734
1700935885602808300,16.649808349609376,0.8987576961517334,-4.637969493865967,8.5975341796875
1700935885619801000,16.666801025390626,0.8947439193725586,-4.628628253936768,8.602984428405762
1700935885636787700,16.68378759765625,0.8914849758148193,-4.619883060455322,8.608022689819336
1700935885653786400,16.700786376953126,0.8908981680870056,-4.611171245574951,8.612752914428711
1700935885670779600,16.717779541015624,0.8929227590560913,-4.6027021408081055,8.617072105407715
1700935885687772200,16.734772216796873,0.8949707746505737,-4.59527063369751,8.620824813842773
1700935885704765200,16.75176513671875,0.895757794380188,-4.590663433074951,8.623199462890625
1700935885721758000,16.768758056640625,0.896565318107605,-4.588706970214844,8.624156951904297
1700935885738750500,16.78575048828125,0.8984677195549011,-4.588330268859863,8.624157905578613
1700935885755743500,16.802743408203124,0.9000818133354187,-4.589221954345703,8.623516082763672
1700935885772736000,16.819736083984374,0.900649905204773,-4.590885639190674,8.622570991516113
1700935885789729000,16.83672900390625,0.9017801284790039,-4.593502521514893,8.621057510375977
1700935885806722000,16.85372216796875,0.9054226875305176,-4.599259376525879,8.617607116699219
1700935885823714600,16.870714599609375,0.9110427498817444,-4.60926628112793,8.611665725708008
1700935885840696800,16.88769677734375,0.9156453609466553,-4.621672630310059,8.604524612426758
1700935885857700000,16.9047001953125,0.9172346591949463,-4.6350884437561035,8.597137451171875
1700935885874676500,16.921676513671876,0.915318489074707,-4.648722171783447,8.58997631072998
1700935885891685400,16.938685302734374,0.9116917848587036,-4.6607465744018555,8.583844184875488
1700935885908678700,16.9556787109375,0.9089207649230957,-4.670887470245361,8.57862377166748
1700935885925671200,16.972671142578125,0.9099589586257935,-4.681381702423096,8.572793006896973
1700935885942664400,16.98966455078125,0.9135377407073975,-4.692440032958984,8.566363334655762
1700935885959654700,17.006654541015624,0.9183496832847595,-4.702873706817627,8.560125350952148
1700935885976652800,17.02365283203125,0.9200482964515686,-4.711366653442383,8.555270195007324
1700935885993643000,17.04064306640625,0.9169200658798218,-4.717066764831543,8.552465438842773
1700935886010635500,17.057635498046874,0.9097604155540466,-4.719615459442139,8.551823616027832
1700935886027628300,17.074628173828124,0.903090238571167,-4.71906042098999,8.552836418151855
1700935886044621300,17.091621337890626,0.8999201655387878,-4.716198921203613,8.55474853515625
1700935886061613800,17.10861376953125,0.8994520902633667,-4.710196018218994,8.558104515075684
1700935886078606800,17.12560693359375,0.9010440111160278,-4.700857162475586,8.563070297241211
1700935886095597000,17.14259716796875,0.9052785634994507,-4.689009666442871,8.56911849975586
1700935886112595200,17.15959521484375,0.9083734750747681,-4.6739115715026855,8.577034950256348
1700935886129585400,17.17658544921875,0.9081346392631531,-4.657039642333984,8.58623218536377
1700935886146578000,17.193577880859376,0.9068713188171387,-4.640845775604248,8.59512996673584
1700935886163571000,17.210571044921874,0.9094812273979187,-4.6265435218811035,8.602561950683594
1700935886180563700,17.227563720703124,0.9148328900337219,-4.6127214431762695,8.609415054321289
1700935886197556200,17.24455615234375,0.922433078289032,-4.600071907043457,8.615368843078613
1700935886214549200,17.26154931640625,0.9308042526245117,-4.589483737945557,8.62011432647705
1700935886231542000,17.2785419921875,0.9376519322395325,-4.581387996673584,8.623677253723145
1700935886248530700,17.29553076171875,0.9402250051498413,-4.576160907745361,8.626172065734863
1700935886265532000,17.312531982421874,0.9393990635871887,-4.5744781494140625,8.627155303955078
1700935886282520300,17.329520263671874,0.9397557973861694,-4.575969219207764,8.626325607299805
1700935886299513600,17.346513671875,0.9426469206809998,-4.5785722732543945,8.624627113342285
1700935886316506000,17.363506103515626,0.9467654228210449,-4.581242561340332,8.622759819030762
1700935886333499100,17.3804990234375,0.9515966773033142,-4.586822986602783,8.619258880615234
1700935886350488800,17.39748876953125,0.9559034109115601,-4.596761703491211,8.613486289978027
1700935886367487700,17.41448779296875,0.9584019780158997,-4.6112589836120605,8.605456352233887
1700935886384477400,17.4314775390625,0.9589545130729675,-4.630177974700928,8.595229148864746
1700935886401470200,17.44847021484375,0.9576532244682312,-4.652377128601074,8.583378791809082
1700935886418463000,17.465462890625,0.9559704065322876,-4.6758551597595215,8.57080078125
1700935886435455700,17.482455810546874,0.9558634161949158,-4.7003278732299805,8.557415008544922
1700935886452448500,17.499448486328124,0.9580853581428528,-4.725443363189697,8.543323516845703
1700935886469430800,17.5164306640625,0.9605584144592285,-4.748537063598633,8.530232429504395
1700935886486434300,17.533434326171875,0.9639527201652527,-4.770169258117676,8.517768859863281
1700935886503427000,17.550427001953125,0.9679887294769287,-4.791075706481934,8.505568504333496
1700935886520420000,17.567420166015626,0.9718467593193054,-4.811252593994141,8.493731498718262
1700935886537412600,17.58441259765625,0.9766291975975037,-4.830835342407227,8.482059478759766
1700935886554405400,17.6014052734375,0.9822322726249695,-4.8503336906433105,8.470277786254883
1700935886571398400,17.6183984375,0.987625777721405,-4.868984699249268,8.458942413330078
1700935886588391200,17.63539111328125,0.9912288188934326,-4.886342525482178,8.448504447937012
1700935886605384200,17.65238427734375,0.9948456287384033,-4.90269136428833,8.438602447509766
1700935886622376700,17.669376708984377,1.000670075416565,-4.919553756713867,8.428092956542969
1700935886639369700,17.68636962890625,1.0062695741653442,-4.935328960418701,8.418197631835938
1700935886656362200,17.7033623046875,1.0100796222686768,-4.949860095977783,8.40920639038086
1700935886673355000,17.72035498046875,1.0118106603622437,-4.964328765869141,8.400463104248047
1700935886690348000,17.73734814453125,1.0139029026031494,-4.977715015411377,8.39228630065918
1700935886707340500,17.754340576171874,1.017578363418579,-4.987435817718506,8.386069297790527
1700935886724333600,17.77133349609375,1.0225181579589844,-4.995255470275879,8.38081169128418
1700935886741326300,17.788326416015625,1.0272424221038818,-5.00484037399292,8.374513626098633
1700935886758319400,17.8053193359375,1.0302598476409912,-5.016390323638916,8.367229461669922
1700935886775312100,17.82231201171875,1.029955267906189,-5.029748439788818,8.359243392944336
1700935886792305000,17.839304931640626,1.0288413763046265,-5.043529987335205,8.35107135772705
1700935886809286400,17.856286376953125,1.029593825340271,-5.0539655685424805,8.3446683883667
1700935886826291200,17.873291259765626,1.0326756238937378,-5.059369087219238,8.341012954711914
1700935886843283500,17.890283447265624,1.0366543531417847,-5.057759761810303,8.3414945602417
1700935886860276200,17.907276123046874,1.0398355722427368,-5.049212455749512,8.346275329589844
1700935886877269000,17.92426904296875,1.0419896841049194,-5.036926746368408,8.353426933288574
1700935886894261500,17.941261474609377,1.0446887016296387,-5.026173114776611,8.359565734863281
1700935886911242000,17.958241943359376,1.0499986410140991,-5.017950057983398,8.363838195800781
1700935886928247300,17.975247314453124,1.0562001466751099,-5.0104546546936035,8.367551803588867
1700935886945240000,17.992239990234374,1.060672640800476,-5.002357006072998,8.371829986572266
1700935886962232800,18.00923291015625,1.0632141828536987,-4.994204521179199,8.376373291015625
1700935886979225600,18.0262255859375,1.0659594535827637,-4.988349914550781,8.379510879516602
1700935886996207900,18.043207763671877,1.069985270500183,-4.984288692474365,8.381414413452148
1700935887013211600,18.060211669921873,1.0746209621429443,-4.9805989265441895,8.383014678955078
1700935887030204200,18.0772041015625,1.0796433687210083,-4.976594924926758,8.384747505187988
1700935887047197000,18.094197021484376,1.0848331451416016,-4.9741106033325195,8.385552406311035
1700935887064191500,18.11119140625,1.0878093242645264,-4.974360466003418,8.385018348693848
1700935887081182000,18.128181884765624,1.088953971862793,-4.976315021514893,8.383708953857422
1700935887098174200,18.14517431640625,1.0902665853500366,-4.979193210601807,8.381829261779785
1700935887115168300,18.162168212890624,1.0930233001708984,-4.981629371643066,8.380023956298828
1700935887132161000,18.1791611328125,1.0963903665542603,-4.982219696044922,8.379232406616211
1700935887149154000,18.196154052734375,1.09769868850708,-4.980774402618408,8.379919052124023
1700935887166146600,18.213146484375,1.0966988801956177,-4.976708889007568,8.382467269897461
1700935887183139300,18.230139404296875,1.094620704650879,-4.969485282897949,8.387022018432617
1700935887200128300,18.247128173828123,1.0950008630752563,-4.960086822509766,8.392535209655762
1700935887217125400,18.26412548828125,1.096921682357788,-4.949621677398682,8.398459434509277
1700935887234118000,18.281117919921876,1.0991698503494263,-4.939055919647217,8.404383659362793
1700935887251111000,18.29811083984375,1.1032795906066895,-4.930614471435547,8.408801078796387
1700935887268103700,18.315103759765623,1.1075243949890137,-4.925605773925781,8.411178588867188
1700935887285096400,18.332096435546877,1.107489824295044,-4.925278186798096,8.411373138427734
1700935887302089200,18.349089111328126,1.1019128561019897,-4.932196140289307,8.408052444458008
1700935887319082000,18.36608203125,1.0920146703720093,-4.9458699226379395,8.401308059692383
1700935887336070400,18.3830703125,1.0808759927749634,-4.961942672729492,8.393266677856445
1700935887353067500,18.400067626953124,1.0703524351119995,-4.975482940673828,8.386597633361816
1700935887370058800,18.417058837890625,1.0602525472640991,-4.98488712310791,8.382295608520508
1700935887387055000,18.43405517578125,1.0502949953079224,-4.990740776062012,8.38006591796875
1700935887404046000,18.451046142578125,1.0422592163085938,-4.994236946105957,8.378986358642578
1700935887421028400,18.4680283203125,1.0369393825531006,-4.995400905609131,8.378952980041504
1700935887438031600,18.485031494140625,1.031536340713501,-4.993131637573242,8.38097095489502
1700935887455024400,18.5020244140625,1.0229268074035645,-4.987406253814697,8.385433197021484
1700935887472017700,18.519017578125,1.010406255722046,-4.981857776641846,8.390249252319336
1700935887489010200,18.53601025390625,0.997580349445343,-4.980237007141113,8.39274787902832
1700935887506003000,18.5530029296875,0.987947940826416,-4.9819231033325195,8.392884254455566
1700935887522985000,18.56998486328125,0.9794753193855286,-4.983577251434326,8.39289665222168
1700935887539986200,18.586986083984375,0.9712310433387756,-4.983897686004639,8.393664360046387
1700935887556983800,18.60398388671875,0.9634554386138916,-4.983499050140381,8.394798278808594
1700935887573963500,18.620963623046876,0.9576306939125061,-4.982248783111572,8.39620590209961
1700935887590967000,18.637967041015624,0.9519129991531372,-4.979720592498779,8.398355484008789
1700935887607960000,18.6549599609375,0.9474126696586609,-4.977308750152588,8.40029239654541
1700935887624952600,18.67195263671875,0.9477152824401855,-4.975469589233398,8.401347160339355
1700935887641945600,18.688945556640626,0.9508417844772339,-4.973404884338379,8.40221881866455
1700935887658938000,18.705938232421875,0.9534441232681274,-4.971023082733154,8.403331756591797
1700935887675920600,18.722920654296875,0.9531362652778625,-4.969021320343018,8.404550552368164
1700935887692924200,18.739924072265627,0.9527924060821533,-4.9672465324401855,8.405637741088867
1700935887709917000,18.7569169921875,0.9528892040252686,-4.964306831359863,8.407365798950195
1700935887726909700,18.77390966796875,0.9521200060844421,-4.959299564361572,8.410405158996582
1700935887743902500,18.79090234375,0.9526617527008057,-4.953556537628174,8.413728713989258
1700935887760895200,18.807895263671874,0.9550117254257202,-4.948409557342529,8.416491508483887
1700935887777885400,18.824885498046875,0.958648681640625,-4.9451584815979,8.417988777160645
1700935887794883600,18.841883544921874,0.9636214971542358,-4.943985462188721,8.418109893798828
1700935887811873500,18.85887353515625,0.967142641544342,-4.944179058074951,8.41759204864502
1700935887828866300,18.8758662109375,0.9679823517799377,-4.944539546966553,8.417282104492188
1700935887845859000,18.892859130859375,0.9697259664535522,-4.943683624267578,8.417584419250488
1700935887862852000,18.90985205078125,0.9750902056694031,-4.9412150382995605,8.418415069580078
1700935887879845000,18.92684521484375,0.9816975593566895,-4.937002658843994,8.42011833190918
1700935887896838000,18.943837890625,0.98688143491745,-4.932501316070557,8.422150611877441
1700935887913830700,18.96083056640625,0.9910504817962646,-4.931121826171875,8.422469139099121
1700935887930820900,18.97782080078125,0.9972763061523438,-4.93319034576416,8.420520782470703
1700935887947818800,18.99481884765625,1.005895972251892,-4.935117244720459,8.418366432189941
1700935887964809200,19.011809326171875,1.0140241384506226,-4.9356231689453125,8.417095184326172
1700935887981802000,19.028802001953125,1.0207043886184692,-4.934720993041992,8.416818618774414
1700935887998794500,19.04579443359375,1.025431752204895,-4.93363094329834,8.416881561279297
1700935888015785000,19.062784912109375,1.0289658308029175,-4.932463645935059,8.417133331298828
1700935888032782800,19.079782958984374,1.0331743955612183,-4.931296348571777,8.417302131652832
1700935888049768700,19.096768798828126,1.0379135608673096,-4.931469440460205,8.416617393493652
1700935888066766000,19.11376611328125,1.0421209335327148,-4.934051513671875,8.41458511352539
1700935888083758600,19.130758544921875,1.0447697639465332,-4.937236309051514,8.412388801574707
1700935888100751400,19.14775146484375,1.0460666418075562,-4.938669681549072,8.411385536193848
1700935888117744600,19.16474462890625,1.0450012683868408,-4.938633441925049,8.411540031433105
1700935888134737400,19.1817373046875,1.0431464910507202,-4.939520835876465,8.411249160766602
1700935888151730000,19.19872998046875,1.0421630144119263,-4.942585468292236,8.409570693969727
1700935888168728600,19.215728515625,1.041100025177002,-4.947964191436768,8.406538963317871
1700935888185711000,19.232711181640624,1.040364146232605,-4.955003261566162,8.402481079101562
1700935888202710300,19.249710205078124,1.0397104024887085,-4.9604902267456055,8.399324417114258
1700935888219701200,19.266701171875,1.0386383533477783,-4.96290922164917,8.398028373718262
1700935888236694000,19.283694091796875,1.0366092920303345,-4.9634599685668945,8.397953987121582
1700935888253687000,19.30068701171875,1.0345324277877808,-4.962462425231934,8.398799896240234
1700935888270679800,19.3176796875,1.031091570854187,-4.960779190063477,8.400217056274414
1700935888287672300,19.33467236328125,1.028503656387329,-4.960638999938965,8.400615692138672
1700935888304665600,19.35166552734375,1.0297940969467163,-4.963275909423828,8.398900985717773
1700935888321658400,19.368658447265624,1.0348931550979614,-4.96872091293335,8.39505386352539
1700935888338651000,19.38565087890625,1.0411418676376343,-4.975841999053955,8.390061378479004
1700935888355643600,19.4026435546875,1.0452951192855835,-4.981335639953613,8.386283874511719
1700935888372636700,19.41963671875,1.047906517982483,-4.982112884521484,8.385498046875
1700935888389629400,19.43662939453125,1.0514100790023804,-4.978871822357178,8.386983871459961
1700935888406622500,19.45362255859375,1.0573333501815796,-4.973649024963379,8.389338493347168
1700935888423612700,19.47061279296875,1.0648537874221802,-4.969959259033203,8.390572547912598
1700935888440610300,19.4876103515625,1.072396993637085,-4.969932556152344,8.389628410339355
1700935888457593000,19.504593017578124,1.0783718824386597,-4.974460601806641,8.386176109313965
1700935888474593300,19.52159326171875,1.0830377340316772,-4.9799909591674805,8.382292747497559
1700935888491586300,19.53858642578125,1.084708571434021,-4.9825239181518555,8.380572319030762
1700935888508579300,19.555579345703126,1.0848249197006226,-4.983046054840088,8.380245208740234
1700935888525572000,19.572572021484376,1.0849742889404297,-4.982085227966309,8.380797386169434
1700935888542564900,19.58956494140625,1.0846846103668213,-4.980270862579346,8.381913185119629
1700935888559555000,19.60655517578125,1.0845351219177246,-4.97971773147583,8.382261276245117
1700935888576553200,19.62355322265625,1.0849933624267578,-4.9812703132629395,8.381281852722168
1700935888593543200,19.640543212890623,1.08356511592865,-4.981548309326172,8.381300926208496
1700935888610528300,19.6575283203125,1.0810134410858154,-4.980555534362793,8.382220268249512
1700935888627529000,19.674529052734375,1.079423189163208,-4.979319095611572,8.383156776428223
1700935888644521700,19.691521728515625,1.0788555145263672,-4.978281021118164,8.383848190307617
1700935888661514500,19.708514404296874,1.0781117677688599,-4.976845741271973,8.384796142578125
1700935888678494000,19.725493896484377,1.0770124197006226,-4.975335121154785,8.385833740234375
1700935888695500300,19.742500244140626,1.0757012367248535,-4.973752975463867,8.386940956115723
1700935888712493000,19.7594931640625,1.0743341445922852,-4.971754550933838,8.388299942016602
1700935888729486000,19.776486083984373,1.07240629196167,-4.969329357147217,8.389983177185059
1700935888746478600,19.793478515625,1.0696420669555664,-4.9666924476623535,8.391898155212402
1700935888763471600,19.8104716796875,1.067870855331421,-4.964079856872559,8.393670082092285
1700935888780464400,19.82746435546875,1.0681366920471191,-4.960867404937744,8.39553451538086
1700935888797457400,19.84445751953125,1.0695931911468506,-4.957693576812744,8.397223472595215
1700935888814450000,19.861449951171874,1.0710341930389404,-4.955104351043701,8.398568153381348
1700935888831443000,19.87844287109375,1.0723156929016113,-4.953330993652344,8.39945125579834
1700935888848435500,19.895435546875,1.0719600915908813,-4.953643321990967,8.399310111999512
1700935888865428500,19.912428466796875,1.0684839487075806,-4.957305908203125,8.39759349822998
1700935888882421000,19.9294208984375,1.063461184501648,-4.96315860748291,8.394774436950684
1700935888899414300,19.946414306640627,1.0600560903549194,-4.968039035797119,8.392316818237305
1700935888916406800,19.96340673828125,1.0586974620819092,-4.968397617340088,8.3922758102417
1700935888933399800,19.98039990234375,1.0582882165908813,-4.963720321655273,8.395095825195312
1700935888950392300,19.997392333984376,1.0588150024414062,-4.956445217132568,8.399325370788574
1700935888967385900,20.0143857421875,1.058793067932129,-4.952535629272461,8.40163516998291
1700935888984378000,20.031378173828124,1.0576558113098145,-4.954010963439941,8.400908470153809
1700935889001371000,20.048370849609373,1.0559873580932617,-4.957122802734375,8.399283409118652
1700935889018363600,20.06536376953125,1.0539419651031494,-4.958044528961182,8.398995399475098
1700935889035356700,20.082356689453125,1.0517621040344238,-4.955252170562744,8.400915145874023
1700935889052349700,20.099349609375,1.0502687692642212,-4.949070453643799,8.404747009277344
1700935889069342200,20.11634228515625,1.050324559211731,-4.942386627197266,8.408672332763672
1700935889086335200,20.133335205078126,1.0517284870147705,-4.939131736755371,8.410408020019531
1700935889103328000,20.150327880859376,1.05471932888031,-4.93972110748291,8.409687995910645
1700935889120320800,20.16732080078125,1.0573663711547852,-4.941995620727539,8.408018112182617
1700935889137313300,20.184313232421875,1.056331753730774,-4.943456172943115,8.4072904586792
1700935889154306600,20.201306640625,1.0536434650421143,-4.942602634429932,8.408129692077637
1700935889171299300,20.21829931640625,1.0521202087402344,-4.939930438995361,8.409890174865723
1700935889188292000,20.2352919921875,1.0514084100723267,-4.936986446380615,8.411707878112793
1700935889205285000,20.25228515625,1.051405668258667,-4.9359941482543945,8.412290573120117
1700935889222277600,20.269277587890624,1.051749587059021,-4.937634468078613,8.411284446716309
1700935889239268000,20.28626806640625,1.0522260665893555,-4.940482139587402,8.409552574157715
1700935889256262100,20.30326220703125,1.0508949756622314,-4.943225860595703,8.408106803894043
1700935889273260000,20.320260009765626,1.0496150255203247,-4.944881916046143,8.407293319702148
1700935889290238500,20.337238525390624,1.0488121509552002,-4.9449896812438965,8.407328605651855
1700935889307241700,20.35424169921875,1.0473655462265015,-4.944472312927246,8.40781307220459
1700935889324234800,20.37123486328125,1.0460996627807617,-4.945721626281738,8.407236099243164
1700935889341227300,20.388227294921876,1.0455620288848877,-4.947673320770264,8.406153678894043
1700935889358220500,20.405220458984374,1.0454272031784058,-4.9493489265441895,8.40518569946289
1700935889375213000,20.422213134765624,1.0453166961669922,-4.9499125480651855,8.404866218566895
1700935889392203300,20.439203369140625,1.046248197555542,-4.950173377990723,8.404597282409668
1700935889409193200,20.456193115234374,1.0493311882019043,-4.950144290924072,8.404231071472168
1700935889426191600,20.473191650390625,1.0520720481872559,-4.950282096862793,8.40380859375
1700935889443184400,20.490184326171875,1.0518015623092651,-4.952732563018799,8.402396202087402
1700935889460177400,20.507177490234376,1.0493781566619873,-4.957677364349365,8.39978313446045
1700935889477170200,20.524170166015626,1.048545002937317,-4.962960243225098,8.396767616271973
1700935889494163000,20.541162841796876,1.0498080253601074,-4.965816974639893,8.394919395446777
1700935889511155500,20.558155517578125,1.051382064819336,-4.96500301361084,8.3952054977417
1700935889528148500,20.5751484375,1.053210735321045,-4.959595203399658,8.398172378540039
1700935889545141500,20.5921416015625,1.0556920766830444,-4.952030658721924,8.402322769165039
1700935889562134000,20.609134033203127,1.0582791566848755,-4.944802284240723,8.406253814697266
1700935889579127000,20.626126953125,1.0587940216064453,-4.940516948699951,8.408706665039062
1700935889596119800,20.643119873046874,1.0567713975906372,-4.941770076751709,8.408224105834961
1700935889613112600,20.660112548828124,1.0524581670761108,-4.947294235229492,8.405517578125
1700935889630105600,20.677105712890626,1.0475585460662842,-4.954071044921875,8.402137756347656
1700935889647098000,20.69409814453125,1.0438750982284546,-4.960633754730225,8.398723602294922
1700935889664091000,20.7110908203125,1.0406354665756226,-4.966625690460205,8.395583152770996
1700935889681084000,20.728083984375,1.0371931791305542,-4.971369743347168,8.393202781677246
1700935889698076700,20.74507666015625,1.0345938205718994,-4.975332736968994,8.39117431640625
1700935889715069400,20.7620693359375,1.0336459875106812,-4.978063583374023,8.389670372009277
1700935889732049200,20.779049072265625,1.0330513715744019,-4.979797840118408,8.388714790344238
1700935889749055000,20.796054931640626,1.0314427614212036,-4.98048734664917,8.388504028320312
1700935889766047700,20.8130478515625,1.0297383069992065,-4.979842185974121,8.389094352722168
1700935889783040800,20.830040771484374,1.0289924144744873,-4.979271411895752,8.389525413513184
1700935889800031700,20.84703173828125,1.0280262231826782,-4.978802680969238,8.389923095703125
1700935889817026600,20.864026611328125,1.025632381439209,-4.978675365447998,8.390292167663574
1700935889834019300,20.881019287109375,1.0222222805023193,-4.979379177093506,8.390289306640625
1700935889851012400,20.898012451171876,1.0196930170059204,-4.98038387298584,8.39000129699707
1700935889868005000,20.915005126953126,1.0185686349868774,-4.98197078704834,8.389196395874023
1700935889884998000,20.931997802734376,1.0170857906341553,-4.982870101928711,8.388840675354004
1700935889901990400,20.948990478515626,1.0152716636657715,-4.982679843902588,8.389174461364746
1700935889918973000,20.965972900390625,1.0136444568634033,-4.984267234802246,8.388426780700684
1700935889935966000,20.982966064453127,1.0128231048583984,-4.987778186798096,8.38644027709961
1700935889952969200,20.99996923828125,1.011680006980896,-4.992386817932129,8.383835792541504
1700935889969962200,21.016962158203125,1.0091814994812012,-4.996673583984375,8.381582260131836
1700935889986954800,21.033954833984374,1.0050843954086304,-4.999573707580566,8.380345344543457
1700935890003947500,21.050947509765624,1.0018672943115234,-5.000554084777832,8.380146026611328
1700935890020940300,21.067940185546874,0.9988360404968262,-4.999292373657227,8.381258964538574
1700935890037933300,21.084933349609376,0.9957267642021179,-4.9982171058654785,8.382272720336914
1700935890054925800,21.10192578125,0.9935574531555176,-5.000442981719971,8.381199836730957
1700935890071920600,21.118920654296875,0.9925336241722107,-5.005744457244873,8.378156661987305
1700935890088912000,21.135911865234377,0.9903780221939087,-5.0121073722839355,8.37460708618164
1700935890105904600,21.152904541015626,0.9878196120262146,-5.017913341522217,8.371431350708008
1700935890122894800,21.169894775390624,0.9868015646934509,-5.019113540649414,8.370832443237305
1700935890139892700,21.186892822265627,0.9856695532798767,-5.01447057723999,8.373747825622559
1700935890156883000,21.203883056640624,0.9837768077850342,-5.007789611816406,8.377967834472656
1700935890173875700,21.220875732421874,0.9823290705680847,-5.0024895668029785,8.381303787231445
1700935890190868500,21.237868408203123,0.9839072227478027,-5.0007243156433105,8.382172584533691
1700935890207861500,21.254861572265625,0.9880160689353943,-5.00311803817749,8.380258560180664
1700935890224854300,21.271854248046875,0.9899108409881592,-5.006145477294922,8.378229141235352
1700935890241847300,21.288847412109376,0.9892077445983887,-5.007622241973877,8.37742805480957
1700935890258840000,21.305840087890626,0.9887893795967102,-5.006580352783203,8.37809944152832
1700935890275829200,21.322829345703123,0.9892758131027222,-5.00300407409668,8.380180358886719
1700935890292827400,21.339827392578126,0.9910358786582947,-4.99898624420166,8.382369995117188
1700935890309815300,21.356815185546875,0.9942322373390198,-4.996620178222656,8.383399963378906
1700935890326813700,21.373813720703126,0.998210072517395,-4.995767593383789,8.383434295654297
1700935890343803100,21.39080322265625,1.0005402565002441,-4.995680809020996,8.383212089538574
1700935890360797000,21.407796875,1.0007820129394531,-4.995875358581543,8.383066177368164
1700935890377787400,21.424787353515626,1.0007290840148926,-4.995950222015381,8.383028030395508
1700935890394785000,21.441784912109377,1.0005720853805542,-4.995423316955566,8.383359909057617
1700935890411775200,21.458775146484374,0.9993783831596375,-4.993564605712891,8.38460922241211
1700935890428768000,21.47576806640625,0.9970433115959167,-4.991011142730713,8.386406898498535
1700935890445760800,21.4927607421875,0.9948169589042664,-4.989034652709961,8.387847900390625
1700935890462754000,21.509754150390624,0.9929274320602417,-4.987793445587158,8.388809204101562
1700935890479746800,21.526746826171873,0.9893986582756042,-4.985623836517334,8.390515327453613
1700935890496739300,21.5437392578125,0.984950065612793,-4.982443809509277,8.392927169799805
1700935890513732000,21.560732177734376,0.9805436134338379,-4.979207992553711,8.395363807678223
1700935890530725400,21.577725341796874,0.9779989123344421,-4.974986553192139,8.398162841796875
1700935890547718000,21.5947177734375,0.9751919507980347,-4.970391750335693,8.401209831237793
1700935890564710700,21.611710693359374,0.9704422354698181,-4.966641426086426,8.403977394104004
1700935890581703700,21.62870361328125,0.9647207260131836,-4.964529514312744,8.405882835388184
1700935890598696400,21.645696533203125,0.9600631594657898,-4.963235378265381,8.407180786132812
1700935890615689500,21.662689453125,0.9555754065513611,-4.961702346801758,8.408596992492676
1700935890632679400,21.679679443359376,0.95039302110672,-4.959754943847656,8.410333633422852
1700935890649677600,21.696677490234375,0.9448723793029785,-4.956414699554443,8.412923812866211
1700935890666667800,21.713667724609376,0.9392493963241577,-4.950928211212158,8.416783332824707
1700935890683660800,21.730660888671874,0.9341848492622375,-4.9456586837768555,8.42044448852539
1700935890700653300,21.7476533203125,0.9307528138160706,-4.942346572875977,8.422769546508789
1700935890717653000,21.764653076171875,0.9276625514030457,-4.942840576171875,8.422818183898926
1700935890734628400,21.78162841796875,0.926669716835022,-4.947952747344971,8.419927597045898
1700935890751632100,21.798632080078125,0.9258887767791748,-4.956614971160889,8.414915084838867
1700935890768624600,21.815624755859375,0.9221521615982056,-4.966752529144287,8.409347534179688
1700935890785617400,21.832617431640625,0.9193504452705383,-4.975043296813965,8.404752731323242
1700935890802600000,21.849599853515624,0.9212355613708496,-4.979018211364746,8.402192115783691
1700935890819603200,21.866603271484376,0.9237908124923706,-4.977004051208496,8.403103828430176
1700935890836596000,21.883595947265626,0.9238788485527039,-4.972460746765137,8.405783653259277
1700935890853589000,21.900589111328124,0.9228610992431641,-4.970409870147705,8.407108306884766
1700935890870579000,21.917578857421876,0.9235314726829529,-4.972316741943359,8.40590763092041
1700935890887577000,21.9345771484375,0.9250409603118896,-4.9767746925354,8.403101921081543
1700935890904567600,21.951567626953125,0.9271126389503479,-4.981825828552246,8.399881362915039
1700935890921560300,21.968560302734375,0.9290910363197327,-4.985118389129639,8.39770793914795
