time,seconds_elapsed,z,y,x
1700935960999751400,0.15175146484375,6.804412364959717,6.746677875518799,-2.102003574371338
1700935961016746800,0.168746826171875,6.909947395324707,6.651645660400391,-2.0601816177368164
1700935961033736000,0.18573583984375,6.968029975891113,6.616357326507568,-1.9764800071716309
1700935961050732000,0.20273193359375,6.980434894561768,6.634760856628418,-1.8680462837219238
1700935961067714600,0.219714599609375,6.9600934982299805,6.682096481323242,-1.7727899551391602
1700935961084718300,0.23671826171875,6.9335246086120605,6.731723785400391,-1.6870802640914917
1700935961101708800,0.253708740234375,6.913774490356445,6.769735813140869,-1.614470362663269
1700935961118703900,0.270703857421875,6.879310131072998,6.812226295471191,-1.5826480388641357
1700935961135699000,0.287698974609375,6.810409069061279,6.885098934173584,-1.56520414352417
1700935961152687900,0.30468798828125,6.717809200286865,6.9838690757751465,-1.5273284912109375
1700935961169684000,0.32168408203125,6.616003036499023,7.09649133682251,-1.4506659507751465
1700935961186678300,0.33867822265625,6.491021633148193,7.2291154861450195,-1.3574388027191162
1700935961203667500,0.35566748046875,6.340856075286865,7.376493453979492,-1.2716174125671387
1700935961220663800,0.372663818359375,6.220427513122559,7.49674129486084,-1.1581305265426636
1700935961237656300,0.38965625,6.137872695922852,7.58296012878418,-1.0302224159240723
1700935961254639900,0.406639892578125,6.092318534851074,7.638681888580322,-0.8776738047599792
1700935961271641300,0.423641357421875,6.072519779205322,7.675755023956299,-0.665882408618927
1700935961288635000,0.440634765625,6.029795169830322,7.729072093963623,-0.37301406264305115
1700935961305630500,0.45763037109375,5.9220685958862305,7.820805072784424,-0.014955716207623482
1700935961322619400,0.474619384765625,5.786238193511963,7.912042617797852,0.3938751816749573
1700935961339615700,0.49161572265625,5.695091247558594,7.949735641479492,0.7770149111747742
1700935961356610000,0.508610107421875,5.697600364685059,7.910688877105713,1.0929136276245117
1700935961373589500,0.525589599609375,5.718957424163818,7.848890781402588,1.3872809410095215
1700935961390598400,0.542598388671875,5.688246250152588,7.809669494628906,1.699709415435791
1700935961407588000,0.559588134765625,5.568350315093994,7.812485218048096,2.0480868816375732
1700935961424583400,0.57658349609375,5.419731616973877,7.805516242980957,2.4364986419677734
1700935961441570300,0.5935703125,5.3313775062561035,7.726205348968506,2.849259376525879
1700935961458567700,0.610567626953125,5.3222784996032715,7.57190465927124,3.2520344257354736
1700935961475562500,0.6275625,5.283886909484863,7.408902168273926,3.6639904975891113
1700935961492546300,0.64454638671875,5.131217956542969,7.273687362670898,4.1231303215026855
1700935961509549800,0.6615498046875,4.877817630767822,7.147547721862793,4.621208667755127
1700935961526539300,0.678539306640625,4.625755786895752,6.975091934204102,5.117282867431641
1700935961543531300,0.69553125,4.468364238739014,6.737509250640869,5.556599140167236
1700935961560527600,0.712527587890625,4.3602447509765625,6.4542236328125,5.963838577270508
1700935961577509400,0.72950927734375,4.2018351554870605,6.160974979400635,6.373623847961426
1700935961594514700,0.7465146484375,3.919468402862549,5.849095821380615,6.830955982208252
1700935961611504000,0.763504150390625,3.606235980987549,5.530157566070557,7.255931377410889
1700935961628503300,0.78050341796875,3.378268241882324,5.198677062988281,7.602444648742676
1700935961645494800,0.797494873046875,3.283726930618286,4.825946807861328,7.884383201599121
1700935961662484500,0.814484375,3.2426233291625977,4.447849273681641,8.120230674743652
1700935961679462100,0.831462158203125,3.1446969509124756,4.084755897521973,8.346362113952637
1700935961696463000,0.848463134765625,2.9851272106170654,3.7181031703948975,8.573263168334961
1700935961713460200,0.865460205078125,2.7801454067230225,3.330947160720825,8.798391342163086
1700935961730462500,0.88246240234375,2.5598134994506836,2.9222450256347656,9.007993698120117
1700935961747456000,0.8994560546875,2.353914976119995,2.5127267837524414,9.185935020446777
1700935961764443000,0.91644287109375,2.196621894836426,2.113466501235962,9.324387550354004
1700935961781436200,0.933436279296875,2.0926904678344727,1.7187987565994263,9.428812026977539
1700935961798431200,0.95043115234375,2.005333185195923,1.3056169748306274,9.513680458068848
1700935961815426300,0.96742626953125,1.9044142961502075,0.8737488985061646,9.583626747131348
1700935961832412700,0.98441259765625,1.7706972360610962,0.4329278767108917,9.639155387878418
1700935961849413400,1.001413330078125,1.631822943687439,-0.0016334197716787457,9.673327445983887
1700935961866412300,1.018412353515625,1.5074175596237183,-0.42156732082366943,9.684322357177734
1700935961883394800,1.035394775390625,1.4254786968231201,-0.8304017186164856,9.670292854309082
1700935961900391200,1.05239111328125,1.3793541193008423,-1.2224186658859253,9.635309219360352
1700935961917383700,1.0693837890625,1.3447667360305786,-1.5735700130462646,9.589140892028809
1700935961934376000,1.0863759765625,1.2781014442443848,-1.8671607971191406,9.54548454284668
1700935961951372000,1.1033720703125,1.1759225130081177,-2.0965466499328613,9.510931968688965
1700935961968363300,1.12036328125,1.0733243227005005,-2.2768540382385254,9.481562614440918
1700935961985358000,1.137358154296875,1.0131056308746338,-2.4283573627471924,9.450546264648438
1700935962002347300,1.15434716796875,1.0263407230377197,-2.5654454231262207,9.412823677062988
1700935962019342800,1.1713427734375,1.0993040800094604,-2.6715261936187744,9.374999046325684
1700935962036339000,1.1883388671875,1.1813621520996094,-2.7311043739318848,9.347811698913574
1700935962053325300,1.2053251953125,1.2323966026306152,-2.756741762161255,9.333686828613281
1700935962070323200,1.2223232421875,1.2407885789871216,-2.7734506130218506,9.327622413635254
1700935962087315700,1.239315673828125,1.2204384803771973,-2.792933702468872,9.324493408203125
1700935962104308000,1.256307861328125,1.1978448629379272,-2.823054552078247,9.318349838256836
1700935962121302300,1.27330224609375,1.1862393617630005,-2.8523051738739014,9.310924530029297
1700935962138286000,1.2902861328125,1.1645712852478027,-2.859797954559326,9.311361312866211
1700935962155285500,1.307285400390625,1.1165142059326172,-2.842787265777588,9.322450637817383
1700935962172283400,1.324283447265625,1.0322680473327637,-2.8210558891296387,9.338746070861816
1700935962189274600,1.341274658203125,0.9961627125740051,-2.8197555541992188,9.343059539794922
1700935962206269700,1.358269775390625,0.9747864603996277,-2.82853102684021,9.342660903930664
1700935962223260700,1.3752607421875,0.9504567384719849,-2.8348004817962646,9.343268394470215
1700935962240255000,1.3922548828125,0.9230830073356628,-2.8216745853424072,9.349982261657715
1700935962257247200,1.409247314453125,0.8977552056312561,-2.775465488433838,9.366266250610352
1700935962274241800,1.42624169921875,0.8665170669555664,-2.690420389175415,9.39398193359375
1700935962291234800,1.44323486328125,0.8183897733688354,-2.5727193355560303,9.431197166442871
1700935962308228400,1.460228271484375,0.764560878276825,-2.442932605743408,9.470144271850586
1700935962325203500,1.477203369140625,0.7302956581115723,-2.322847366333008,9.503007888793945
1700935962342210000,1.4942099609375,0.7221399545669556,-2.211052894592285,9.530261039733887
1700935962359210200,1.511210205078125,0.7230082750320435,-2.0908401012420654,9.55728816986084
1700935962376201200,1.528201171875,0.7184094190597534,-1.9540907144546509,9.586528778076172
1700935962393190700,1.545190673828125,0.7069699168205261,-1.8100438117980957,9.615615844726562
1700935962410196000,1.562196044921875,0.7025038003921509,-1.6774219274520874,9.639962196350098
1700935962427177500,1.579177490234375,0.7182398438453674,-1.5728404521942139,9.65641975402832
1700935962444173000,1.596173095703125,0.750837504863739,-1.4967284202575684,9.666030883789062
1700935962461171200,1.613171142578125,0.7846256494522095,-1.434224247932434,9.672821044921875
1700935962478156500,1.630156494140625,0.8044816255569458,-1.3732088804244995,9.680042266845703
1700935962495151600,1.647151611328125,0.8050762414932251,-1.318390130996704,9.687610626220703
1700935962512144100,1.66414404296875,0.8040348887443542,-1.2876930236816406,9.691825866699219
1700935962529139500,1.681139404296875,0.8137500286102295,-1.2863925695419312,9.691186904907227
1700935962546135800,1.6981357421875,0.8359273672103882,-1.312119483947754,9.6858491897583
1700935962563122400,1.715122314453125,0.8659914135932922,-1.3590542078018188,9.676732063293457
1700935962580118800,1.732118896484375,0.8916062712669373,-1.4136731624603271,9.66657543182373
1700935962597112300,1.7491123046875,0.9020517468452454,-1.4696152210235596,9.657259941101074
1700935962614101500,1.7661015625,0.9022891521453857,-1.5298826694488525,9.647872924804688
1700935962631099000,1.783098876953125,0.9047449827194214,-1.6013364791870117,9.636040687561035
1700935962648090600,1.800090576171875,0.9149776101112366,-1.6890664100646973,9.62008285522461
1700935962665083100,1.817083251953125,0.9317158460617065,-1.7933861017227173,9.59957218170166
1700935962682077400,1.834077392578125,0.9491896629333496,-1.9038532972335815,9.576560020446777
1700935962699070500,1.851070556640625,0.9622043967247009,-2.0125412940979004,9.553009033203125
1700935962716065000,1.86806494140625,0.9660038948059082,-2.118393659591675,9.529709815979004
1700935962733053200,1.88505322265625,0.9619295597076416,-2.2228379249572754,9.506303787231445
1700935962750049000,1.902049072265625,0.9573599696159363,-2.3270139694213867,9.481802940368652
1700935962767045600,1.919045654296875,0.9587522149085999,-2.430640935897827,9.455628395080566
1700935962784028700,1.936028564453125,0.9669079184532166,-2.5306949615478516,9.428509712219238
1700935962801027800,1.95302783203125,0.978258490562439,-2.617988109588623,9.403471946716309
1700935962818025000,1.97002490234375,0.9860978722572327,-2.68747878074646,9.383027076721191
1700935962835017500,1.987017578125,0.9868375658988953,-2.7439396381378174,9.366592407226562
1700935962852008000,2.004008056640625,0.9795577526092529,-2.7953014373779297,9.35215950012207
1700935962869002200,2.021002197265625,0.9635685682296753,-2.8474602699279785,9.33807373046875
1700935962885997000,2.0379970703125,0.9472559690475464,-2.8987812995910645,9.323942184448242
1700935962902986000,2.054986083984375,0.9451135993003845,-2.9456098079681396,9.30947208404541
1700935962919983400,2.0719833984375,0.9561355710029602,-2.984684944152832,9.295890808105469
1700935962936975400,2.088975341796875,0.9699081182479858,-3.0089340209960938,9.286642074584961
1700935962953962800,2.105962646484375,0.9778890013694763,-3.0153756141662598,9.283716201782227
1700935962970964700,2.12296484375,0.9813382625579834,-3.0170581340789795,9.282803535461426
1700935962987951400,2.139951416015625,0.9833742380142212,-3.0194265842437744,9.281819343566895
1700935963004952300,2.156952392578125,0.9930092692375183,-3.0204734802246094,9.280452728271484
1700935963021938700,2.173938720703125,1.0150959491729736,-3.0153634548187256,9.27972412109375
1700935963038934000,2.19093408203125,1.0440443754196167,-2.9964306354522705,9.282645225524902
1700935963055922000,2.207921875,1.0722309350967407,-2.9666457176208496,9.288996696472168
1700935963072918300,2.224918212890625,1.0949046611785889,-2.932081699371338,9.297321319580078
1700935963089914400,2.241914306640625,1.106126070022583,-2.8950986862182617,9.307578086853027
1700935963106907600,2.25890771484375,1.1062031984329224,-2.8528480529785156,9.320606231689453
1700935963123897900,2.27589794921875,1.1041203737258911,-2.8087575435638428,9.334234237670898
1700935963140895200,2.292895263671875,1.110458254814148,-2.768864870071411,9.3453950881958
1700935963157886000,2.309885986328125,1.1226619482040405,-2.7319421768188477,9.354798316955566
1700935963174875600,2.326875732421875,1.134488582611084,-2.6971614360809326,9.363458633422852
1700935963191870200,2.3438701171875,1.1395866870880127,-2.665099620819092,9.372016906738281
1700935963208866000,2.360865966796875,1.1334155797958374,-2.633233070373535,9.381768226623535
1700935963225860900,2.37786083984375,1.1191214323043823,-2.6011106967926025,9.392439842224121
1700935963242845400,2.394845458984375,1.104422688484192,-2.5713281631469727,9.402374267578125
1700935963259845600,2.411845703125,1.094338059425354,-2.544013023376465,9.410980224609375
1700935963276840400,2.42884033203125,1.0932855606079102,-2.521754741668701,9.417091369628906
1700935963293822500,2.445822509765625,1.1001297235488892,-2.507995367050171,9.419967651367188
1700935963310826000,2.462825927734375,1.1084362268447876,-2.500274181365967,9.421046257019043
1700935963327818200,2.479818359375,1.1129368543624878,-2.4930851459503174,9.4224214553833
1700935963344813300,2.496813232421875,1.110130786895752,-2.4882850646972656,9.424020767211914
1700935963361802500,2.513802490234375,1.098462700843811,-2.4849812984466553,9.42625904083252
1700935963378796500,2.530796630859375,1.0831341743469238,-2.48512601852417,9.427994728088379
1700935963395794700,2.547794677734375,1.0748176574707031,-2.4943110942840576,9.426521301269531
1700935963412782000,2.564781982421875,1.0745130777359009,-2.5110726356506348,9.422103881835938
1700935963429777400,2.58177734375,1.076982855796814,-2.530801296234131,9.416542053222656
1700935963446772200,2.598772216796875,1.0764777660369873,-2.550182342529297,9.411370277404785
1700935963463761400,2.615761474609375,1.067930817604065,-2.56953763961792,9.40707778930664
1700935963480747500,2.63274755859375,1.054187536239624,-2.5879249572753906,9.40358829498291
1700935963497749200,2.649749267578125,1.046602487564087,-2.604942798614502,9.399735450744629
1700935963514744600,2.66674462890625,1.0478216409683228,-2.621307849884033,9.395048141479492
1700935963531736000,2.683736083984375,1.0531765222549438,-2.6331682205200195,9.391131401062012
1700935963548729000,2.70072900390625,1.0638015270233154,-2.635478973388672,9.389286994934082
1700935963565725700,2.7177255859375,1.0796176195144653,-2.6316821575164795,9.388545989990234
1700935963582714000,2.734714111328125,1.0974832773208618,-2.6243228912353516,9.388533592224121
1700935963599709700,2.751709716796875,1.1213030815124512,-2.6164987087249756,9.387903213500977
1700935963616707600,2.76870751953125,1.1500591039657593,-2.6075589656829834,9.38691234588623
1700935963633693400,2.785693359375,1.172331690788269,-2.5908095836639404,9.3887939453125
1700935963650689800,2.802689697265625,1.1845132112503052,-2.5648930072784424,9.394379615783691
1700935963667665000,2.819664794921875,1.1912106275558472,-2.5370700359344482,9.40108585357666
1700935963684673300,2.83667333984375,1.1946581602096558,-2.515519142150879,9.406438827514648
1700935963701670100,2.853670166015625,1.1979618072509766,-2.4998645782470703,9.410191535949707
1700935963718662000,2.870661865234375,1.2007346153259277,-2.4872753620147705,9.413172721862793
1700935963735657000,2.887656982421875,1.1997785568237305,-2.4745218753814697,9.416654586791992
1700935963752646000,2.90464599609375,1.1901096105575562,-2.4589686393737793,9.421955108642578
1700935963769639700,2.9216396484375,1.1738309860229492,-2.440037727355957,9.428915977478027
1700935963786638000,2.93863818359375,1.1573517322540283,-2.4184746742248535,9.436506271362305
1700935963803616000,2.955615966796875,1.1477774381637573,-2.3975961208343506,9.443000793457031
1700935963820621300,2.972621337890625,1.145179033279419,-2.3750035762786865,9.449024200439453
1700935963837616600,2.98961669921875,1.141667127609253,-2.3450281620025635,9.456931114196777
1700935963854595600,3.006595703125,1.1317064762115479,-2.307886838912964,9.467259407043457
1700935963871600400,3.023600341796875,1.112602949142456,-2.2657811641693115,9.479687690734863
1700935963888591400,3.04059130859375,1.0891621112823486,-2.2230582237243652,9.49251651763916
1700935963905588500,3.05758837890625,1.0673478841781616,-2.181457757949829,9.504636764526367
1700935963922578200,3.074578125,1.0546120405197144,-2.142927408218384,9.51481819152832
1700935963939581200,3.091581298828125,1.0506511926651,-2.1114373207092285,9.522294044494629
1700935963956567800,3.10856787109375,1.051175594329834,-2.084428310394287,9.52818489074707
1700935963973552000,3.12555224609375,1.051514744758606,-2.0596539974212646,9.53353500366211
1700935963990554000,3.14255419921875,1.0507920980453491,-2.038266897201538,9.538208961486816
1700935964007544800,3.159544921875,1.0470165014266968,-2.0193064212799072,9.542655944824219
1700935964024542700,3.176542724609375,1.0388911962509155,-1.9983453750610352,9.547953605651855
1700935964041523000,3.19352294921875,1.030660629272461,-1.9742920398712158,9.553848266601562
1700935964058526700,3.210526611328125,1.0246344804763794,-1.9481207132339478,9.559867858886719
1700935964075519000,3.22751904296875,1.0226377248764038,-1.9221339225769043,9.565340995788574
1700935964092513300,3.24451318359375,1.0290346145629883,-1.895324468612671,9.570002555847168
1700935964109506300,3.26150634765625,1.036658763885498,-1.867606282234192,9.574626922607422
1700935964126486800,3.27848681640625,1.0456079244613647,-1.8400156497955322,9.578996658325195
1700935964143487500,3.295487548828125,1.0535402297973633,-1.812562346458435,9.583359718322754
1700935964160488400,3.312488525390625,1.0524637699127197,-1.7873915433883667,9.588205337524414
1700935964177479000,3.32947900390625,1.0496424436569214,-1.770307183265686,9.591683387756348
1700935964194472400,3.346472412109375,1.0560715198516846,-1.7632384300231934,9.592278480529785
1700935964211465700,3.3634658203125,1.0644605159759521,-1.7690380811691284,9.590283393859863
1700935964228445700,3.38044580078125,1.0718543529510498,-1.7927894592285156,9.585047721862793
1700935964245454600,3.39745458984375,1.0875943899154663,-1.836296796798706,9.575033187866211
1700935964262445000,3.414445068359375,1.107738733291626,-1.892585039138794,9.56175422668457
1700935964279422200,3.431422119140625,1.1226356029510498,-1.9544620513916016,9.547558784484863
1700935964296427300,3.44842724609375,1.1299388408660889,-2.01975154876709,9.533097267150879
1700935964313429000,3.465428955078125,1.1303486824035645,-2.0854036808013916,9.518902778625488
1700935964330418200,3.482418212890625,1.1265480518341064,-2.1416876316070557,9.50684928894043
1700935964347411000,3.499410888671875,1.1200658082962036,-2.183082103729248,9.49819564819336
1700935964364394200,3.516394287109375,1.1110377311706543,-2.2147157192230225,9.491930961608887
1700935964381397800,3.533397705078125,1.0965886116027832,-2.242363214492798,9.4871187210083
1700935964398390800,3.550390869140625,1.0758198499679565,-2.2669034004211426,9.483663558959961
1700935964415384000,3.567384033203125,1.0535881519317627,-2.288165330886841,9.481053352355957
1700935964432377300,3.58437744140625,1.037932276725769,-2.3108065128326416,9.477288246154785
1700935964449370000,3.6013701171875,1.0281598567962646,-2.338395833969116,9.47158432006836
1700935964466363400,3.61836328125,1.0178651809692383,-2.3697047233581543,9.464912414550781
1700935964483356700,3.635356689453125,1.0037623643875122,-2.401338815689087,9.458443641662598
1700935964500349700,3.652349609375,0.9864545464515686,-2.429685115814209,9.453023910522461
1700935964517343200,3.66934326171875,0.9713857173919678,-2.4505629539489746,9.44919490814209
1700935964534336300,3.686336181640625,0.9612594842910767,-2.4597854614257812,9.447833061218262
1700935964551338000,3.703337890625,0.9605712890625,-2.458894968032837,9.448135375976562
1700935964568320300,3.7203203125,0.9644380211830139,-2.4560649394989014,9.448476791381836
1700935964585318400,3.737318359375,0.9665073752403259,-2.4557526111602783,9.448346138000488
1700935964602309000,3.75430908203125,0.964866042137146,-2.4560089111328125,9.44844913482666
1700935964619302100,3.77130224609375,0.9627861976623535,-2.452471971511841,9.449578285217285
1700935964636295400,3.78829541015625,0.9614711403846741,-2.4425137042999268,9.452292442321777
1700935964653286100,3.8052861328125,0.9609835147857666,-2.426037073135376,9.456583976745605
1700935964670284800,3.822284912109375,0.9646859765052795,-2.404409408569336,9.4617280960083
1700935964687275000,3.83927490234375,0.9703852534294128,-2.38061785697937,9.46716022491455
1700935964704268000,3.85626806640625,0.9790046215057373,-2.357103109359741,9.472156524658203
1700935964721259500,3.873259521484375,0.9917492270469666,-2.3380496501922607,9.47555160522461
1700935964738256600,3.890256591796875,1.0023099184036255,-2.325239658355713,9.477592468261719
1700935964755237000,3.907237060546875,1.0058609247207642,-2.314551591873169,9.47983169555664
1700935964772241200,3.9242412109375,1.0066508054733276,-2.307858943939209,9.481379508972168
1700935964789223700,3.9412236328125,1.011489987373352,-2.307830572128296,9.480871200561523
1700935964806227700,3.958227783203125,1.0251485109329224,-2.311204671859741,9.478582382202148
1700935964823221000,3.975220947265625,1.0448728799819946,-2.315453052520752,9.475391387939453
1700935964840214000,3.992214111328125,1.066608190536499,-2.321805715560913,9.471413612365723
1700935964857206000,4.0092060546875,1.0897619724273682,-2.33380126953125,9.465828895568848
1700935964874190800,4.02619091796875,1.112852692604065,-2.351646661758423,9.458722114562988
1700935964891193600,4.043193603515625,1.1329858303070068,-2.37373685836792,9.450810432434082
1700935964908184000,4.06018408203125,1.1505157947540283,-2.4017109870910645,9.441620826721191
1700935964925172700,4.0771728515625,1.1653214693069458,-2.435249090194702,9.431209564208984
1700935964942173200,4.094173095703125,1.1771328449249268,-2.4730231761932373,9.419906616210938
1700935964959166200,4.111166259765625,1.1871930360794067,-2.5127387046813965,9.408126831054688
1700935964976160000,4.128159912109375,1.1965643167495728,-2.554506540298462,9.395682334899902
1700935964993152800,4.14515283203125,1.2064303159713745,-2.5974156856536865,9.382648468017578
1700935965010145800,4.162145751953125,1.213953971862793,-2.6417737007141113,9.369283676147461
1700935965027122200,4.1791220703125,1.2209314107894897,-2.6847238540649414,9.356157302856445
1700935965044132600,4.196132568359375,1.2257226705551147,-2.723487377166748,9.344321250915527
1700935965061122800,4.213122802734375,1.2316405773162842,-2.7553811073303223,9.334187507629395
1700935965078119000,4.230118896484375,1.242098331451416,-2.779693841934204,9.32558822631836
1700935965095114500,4.247114501953125,1.2523216009140015,-2.796387195587158,9.319228172302246
1700935965112105200,4.264105224609375,1.2626144886016846,-2.8070950508117676,9.314620971679688
1700935965129098200,4.28109814453125,1.2744030952453613,-2.81569766998291,9.310417175292969
1700935965146077200,4.2980771484375,1.2853741645812988,-2.823085308074951,9.306670188903809
1700935965163084500,4.31508447265625,1.2958874702453613,-2.827988386154175,9.30372428894043
1700935965180077800,4.332077880859375,1.3051588535308838,-2.834566593170166,9.300424575805664
1700935965197060900,4.349060791015625,1.3080116510391235,-2.8442184925079346,9.297078132629395
1700935965214064600,4.366064697265625,1.3043156862258911,-2.856199026107788,9.293923377990723
1700935965231055000,4.38305517578125,1.2981609106063843,-2.87176513671875,9.289987564086914
1700935965248053200,4.40005322265625,1.2903121709823608,-2.88865327835083,9.285843849182129
1700935965265045500,4.41704541015625,1.283774971961975,-2.9023818969726562,9.28246784210205
1700935965282037200,4.434037353515625,1.2780523300170898,-2.9117937088012695,9.280309677124023
1700935965299030500,4.451030517578125,1.2705719470977783,-2.9174721240997314,9.27955436706543
1700935965316023600,4.4680234375,1.260301947593689,-2.9226605892181396,9.279322624206543
1700935965333016600,4.4850166015625,1.2460808753967285,-2.925168037414551,9.280451774597168
1700935965350010000,4.502010009765625,1.2299753427505493,-2.9230003356933594,9.283284187316895
1700935965367003400,4.51900341796875,1.2129809856414795,-2.917851448059082,9.287138938903809
1700935965383996700,4.53599658203125,1.1961731910705566,-2.911468505859375,9.29132080078125
1700935965400989700,4.55298974609375,1.1781806945800781,-2.9042420387268066,9.295880317687988
1700935965417983000,4.56998291015625,1.158660888671875,-2.8952245712280273,9.301145553588867
1700935965434976000,4.58697607421875,1.136802315711975,-2.8841030597686768,9.307295799255371
1700935965451969300,4.60396923828125,1.1161803007125854,-2.870326280593872,9.314047813415527
1700935965468960000,4.6209599609375,1.099851369857788,-2.856346368789673,9.32028579711914
1700935965485958400,4.63795849609375,1.0909963846206665,-2.841973304748535,9.32571792602539
1700935965502946800,4.65494677734375,1.0892843008041382,-2.826687812805176,9.33056354522705
1700935965519944000,4.67194384765625,1.0960530042648315,-2.8137922286987305,9.333667755126953
1700935965536935200,4.68893505859375,1.1047958135604858,-2.803959369659424,9.335596084594727
1700935965553928400,4.705928466796875,1.109795093536377,-2.794602870941162,9.337808609008789
1700935965570921700,4.722921630859375,1.111596703529358,-2.784369945526123,9.34065055847168
1700935965587914800,4.739914794921875,1.118538498878479,-2.772392511367798,9.3433837890625
1700935965604908300,4.756908203125,1.1356580257415771,-2.7581560611724854,9.345531463623047
1700935965621901600,4.773901611328125,1.1592906713485718,-2.7423064708709717,9.347294807434082
1700935965638888000,4.790887939453125,1.1837191581726074,-2.725836992263794,9.349050521850586
1700935965655888000,4.807887939453125,1.2068086862564087,-2.7110891342163086,9.350386619567871
1700935965672881000,4.824880859375,1.2273300886154175,-2.6985175609588623,9.351351737976074
1700935965689874200,4.841874267578125,1.2464123964309692,-2.6860756874084473,9.352409362792969
1700935965706867500,4.858867431640625,1.2645931243896484,-2.67572283744812,9.352935791015625
1700935965723860500,4.875860595703125,1.2826546430587769,-2.6701557636260986,9.352068901062012
1700935965740853800,4.892853759765625,1.2993595600128174,-2.6725192070007324,9.349087715148926
1700935965757847000,4.909846923828125,1.3140231370925903,-2.6816744804382324,9.344413757324219
1700935965774828300,4.926828369140625,1.324572205543518,-2.696948766708374,9.33852767944336
1700935965791836200,4.943836181640625,1.3309181928634644,-2.718837261199951,9.331274032592773
1700935965808827000,4.960826904296875,1.331943154335022,-2.744438648223877,9.323631286621094
1700935965825820000,4.97781982421875,1.3280729055404663,-2.7727222442626953,9.315811157226562
1700935965842813000,4.99481298828125,1.3236207962036133,-2.804710865020752,9.306864738464355
1700935965859804200,5.01180419921875,1.323843002319336,-2.8430795669555664,9.295185089111328
1700935965876801800,5.0288017578125,1.325343370437622,-2.885246515274048,9.281967163085938
1700935965893791200,5.045791259765625,1.3231021165847778,-2.927013397216797,9.26920223236084
1700935965910785500,5.06278564453125,1.3174525499343872,-2.9649930000305176,9.257929801940918
1700935965927777800,5.07977783203125,1.3111615180969238,-2.9986212253570557,9.24798583984375
1700935965944764200,5.09676416015625,1.307207703590393,-3.0283544063568115,9.238853454589844
1700935965961765400,5.113765380859375,1.3076637983322144,-3.053309202194214,9.230570793151855
1700935965978755600,5.130755615234375,1.3120847940444946,-3.0727429389953613,9.223490715026855
1700935965995748900,5.147748779296875,1.3179174661636353,-3.085394859313965,9.218436241149902
1700935966012745000,5.164744873046875,1.3258696794509888,-3.091442346572876,9.2152681350708
1700935966029738500,5.181738525390625,1.3385429382324219,-3.093919277191162,9.212603569030762
1700935966046731300,5.198731201171875,1.3546134233474731,-3.0959465503692627,9.209574699401855
1700935966063724800,5.215724853515625,1.3675479888916016,-3.097496747970581,9.207141876220703
1700935966080718000,5.232718017578125,1.3746120929718018,-3.0969367027282715,9.206276893615723
1700935966097705000,5.249705078125,1.3787184953689575,-3.0928146839141846,9.207050323486328
1700935966114704400,5.266704345703125,1.3872244358062744,-3.086009979248047,9.208053588867188
1700935966131697400,5.283697509765625,1.4035171270370483,-3.077080726623535,9.208573341369629
1700935966148690700,5.300690673828125,1.4236572980880737,-3.067659854888916,9.208625793457031
1700935966165684000,5.31768408203125,1.4429981708526611,-3.0588629245758057,9.208540916442871
1700935966182677000,5.334677001953125,1.4586395025253296,-3.0536277294158936,9.20781421661377
1700935966199670500,5.35167041015625,1.4718793630599976,-3.05428409576416,9.205489158630371
1700935966216661800,5.368661865234375,1.4842215776443481,-3.058272361755371,9.20218276977539
1700935966233659000,5.385658935546875,1.4968276023864746,-3.062246561050415,9.198819160461426
1700935966250647300,5.402647216796875,1.5119426250457764,-3.065707206726074,9.19519329071045
1700935966267646200,5.419646240234375,1.5298000574111938,-3.0691423416137695,9.191093444824219
1700935966284636700,5.43663671875,1.5484217405319214,-3.073922872543335,9.186376571655273
1700935966301629400,5.45362939453125,1.5642296075820923,-3.0811452865600586,9.181276321411133
1700935966318622700,5.470622802734375,1.5744792222976685,-3.090465545654297,9.176390647888184
1700935966335616000,5.487615966796875,1.5808924436569214,-3.100410223007202,9.1719331741333
1700935966352609300,5.504609375,1.5889416933059692,-3.109088659286499,9.167604446411133
1700935966369600000,5.52160009765625,1.5979365110397339,-3.1130807399749756,9.164685249328613
1700935966386598100,5.53859814453125,1.605987548828125,-3.1119894981384277,9.163647651672363
1700935966403588900,5.5555888671875,1.6129088401794434,-3.1090781688690186,9.163420677185059
1700935966420582000,5.572581787109375,1.6196227073669434,-3.1097168922424316,9.162019729614258
1700935966437575200,5.5895751953125,1.6242963075637817,-3.1169114112854004,9.158746719360352
1700935966454568200,5.606568115234375,1.6247512102127075,-3.1305906772613525,9.153999328613281
1700935966471561700,5.623561767578125,1.619258999824524,-3.1466622352600098,9.149460792541504
1700935966488544500,5.64054443359375,1.6104203462600708,-3.1597235202789307,9.146517753601074
1700935966505548300,5.65754833984375,1.6018067598342896,-3.168243885040283,9.1450834274292
1700935966522541300,5.674541259765625,1.5984077453613281,-3.1735782623291016,9.143829345703125
1700935966539535000,5.69153515625,1.6024880409240723,-3.1789333820343018,9.141254425048828
1700935966556527400,5.70852734375,1.6093958616256714,-3.1872708797454834,9.137137413024902
1700935966573511000,5.725510986328125,1.6109594106674194,-3.19891095161438,9.132792472839355
1700935966590514200,5.74251416015625,1.6054863929748535,-3.212120771408081,9.129119873046875
1700935966607507500,5.759507568359375,1.596496343612671,-3.225013256072998,9.12614917755127
1700935966624500500,5.77650048828125,1.58797287940979,-3.2356154918670654,9.123883247375488
1700935966641494000,5.793493896484375,1.5849591493606567,-3.2457170486450195,9.120819091796875
1700935966658484500,5.810484375,1.587737798690796,-3.256934881210327,9.116334915161133
1700935966675483000,5.82748291015625,1.5946381092071533,-3.268277645111084,9.11107063293457
1700935966692473900,5.844473876953125,1.6034311056137085,-3.278438091278076,9.105875968933105
1700935966709457000,5.861456787109375,1.6104098558425903,-3.286133050918579,9.101869583129883
1700935966726460000,5.8784599609375,1.6121739149093628,-3.291511297225952,9.099613189697266
1700935966743442700,5.895442626953125,1.6102519035339355,-3.296757459640503,9.098053932189941
1700935966760446500,5.912446533203125,1.6100367307662964,-3.305068016052246,9.095077514648438
1700935966777439700,5.929439697265625,1.6108810901641846,-3.3168530464172363,9.09063720703125
1700935966794432800,5.946432861328125,1.6093263626098633,-3.330152988433838,9.086048126220703
1700935966811425800,5.96342578125,1.607338786125183,-3.343517541885376,9.081489562988281
1700935966828419000,5.980419189453125,1.6028411388397217,-3.354978084564209,9.078058242797852
1700935966845412400,5.997412353515625,1.5963455438613892,-3.363987445831299,9.075867652893066
1700935966862398500,6.0143984375,1.5917952060699463,-3.370781183242798,9.074146270751953
1700935966879398700,6.031398681640625,1.590502381324768,-3.375788450241089,9.072511672973633
1700935966896392000,6.048391845703125,1.5906473398208618,-3.3809590339660645,9.070561408996582
1700935966913388500,6.065388427734375,1.5912578105926514,-3.3872108459472656,9.068120002746582
1700935966930375000,6.082375,1.5893832445144653,-3.393247604370117,9.066191673278809
1700935966947371800,6.099371826171875,1.5820600986480713,-3.3973429203033447,9.065940856933594
1700935966964364500,6.116364501953125,1.5726169347763062,-3.399120569229126,9.066915512084961
1700935966981358000,6.133358154296875,1.5658726692199707,-3.4005589485168457,9.067544937133789
1700935966998351400,6.150351318359375,1.5630450248718262,-3.4034225940704346,9.066956520080566
1700935967015344400,6.167344482421875,1.5607587099075317,-3.4062600135803223,9.06628704071045
1700935967032337700,6.184337646484375,1.5551992654800415,-3.4095706939697266,9.065996170043945
1700935967049331000,6.2013310546875,1.5457038879394531,-3.4132304191589355,9.066243171691895
1700935967066324000,6.218323974609375,1.5380650758743286,-3.4161157608032227,9.06645679473877
1700935967083317200,6.235317138671875,1.5343083143234253,-3.417552947998047,9.066549301147461
1700935967100312800,6.252312744140625,1.5340983867645264,-3.4196395874023438,9.065799713134766
1700935967117303800,6.2693037109375,1.5361454486846924,-3.425142288208008,9.063375473022461
1700935967134297000,6.286297119140625,1.538612961769104,-3.434873342514038,9.059274673461914
1700935967151290000,6.3032900390625,1.5384206771850586,-3.4484703540802,9.054140090942383
1700935967168283100,6.320283203125,1.534163236618042,-3.464618682861328,9.04869556427002
1700935967185276700,6.337276611328125,1.5277395248413086,-3.480347156524658,9.043744087219238
1700935967202269700,6.354269775390625,1.5249310731887817,-3.4940578937530518,9.03892993927002
1700935967219263000,6.371262939453125,1.5277453660964966,-3.5074124336242676,9.033282279968262
1700935967236256500,6.388256591796875,1.5351356267929077,-3.5230791568756104,9.02592945098877
1700935967253249500,6.40524951171875,1.5445678234100342,-3.5420825481414795,9.016877174377441
1700935967270242800,6.422242919921875,1.550837755203247,-3.5620884895324707,9.007914543151855
1700935967287236000,6.439236083984375,1.5530164241790771,-3.579993486404419,9.000439643859863
1700935967304229000,6.45622900390625,1.5556775331497192,-3.59378719329834,8.99448013305664
1700935967321231400,6.4732314453125,1.5641109943389893,-3.604875326156616,8.988578796386719
1700935967338213400,6.49021337890625,1.5789955854415894,-3.6162197589874268,8.981416702270508
1700935967355208700,6.507208740234375,1.5968869924545288,-3.6280710697174072,8.973469734191895
1700935967372202000,6.524201904296875,1.6124603748321533,-3.63962984085083,8.966001510620117
1700935967389195300,6.5411953125,1.6226041316986084,-3.649991273880005,8.959957122802734
1700935967406185500,6.558185546875,1.6335034370422363,-3.6602654457092285,8.953783988952637
1700935967423184600,6.5751845703125,1.6529699563980103,-3.671147346496582,8.94575309753418
1700935967440168200,6.592168212890625,1.6803629398345947,-3.681381940841675,8.936437606811523
1700935967457168100,6.609168212890625,1.7066818475723267,-3.6901755332946777,8.92781925201416
1700935967474161200,6.6261611328125,1.7250356674194336,-3.6980984210968018,8.921010971069336
1700935967491158000,6.643157958984375,1.736537218093872,-3.709254503250122,8.914146423339844
1700935967508143900,6.660143798828125,1.7474802732467651,-3.7260799407958984,8.904985427856445
1700935967525144600,6.67714453125,1.7614105939865112,-3.7471964359283447,8.89337158203125
1700935967542134000,6.694134033203125,1.7748569250106812,-3.767077922821045,8.882293701171875
1700935967559126000,6.7111259765625,1.7839446067810059,-3.7837533950805664,8.873380661010742
1700935967576122000,6.7281220703125,1.7881698608398438,-3.801128387451172,8.86509895324707
1700935967593113600,6.745113525390625,1.7893924713134766,-3.8188135623931885,8.857248306274414
1700935967610096400,6.762096435546875,1.7908467054367065,-3.833238363265991,8.850719451904297
1700935967627100200,6.77910009765625,1.796571135520935,-3.8416905403137207,8.845894813537598
1700935967644093400,6.796093505859375,1.8059126138687134,-3.847451686859131,8.8414888381958
1700935967661086700,6.813086669921875,1.8138221502304077,-3.85725736618042,8.835593223571777
1700935967678069200,6.8300693359375,1.8130369186401367,-3.8725035190582275,8.829084396362305
1700935967695073300,6.8470732421875,1.8009155988693237,-3.892641067504883,8.82270622253418
1700935967712069400,6.8640693359375,1.7814074754714966,-3.920168876647949,8.814476013183594
1700935967729059600,6.8810595703125,1.7586168050765991,-3.956644058227539,8.802745819091797
1700935967746049500,6.898049560546875,1.7299941778182983,-3.9954371452331543,8.790887832641602
1700935967763046000,6.9150458984375,1.694737195968628,-4.028748989105225,8.782548904418945
1700935967780053000,6.932052978515625,1.6551913022994995,-4.05406379699707,8.778441429138184
1700935967797032400,6.949032470703125,1.6134999990463257,-4.071333408355713,8.778210639953613
1700935967814025500,6.966025390625,1.5711673498153687,-4.079192638397217,8.782240867614746
1700935967831001600,6.983001708984375,1.5311139822006226,-4.07774543762207,8.789982795715332
1700935967848011800,7.00001171875,1.4947278499603271,-4.0672783851623535,8.80108642578125
1700935967865005000,7.017005126953125,1.4628050327301025,-4.047842025756836,8.815401077270508
1700935967881998600,7.03399853515625,1.4381537437438965,-4.02259635925293,8.830997467041016
1700935967898991900,7.050991943359375,1.4226422309875488,-3.9970643520355225,8.8450927734375
1700935967915985000,7.06798486328125,1.415940761566162,-3.97574782371521,8.855769157409668
1700935967932978200,7.084978271484375,1.4146701097488403,-3.959353446960449,8.86331558227539
1700935967949971500,7.101971435546875,1.4145690202713013,-3.944577217102051,8.869915962219238
1700935967966964500,7.118964599609375,1.4129925966262817,-3.928128719329834,8.87746524810791
1700935967983957500,7.13595751953125,1.4117547273635864,-3.9102256298065186,8.8855619430542
1700935968000942800,7.15294287109375,1.4128732681274414,-3.8942620754241943,8.892390251159668
1700935968017944000,7.169944091796875,1.4186556339263916,-3.88478684425354,8.895615577697754
1700935968034934800,7.186934814453125,1.4291987419128418,-3.8841428756713867,8.894207954406738
1700935968051930600,7.2039306640625,1.4389069080352783,-3.892564058303833,8.888960838317871
1700935968068926500,7.220926513671875,1.443539023399353,-3.9111828804016113,8.880032539367676
1700935968085917000,7.2379169921875,1.4423778057098389,-3.935579538345337,8.869436264038086
1700935968102910500,7.254910400390625,1.4380210638046265,-3.9611659049987793,8.858746528625488
1700935968119903500,7.271903564453125,1.4348313808441162,-3.9885215759277344,8.846981048583984
1700935968136896500,7.288896484375,1.433622121810913,-4.019348621368408,8.833213806152344
1700935968153890000,7.30589013671875,1.4295653104782104,-4.05366849899292,8.818177223205566
1700935968170883000,7.322883056640625,1.4200917482376099,-4.0857768058776855,8.804878234863281
1700935968187876400,7.33987646484375,1.407292127609253,-4.112518787384033,8.794477462768555
1700935968204870000,7.356869873046875,1.398093342781067,-4.134698390960693,8.785540580749512
1700935968221863000,7.37386279296875,1.3972495794296265,-4.154930591583252,8.776124954223633
1700935968238853400,7.390853271484375,1.403006672859192,-4.176968574523926,8.764737129211426
1700935968255852000,7.40785205078125,1.410530924797058,-4.203827381134033,8.750678062438965
1700935968272842500,7.424842529296875,1.4120780229568481,-4.231361389160156,8.73714828491211
1700935968289835800,7.441835693359375,1.4070751667022705,-4.257373809814453,8.725309371948242
1700935968306829000,7.4588291015625,1.39970064163208,-4.282505512237549,8.714189529418945
1700935968323822000,7.475822021484375,1.3968414068222046,-4.305693626403809,8.703213691711426
1700935968340815400,7.4928154296875,1.4030201435089111,-4.326107501983643,8.692091941833496
1700935968357808600,7.50980859375,1.413785457611084,-4.340697765350342,8.683067321777344
1700935968374791200,7.526791259765625,1.4192053079605103,-4.347756385803223,8.678650856018066
1700935968391795200,7.543795166015625,1.4111659526824951,-4.3486409187316895,8.679518699645996
1700935968408787500,7.560787353515625,1.3961461782455444,-4.345246315002441,8.683646202087402
1700935968425782300,7.5777822265625,1.3890528678894043,-4.335519313812256,8.689643859863281
1700935968442774500,7.5947744140625,1.396104097366333,-4.315922260284424,8.698267936706543
1700935968459757000,7.611757080078125,1.4120131731033325,-4.286082744598389,8.710444450378418
1700935968476763100,7.62876318359375,1.4279568195343018,-4.247945785522461,8.72651195526123
1700935968493752300,7.64575244140625,1.4415562152862549,-4.205957889556885,8.74459457397461
1700935968510747400,7.662747314453125,1.453122615814209,-4.164333343505859,8.76258373260498
1700935968527740700,7.67974072265625,1.4663606882095337,-4.123281002044678,8.77977466583252
1700935968544734000,7.69673388671875,1.481277585029602,-4.078711986541748,8.798069953918457
1700935968561727000,7.71372705078125,1.494632601737976,-4.030041217803955,8.818218231201172
1700935968578724900,7.730724853515625,1.511074423789978,-3.980086088180542,8.838080406188965
1700935968595703000,7.747703125,1.5353894233703613,-3.9322986602783203,8.855265617370605
1700935968612707000,7.76470703125,1.5608558654785156,-3.8824355602264404,8.872797966003418
1700935968629699800,7.781699951171875,1.5803241729736328,-3.8279972076416016,8.89298152923584
1700935968646682600,7.7986826171875,1.593406081199646,-3.772876501083374,8.914176940917969
1700935968663686100,7.81568603515625,1.6104273796081543,-3.728715419769287,8.929686546325684
1700935968680679400,7.832679443359375,1.6311229467391968,-3.696171283721924,8.93945598602295
1700935968697672700,7.849672607421875,1.6488564014434814,-3.661444664001465,8.950486183166504
1700935968714666000,7.866666015625,1.6597058773040771,-3.617035150527954,8.966525077819824
1700935968731659500,7.883659423828125,1.6758419275283813,-3.5663461685180664,8.983810424804688
1700935968748652500,7.900652587890625,1.715773105621338,-3.518728494644165,8.99504280090332
1700935968765645600,7.9176455078125,1.7818788290023804,-3.4813477993011475,8.996733665466309
1700935968782638800,7.934638916015625,1.8529183864593506,-3.449735164642334,8.994562149047852
1700935968799632100,7.951632080078125,1.9008930921554565,-3.415318727493286,8.997682571411133
1700935968816624000,7.9686240234375,1.9223681688308716,-3.3808541297912598,9.006134033203125
1700935968833618700,7.98561865234375,1.937374472618103,-3.3525948524475098,9.013479232788086
1700935968850609400,8.002609375,1.9664525985717773,-3.3261523246765137,9.016979217529297
1700935968867607600,8.019607666015625,2.0199317932128906,-3.30134916305542,9.014270782470703
1700935968884598300,8.036598388671875,2.0865678787231445,-3.2758967876434326,9.008377075195312
1700935968901591600,8.053591552734375,2.1527724266052246,-3.2437312602996826,9.004437446594238
1700935968918584600,8.07058447265625,2.218372344970703,-3.201263666152954,9.003713607788086
1700935968935577900,8.087577880859374,2.284226655960083,-3.151409864425659,9.004833221435547
1700935968952571100,8.104571044921874,2.3523969650268555,-3.1020917892456055,9.004408836364746
1700935968969561900,8.121561767578125,2.4195926189422607,-3.061588764190674,9.000463485717773
1700935968986560300,8.138560302734374,2.4781055450439453,-3.032792329788208,8.994291305541992
1700935969003551000,8.155551025390626,2.518259048461914,-3.009554624557495,8.990943908691406
1700935969020544000,8.1725439453125,2.5356574058532715,-2.9843902587890625,8.994441032409668
1700935969037537300,8.189537353515625,2.5363614559173584,-2.960587978363037,9.002104759216309
1700935969054530600,8.206530517578125,2.5304932594299316,-2.942899465560913,9.009553909301758
1700935969071523800,8.22352392578125,2.5279901027679443,-2.936096429824829,9.012475967407227
1700935969088516900,8.240516845703125,2.538405418395996,-2.9332447052001953,9.010477066040039
1700935969105510100,8.25751025390625,2.563215970993042,-2.915239095687866,9.009296417236328
1700935969122503700,8.274503662109375,2.585235357284546,-2.8813083171844482,9.013917922973633
1700935969139496700,8.29149658203125,2.5940463542938232,-2.8427634239196777,9.02362060546875
1700935969156489700,8.30848974609375,2.596020221710205,-2.8077590465545654,9.034008026123047
1700935969173483500,8.3254833984375,2.5969161987304688,-2.777813196182251,9.043004035949707
1700935969190476500,8.3424765625,2.611501693725586,-2.7550127506256104,9.045777320861816
1700935969207469600,8.359469482421876,2.6347720623016357,-2.746030569076538,9.04175853729248
1700935969224462800,8.376462890625,2.648298740386963,-2.7497103214263916,9.036687850952148
1700935969241458200,8.393458251953126,2.640591621398926,-2.766479015350342,9.033824920654297
1700935969258446800,8.41044677734375,2.607178211212158,-2.798114776611328,9.033785820007324
1700935969275442400,8.4274423828125,2.5669138431549072,-2.8433077335357666,9.031205177307129
1700935969292436000,8.44443603515625,2.537353038787842,-2.898435115814209,9.022031784057617
1700935969309426400,8.461426513671874,2.517200231552124,-2.9508776664733887,9.010668754577637
1700935969326424800,8.4784248046875,2.4932732582092285,-2.9888570308685303,9.004801750183105
1700935969343415300,8.495415283203124,2.463561534881592,-3.016956329345703,9.003607749938965
1700935969360395800,8.512395751953125,2.430412530899048,-3.0511395931243896,9.0010986328125
1700935969377401900,8.52940185546875,2.3959248065948486,-3.099045991897583,8.993973731994629
1700935969394395100,8.54639501953125,2.3627090454101562,-3.160433053970337,8.981390953063965
1700935969411387600,8.5633876953125,2.3295235633850098,-3.230037212371826,8.965283393859863
1700935969428382000,8.5803818359375,2.2957093715667725,-3.2961533069610596,8.94992733001709
1700935969445374500,8.59737451171875,2.2587568759918213,-3.355048656463623,8.937437057495117
1700935969462357200,8.614357177734375,2.2148823738098145,-3.412325859069824,8.926725387573242
1700935969479360800,8.63136083984375,2.168628692626953,-3.476921796798706,8.913146018981934
1700935969496354300,8.648354248046875,2.1285011768341064,-3.5536420345306396,8.892538070678711
1700935969513347300,8.665347412109375,2.1045963764190674,-3.6302452087402344,8.867247581481934
1700935969530350800,8.682350830078125,2.0968425273895264,-3.6824913024902344,8.847522735595703
1700935969547334000,8.699333984375,2.0858631134033203,-3.704735517501831,8.840826988220215
1700935969564316700,8.716316650390626,2.0466933250427246,-3.713123321533203,8.846460342407227
1700935969581320700,8.73332080078125,1.9814811944961548,-3.7285234928131104,8.854826927185059
1700935969598313500,8.7503134765625,1.9097942113876343,-3.7575483322143555,8.858308792114258
1700935969615307000,8.76730712890625,1.8565641641616821,-3.7907211780548096,8.855491638183594
1700935969632298000,8.784298095703125,1.837977647781372,-3.8145861625671387,8.849117279052734
1700935969649295600,8.801295654296876,1.8459081649780273,-3.821915626525879,8.844305038452148
1700935969666286600,8.81828662109375,1.8517729043960571,-3.819448232650757,8.84414291381836
1700935969683269000,8.83526904296875,1.8354743719100952,-3.817436695098877,8.848408699035645
1700935969700257800,8.8522578125,1.7956624031066895,-3.819056987762451,8.855874061584473
1700935969717266400,8.869266357421875,1.7487157583236694,-3.8252320289611816,8.862600326538086
1700935969734257200,8.886257080078124,1.7106877565383911,-3.8344719409942627,8.8660306930542
1700935969751252500,8.90325244140625,1.6854605674743652,-3.844547748565674,8.866497993469238
1700935969768238600,8.920238525390625,1.6689229011535645,-3.8540139198303223,8.865517616271973
1700935969785236500,8.937236572265626,1.6517741680145264,-3.8617241382598877,8.865373611450195
1700935969802235000,8.95423486328125,1.631990671157837,-3.867158889770508,8.866668701171875
1700935969819225600,8.9712255859375,1.611311435699463,-3.8717269897460938,8.868456840515137
1700935969836222000,8.988221923828124,1.5909274816513062,-3.8752260208129883,8.870609283447266
1700935969853212200,9.005212158203125,1.568884015083313,-3.8790061473846436,8.872880935668945
1700935969870197000,9.022197021484375,1.5457097291946411,-3.8872673511505127,8.873333930969238
1700935969887198500,9.039198486328125,1.520275592803955,-3.9048690795898438,8.869999885559082
1700935969904191700,9.056191650390625,1.489464282989502,-3.9292454719543457,8.864459991455078
1700935969921174800,9.0731748046875,1.4512567520141602,-3.9567859172821045,8.858545303344727
1700935969938177800,9.090177734375,1.4116138219833374,-3.9863224029541016,8.851706504821777
1700935969955171300,9.10717138671875,1.3784964084625244,-4.015358924865723,8.84379768371582
1700935969972164900,9.124164794921874,1.3496602773666382,-4.041922092437744,8.836141586303711
1700935969989158000,9.141157958984374,1.3171356916427612,-4.063343048095703,8.831223487854004
1700935970006140700,9.158140625,1.284019947052002,-4.079378604888916,8.828706741333008
1700935970023144200,9.175144287109376,1.2527672052383423,-4.090358734130859,8.828116416931152
1700935970040137500,9.192137451171876,1.2213454246520996,-4.098945617675781,8.828536987304688
1700935970057131000,9.209131103515626,1.1800833940505981,-4.102602958679199,8.832448959350586
1700935970074124000,9.2261240234375,1.1286401748657227,-4.09983491897583,8.840455055236816
1700935970091117300,9.243117431640625,1.079037070274353,-4.093871116638184,8.849407196044922
1700935970108115200,9.260115234375,1.047777771949768,-4.086455821990967,8.856589317321777
1700935970125099800,9.277099853515624,1.038733959197998,-4.073737621307373,8.863511085510254
1700935970142100700,9.294100830078126,1.0490449666976929,-4.052849292755127,8.871867179870605
1700935970159090200,9.311090087890625,1.075878381729126,-4.028103828430176,8.879920959472656
1700935970176083500,9.32808349609375,1.1156225204467773,-4.005804061889648,8.885102272033691
1700935970193075200,9.3450751953125,1.159200668334961,-3.991260051727295,8.886069297790527
1700935970210068700,9.36206884765625,1.1940313577651978,-3.9901986122131348,8.881932258605957
1700935970227063800,9.379063720703124,1.2181475162506104,-4.004952430725098,8.8720121383667
1700935970244056600,9.396056640625,1.237533450126648,-4.0340962409973145,8.856111526489258
1700935970261049600,9.413049560546876,1.2594125270843506,-4.074246883392334,8.834619522094727
1700935970278042600,9.430042724609375,1.2815278768539429,-4.119453430175781,8.810443878173828
1700935970295036200,9.4470361328125,1.3010646104812622,-4.163565635681152,8.786812782287598
1700935970312029700,9.46402978515625,1.3113329410552979,-4.199036598205566,8.768388748168945
1700935970329021700,9.481021728515625,1.309628963470459,-4.2183518409729,8.759366035461426
1700935970346015700,9.498015625,1.2991011142730713,-4.217439651489258,8.761374473571777
1700935970363008800,9.5150087890625,1.2880586385726929,-4.196310043334961,8.773139953613281
1700935970379991800,9.53199169921875,1.286399245262146,-4.163105487823486,8.789189338684082
1700935970396993300,9.5489931640625,1.2912412881851196,-4.124885559082031,8.806482315063477
1700935970414002200,9.566002197265625,1.2935632467269897,-4.0861287117004395,8.824191093444824
1700935970430982000,9.58298193359375,1.2901344299316406,-4.051907062530518,8.840458869934082
1700935970447977000,9.59997705078125,1.2816383838653564,-4.0223846435546875,8.855165481567383
1700935970464966400,9.61696630859375,1.2704771757125854,-3.9925119876861572,8.870281219482422
1700935970481951200,9.633951171875,1.2634634971618652,-3.9582009315490723,8.886642456054688
1700935970498943000,9.65094287109375,1.2658100128173828,-3.9216606616973877,8.902494430541992
1700935970515937800,9.667937744140625,1.276693344116211,-3.8888025283813477,8.915345191955566
1700935970532943400,9.684943359375,1.290297508239746,-3.8600172996520996,8.925890922546387
1700935970549932000,9.70193212890625,1.2964915037155151,-3.833754539489746,8.936305046081543
1700935970566930000,9.718929931640625,1.2910583019256592,-3.8055813312530518,8.949125289916992
1700935970583920600,9.735920654296875,1.277808427810669,-3.7780861854553223,8.962666511535645
1700935970600911400,9.752911376953126,1.2630518674850464,-3.758249521255493,8.973092079162598
1700935970617910800,9.769910888671875,1.2496687173843384,-3.7513527870178223,8.977849960327148
1700935970634898000,9.78689794921875,1.23897123336792,-3.757518768310547,8.976754188537598
1700935970651896300,9.803896240234375,1.2295438051223755,-3.774792432785034,8.97080135345459
1700935970668893700,9.820893798828125,1.221758246421814,-3.8002798557281494,8.961099624633789
1700935970685880300,9.83788037109375,1.2165606021881104,-3.830888271331787,8.948765754699707
1700935970702873300,9.854873291015625,1.2111525535583496,-3.8647642135620117,8.934921264648438
1700935970719866600,9.87186669921875,1.2060585021972656,-3.9035565853118896,8.918731689453125
1700935970736860000,9.88885986328125,1.2019250392913818,-3.948622465133667,8.899430274963379
1700935970753853200,9.905853271484375,1.1988979578018188,-3.9972949028015137,8.87808609008789
1700935970770838000,9.922838134765625,1.1967175006866455,-4.044117450714111,8.857149124145508
1700935970787839700,9.93983984375,1.1934599876403809,-4.082406997680664,8.840007781982422
1700935970804833000,9.9568330078125,1.1898972988128662,-4.108842849731445,8.828230857849121
1700935970821825500,9.973825439453124,1.1872198581695557,-4.125657081604004,8.820747375488281
1700935970838819000,9.990819091796874,1.1877928972244263,-4.1366353034973145,8.815526962280273
1700935970855812400,10.007812255859376,1.192697525024414,-4.14495849609375,8.810954093933105
1700935970872807000,10.024806884765624,1.1958743333816528,-4.151715278625488,8.807341575622559
1700935970889799000,10.041798828125,1.194220781326294,-4.1581244468688965,8.80454158782959
1700935970906792200,10.058792236328125,1.1896265745162964,-4.166175842285156,8.80135726928711
1700935970923785500,10.075785400390625,1.1857919692993164,-4.177317142486572,8.796592712402344
1700935970940778800,10.09277880859375,1.1811434030532837,-4.19127893447876,8.79057502746582
1700935970957772000,10.10977197265625,1.1719657182693481,-4.2065510749816895,8.784504890441895
1700935970974773800,10.126773681640625,1.156493902206421,-4.224144458770752,8.778111457824707
1700935970991759000,10.143759033203125,1.1377934217453003,-4.246247291564941,8.769887924194336
1700935971008751600,10.160751708984375,1.1213632822036743,-4.273702621459961,8.758659362792969
1700935971025744600,10.17774462890625,1.1061441898345947,-4.306490421295166,8.744524955749512
1700935971042738000,10.194738037109374,1.0902315378189087,-4.343794822692871,8.728055953979492
1700935971059731500,10.2117314453125,1.0718613862991333,-4.382097244262695,8.711169242858887
1700935971076724500,10.228724365234376,1.0511932373046875,-4.413670063018799,8.697736740112305
1700935971093699800,10.245699951171876,1.0285282135009766,-4.431646823883057,8.691303253173828
1700935971110711000,10.2627109375,1.0045387744903564,-4.432836055755615,8.693501472473145
1700935971127704000,10.2797041015625,0.9788385629653931,-4.417893409729004,8.704033851623535
1700935971144697600,10.296697509765625,0.9531856775283813,-4.388744831085205,8.721609115600586
1700935971161690600,10.313690673828125,0.9316228628158569,-4.350924491882324,8.742863655090332
1700935971178684000,10.330683837890625,0.9169211983680725,-4.308136940002441,8.76557731628418
1700935971195674600,10.347674560546874,0.9060992002487183,-4.263453483581543,8.788518905639648
1700935971212672800,10.3646728515625,0.8957309126853943,-4.22062873840332,8.810225486755371
1700935971229663700,10.381663818359375,0.8873419165611267,-4.182197093963623,8.82938003540039
1700935971246656800,10.39865673828125,0.8843808770179749,-4.148138523101807,8.84572982788086
1700935971263650000,10.415650146484374,0.8875003457069397,-4.116410732269287,8.860227584838867
1700935971280643300,10.432643310546876,0.8961068987846375,-4.087822914123535,8.872588157653809
1700935971297636600,10.44963671875,0.9081305265426636,-4.0636749267578125,8.882452964782715
1700935971314627300,10.46662744140625,0.9216644763946533,-4.044931411743164,8.88961124420166
1700935971331625200,10.483625244140624,0.9374513626098633,-4.0335798263549805,8.893115997314453
1700935971348616200,10.5006162109375,0.9551497101783752,-4.028576374053955,8.893501281738281
1700935971365609500,10.517609375,0.9735515117645264,-4.028553485870361,8.89151668548584
1700935971382602500,10.5346025390625,0.9916878342628479,-4.0330810546875,8.887459754943848
1700935971399596000,10.551595947265625,1.0101287364959717,-4.045636177062988,8.879672050476074
1700935971416589000,10.568589111328125,1.0307238101959229,-4.068543434143066,8.866829872131348
1700935971433582300,10.585582275390625,1.050076961517334,-4.097850322723389,8.851049423217773
1700935971450575600,10.60257568359375,1.0647459030151367,-4.12960147857666,8.834524154663086
1700935971467566300,10.61956640625,1.0734354257583618,-4.160665512084961,8.81888484954834
1700935971484564500,10.636564453125,1.0774646997451782,-4.187429428100586,8.80571460723877
1700935971501544700,10.653544677734375,1.0844275951385498,-4.208951950073242,8.79459285736084
1700935971518548500,10.670548583984376,1.0991579294204712,-4.229324817657471,8.78298282623291
1700935971535541800,10.687541748046876,1.1201008558273315,-4.252023696899414,8.769367218017578
1700935971552535000,10.70453515625,1.1406924724578857,-4.276758670806885,8.754671096801758
1700935971569525800,10.72152587890625,1.154854416847229,-4.302070617675781,8.740402221679688
1700935971586521300,10.738521240234375,1.1646525859832764,-4.32811975479126,8.726229667663574
1700935971603517400,10.755517333984375,1.1724317073822021,-4.353821277618408,8.71239185333252
1700935971620507100,10.772507080078125,1.1804412603378296,-4.378148078918457,8.69911003112793
1700935971637502000,10.789501953125,1.1893260478973389,-4.401920795440674,8.685892105102539
1700935971654494500,10.806494384765625,1.201309323310852,-4.427586078643799,8.671186447143555
1700935971671487700,10.82348779296875,1.2132662534713745,-4.456274032592773,8.65480899810791
1700935971688478200,10.840478271484375,1.2214670181274414,-4.4868974685668945,8.637816429138184
1700935971705476600,10.8574765625,1.2244824171066284,-4.518915176391602,8.620682716369629
1700935971722467300,10.87446728515625,1.2252343893051147,-4.54953670501709,8.604454040527344
1700935971739460600,10.891460693359376,1.2251975536346436,-4.5739216804504395,8.591522216796875
1700935971756453600,10.90845361328125,1.2252788543701172,-4.587571144104004,8.58423137664795
1700935971773447000,10.925447021484375,1.2247508764266968,-4.5919952392578125,8.581937789916992
1700935971790440400,10.9424404296875,1.2202847003936768,-4.590489387512207,8.583380699157715
1700935971807433500,10.95943359375,1.210829734802246,-4.586880207061768,8.586648941040039
1700935971824426800,10.9764267578125,1.1984261274337769,-4.582143306732178,8.590916633605957
1700935971841417500,10.99341748046875,1.1863480806350708,-4.576210975646973,8.59575366973877
1700935971858415900,11.010415771484375,1.1757915019989014,-4.568371772766113,8.601371765136719
1700935971875403500,11.027403564453126,1.1665663719177246,-4.558907508850098,8.607647895812988
1700935971892402400,11.04440234375,1.1568845510482788,-4.548019886016846,8.614712715148926
1700935971909392600,11.061392578125,1.1489633321762085,-4.53722620010376,8.621461868286133
1700935971926386000,11.078385986328126,1.1437739133834839,-4.527310371398926,8.627362251281738
1700935971943379500,11.09537939453125,1.1419740915298462,-4.517797470092773,8.632585525512695
1700935971960372700,11.112372802734376,1.1435943841934204,-4.508402347564697,8.63728141784668
1700935971977356800,11.129356689453125,1.1481183767318726,-4.499007701873779,8.641578674316406
1700935971994357800,11.146357666015625,1.152512550354004,-4.487871170043945,8.646781921386719
1700935972011352300,11.163352294921875,1.1558483839035034,-4.474233627319336,8.653402328491211
1700935972028345300,11.180345458984375,1.158605933189392,-4.459336757659912,8.66071891784668
1700935972045338600,11.197338623046875,1.1642695665359497,-4.44503927230835,8.667306900024414
1700935972062329600,11.21432958984375,1.1769036054611206,-4.434605598449707,8.670944213867188
1700935972079328000,11.231327880859375,1.1933794021606445,-4.427587509155273,8.672279357910156
1700935972096307700,11.2483076171875,1.2087218761444092,-4.421665668487549,8.673175811767578
1700935972113312300,11.265312255859374,1.2199064493179321,-4.414492607116699,8.675264358520508
1700935972130304500,11.282304443359376,1.2297595739364624,-4.406169414520264,8.67810344696045
1700935972147298000,11.299298095703126,1.2412837743759155,-4.39985990524292,8.67966365814209
1700935972164280800,11.31628076171875,1.2535244226455688,-4.399863243103027,8.677903175354004
1700935972181284900,11.333284912109375,1.2634278535842896,-4.408655643463135,8.672001838684082
1700935972198278100,11.350278076171875,1.2677687406539917,-4.424570560455322,8.663259506225586
1700935972215271200,11.367271240234375,1.2673367261886597,-4.442665100097656,8.654057502746582
1700935972232264200,11.38426416015625,1.2646995782852173,-4.4578633308410645,8.646624565124512
1700935972249257700,11.4012578125,1.262609839439392,-4.468369960784912,8.641505241394043
1700935972266251000,11.4182509765625,1.2626034021377563,-4.474895000457764,8.638130187988281
1700935972283237600,11.435237548828125,1.2628437280654907,-4.477974891662598,8.636496543884277
1700935972300237000,11.452237060546874,1.2620952129364014,-4.4804205894470215,8.63533878326416
1700935972317230300,11.469230224609374,1.2601890563964844,-4.484585285186768,8.633456230163574
1700935972334224000,11.486223876953124,1.2571473121643066,-4.489859580993652,8.631155967712402
1700935972351217200,11.503217041015626,1.2536307573318481,-4.495701789855957,8.628626823425293
1700935972368210400,11.52021044921875,1.2493728399276733,-4.503571510314941,8.625140190124512
1700935972385203700,11.53720361328125,1.244070053100586,-4.512229919433594,8.621380805969238
1700935972402196700,11.55419677734375,1.2376503944396973,-4.520461082458496,8.617989540100098
1700935972419190000,11.57118994140625,1.2287503480911255,-4.528061866760254,8.615273475646973
1700935972436187600,11.588187744140624,1.2204110622406006,-4.535552024841309,8.612517356872559
1700935972453176600,11.605176513671875,1.2147082090377808,-4.541811943054199,8.610026359558105
1700935972470169900,11.622169921875,1.2108508348464966,-4.5470123291015625,8.607824325561523
1700935972487163100,11.6391630859375,1.2077763080596924,-4.552030086517334,8.60560417175293
1700935972504156200,11.65615625,1.205091953277588,-4.556929111480713,8.603386878967285
1700935972521149200,11.673149169921874,1.2031850814819336,-4.561011791229248,8.601490020751953
1700935972538142700,11.690142822265624,1.2013227939605713,-4.564164638519287,8.600076675415039
1700935972555135700,11.7071357421875,1.2016361951828003,-4.567394733428955,8.598319053649902
1700935972572129300,11.72412939453125,1.2043977975845337,-4.569386959075928,8.596874237060547
1700935972589122600,11.74112255859375,1.2074646949768066,-4.56964635848999,8.596305847167969
1700935972606115600,11.758115478515625,1.2105122804641724,-4.568143367767334,8.59667682647705
1700935972623108900,11.77510888671875,1.2140170335769653,-4.564817905426025,8.597947120666504
1700935972640102100,11.79210205078125,1.2172114849090576,-4.5601935386657715,8.599949836730957
1700935972657095200,11.80909521484375,1.219680666923523,-4.557747840881348,8.600897789001465
1700935972674088700,11.826088623046875,1.2208062410354614,-4.5589728355407715,8.60008716583252
1700935972691081700,11.843081787109375,1.2212162017822266,-4.5631256103515625,8.597827911376953
1700935972708075000,11.860074951171875,1.2191152572631836,-4.56990385055542,8.594524383544922
1700935972725066500,11.87706640625,1.2204127311706543,-4.578587055206299,8.589717864990234
1700935972742063000,11.89406298828125,1.230341911315918,-4.58613920211792,8.584270477294922
1700935972759054600,11.9110546875,1.2477046251296997,-4.5925726890563965,8.578324317932129
1700935972776042500,11.92804248046875,1.2633845806121826,-4.598512172698975,8.572845458984375
1700935972793041200,11.945041259765626,1.2711952924728394,-4.603890419006348,8.568802833557129
1700935972810034400,11.962034423828126,1.2741317749023438,-4.610748291015625,8.564678192138672
1700935972827017200,11.979017333984375,1.2775745391845703,-4.617376327514648,8.560592651367188
1700935972844021000,11.99602099609375,1.2834159135818481,-4.622222900390625,8.55710220336914
1700935972861014300,12.01301416015625,1.2874072790145874,-4.624299049377441,8.555381774902344
1700935972878007600,12.030007568359375,1.2873412370681763,-4.624780178070068,8.555130958557129
1700935972895000800,12.047000732421875,1.2844362258911133,-4.626229286193848,8.55478572845459
1700935972911994000,12.063994140625,1.2801052331924438,-4.628273963928223,8.554327964782715
1700935972928977000,12.080976806640624,1.2724202871322632,-4.6310715675354,8.553960800170898
1700935972945980200,12.097980224609374,1.2606568336486816,-4.633250713348389,8.554521560668945
1700935972962973700,12.1149736328125,1.247746229171753,-4.634707927703857,8.555624961853027
1700935972979966700,12.131966796875,1.238033413887024,-4.6365885734558105,8.556015968322754
1700935972996958200,12.148958251953125,1.2295327186584473,-4.637150287628174,8.556937217712402
1700935973013953300,12.165953369140626,1.218366265296936,-4.635654926300049,8.559346199035645
1700935973030944300,12.1829443359375,1.2050398588180542,-4.632695198059082,8.562832832336426
1700935973047942100,12.199942138671876,1.1943494081497192,-4.6305646896362305,8.565485000610352
1700935973064933000,12.21693310546875,1.1892499923706055,-4.6300787925720215,8.56645679473877
1700935973081926100,12.233926025390625,1.1862083673477173,-4.630120277404785,8.566856384277344
1700935973098922000,12.250921875,1.183194637298584,-4.631365776062012,8.566600799560547
1700935973115910400,12.267910400390624,1.1827280521392822,-4.635617733001709,8.564364433288574
1700935973132905700,12.28490576171875,1.1850862503051758,-4.640326976776123,8.56148624420166
1700935973149899300,12.301899169921874,1.1868263483047485,-4.643595218658447,8.559473037719727
1700935973166892500,12.318892578125,1.188888669013977,-4.647556304931641,8.557036399841309
1700935973183885600,12.335885498046874,1.1934027671813965,-4.652914524078369,8.553496360778809
1700935973200876800,12.352876708984375,1.200081467628479,-4.659775257110596,8.54882526397705
1700935973217864400,12.369864501953124,1.2059987783432007,-4.668698310852051,8.543122291564941
1700935973234865700,12.38686572265625,1.2105602025985718,-4.680100917816162,8.536236763000488
1700935973251858700,12.403858642578125,1.2139884233474731,-4.691176414489746,8.52966594696045
1700935973268852000,12.42085205078125,1.2179131507873535,-4.698234558105469,8.525221824645996
1700935973285845000,12.437844970703125,1.224311113357544,-4.701265811920166,8.522634506225586
1700935973302838500,12.454838623046875,1.23237144947052,-4.700771808624268,8.521743774414062
1700935973319831600,12.47183154296875,1.2383478879928589,-4.697798728942871,8.522518157958984
1700935973336824800,12.488824951171875,1.2408528327941895,-4.696389675140381,8.522929191589355
1700935973353818000,12.505818115234375,1.2431976795196533,-4.698398113250732,8.521482467651367
1700935973370808600,12.52280859375,1.2462165355682373,-4.700967311859131,8.519621849060059
1700935973387801900,12.5398017578125,1.2477695941925049,-4.702754974365234,8.518409729003906
1700935973404798000,12.5567978515625,1.2447190284729004,-4.701547622680664,8.51952075958252
1700935973421791200,12.573791259765626,1.2389870882034302,-4.699065685272217,8.521724700927734
1700935973438782000,12.590781982421875,1.2324066162109375,-4.696572780609131,8.524053573608398
1700935973455780000,12.607780029296874,1.2303541898727417,-4.6957688331604,8.52479362487793
1700935973472770800,12.624770751953125,1.237073302268982,-4.69862699508667,8.522244453430176
1700935973489764000,12.64176416015625,1.246867299079895,-4.703092098236084,8.518354415893555
1700935973506757400,12.65875732421875,1.2518059015274048,-4.706032752990723,8.516005516052246
1700935973523750400,12.67575048828125,1.252449631690979,-4.708181858062744,8.51472282409668
1700935973540744000,12.692743896484375,1.2544453144073486,-4.709659576416016,8.513611793518066
1700935973557737200,12.7097373046875,1.2577799558639526,-4.707426071166992,8.51435661315918
1700935973574727700,12.726727783203126,1.2620104551315308,-4.703810214996338,8.515727043151855
1700935973591726000,12.74372607421875,1.2698860168457031,-4.705038547515869,8.51387882232666
1700935973608702500,12.760702392578125,1.2771453857421875,-4.709211826324463,8.510483741760254
1700935973625711400,12.77771142578125,1.2799315452575684,-4.7129669189453125,8.507986068725586
1700935973642697000,12.794697021484374,1.28181791305542,-4.716820240020752,8.505566596984863
1700935973659696400,12.8116962890625,1.2877657413482666,-4.7210693359375,8.502310752868652
1700935973676689700,12.828689697265625,1.2948945760726929,-4.7236480712890625,8.499794960021973
1700935973693679900,12.845679931640625,1.3004810810089111,-4.725414276123047,8.497960090637207
1700935973710678800,12.8626787109375,1.305195689201355,-4.727813243865967,8.495902061462402
1700935973727658800,12.87965869140625,1.3096243143081665,-4.728960037231445,8.494583129882812
1700935973744662800,12.896662841796875,1.311738133430481,-4.72865104675293,8.494428634643555
1700935973761656000,12.913656005859375,1.3133028745651245,-4.730100154876709,8.493380546569824
1700935973778649300,12.9306494140625,1.3146973848342896,-4.733273506164551,8.4913969039917
1700935973795642400,12.947642333984374,1.3158901929855347,-4.737323760986328,8.488951683044434
1700935973812636000,12.964635986328124,1.3181805610656738,-4.742175579071045,8.485886573791504
1700935973829629400,12.98162939453125,1.321956753730774,-4.745790004730225,8.483280181884766
1700935973846619000,12.998618896484375,1.329082727432251,-4.7466301918029785,8.481696128845215
1700935973863618000,13.0156181640625,1.3352643251419067,-4.743293285369873,8.482589721679688
1700935973880602400,13.032602294921874,1.339928150177002,-4.737752437591553,8.484951972961426
1700935973897601800,13.049601806640625,1.3433873653411865,-4.7324347496032715,8.487371444702148
1700935973914607900,13.06660791015625,1.3460098505020142,-4.728052616119385,8.489399909973145
1700935973931588400,13.08358837890625,1.3470991849899292,-4.724710464477539,8.491087913513184
1700935973948581600,13.10058154296875,1.3484504222869873,-4.721648693084717,8.492575645446777
1700935973965574700,13.11757470703125,1.3494795560836792,-4.719877243041992,8.493395805358887
1700935973982568000,13.13456787109375,1.349391222000122,-4.719532012939453,8.49360179901123
1700935973999561500,13.1515615234375,1.3474780321121216,-4.720404624938965,8.49342155456543
1700935974016554800,13.1685546875,1.3436474800109863,-4.720858573913574,8.4937744140625
1700935974033546200,13.185546142578126,1.3399666547775269,-4.720427513122559,8.494595527648926
1700935974050542800,13.20254296875,1.3392001390457153,-4.719159126281738,8.495421409606934
1700935974067522800,13.219522705078125,1.3414214849472046,-4.716876983642578,8.496338844299316
1700935974084527600,13.236527587890626,1.3433376550674438,-4.714685440063477,8.497251510620117
1700935974101520600,13.253520751953126,1.343116044998169,-4.715273857116699,8.49696159362793
1700935974118514200,13.27051416015625,1.3409390449523926,-4.719116687774658,8.495171546936035
1700935974135507500,13.287507568359375,1.3403754234313965,-4.726351261138916,8.491236686706543
1700935974152500700,13.304500732421875,1.3432469367980957,-4.734076499938965,8.486478805541992
1700935974169493800,13.32149365234375,1.3475838899612427,-4.7401814460754395,8.482383728027344
1700935974186487000,13.338487060546875,1.3515962362289429,-4.744985103607178,8.479057312011719
1700935974203480300,13.355480224609375,1.355777621269226,-4.749737739562988,8.475728034973145
1700935974220473600,13.3724736328125,1.3593590259552002,-4.753769397735596,8.472893714904785
1700935974237466600,13.389466552734374,1.3627135753631592,-4.759180545806885,8.469318389892578
1700935974254460200,13.406460205078124,1.3671451807022095,-4.766252040863037,8.464625358581543
1700935974271453400,13.423453369140624,1.3718591928482056,-4.772043704986572,8.460598945617676
1700935974288446500,13.440446533203126,1.3768795728683472,-4.774716377258301,8.458274841308594
1700935974305439700,13.457439697265626,1.380812406539917,-4.7740092277526855,8.458033561706543
1700935974322433000,13.47443310546875,1.3837424516677856,-4.7718186378479,8.458789825439453
1700935974339426300,13.49142626953125,1.385417103767395,-4.771623134613037,8.458627700805664
1700935974356419600,13.508419677734375,1.384583830833435,-4.7757487297058105,8.45643424987793
1700935974373412600,13.52541259765625,1.3802586793899536,-4.782341480255127,8.453413963317871
1700935974390403300,13.5424033203125,1.3766953945159912,-4.789535999298096,8.449922561645508
1700935974407401700,13.559401611328125,1.375560998916626,-4.7934441566467285,8.447890281677246
1700935974424390100,13.57639013671875,1.3759053945541382,-4.7919087409973145,8.448705673217773
1700935974441388000,13.593387939453125,1.3757294416427612,-4.787208080291748,8.451398849487305
1700935974458379000,13.61037890625,1.375855803489685,-4.782769203186035,8.453890800476074
1700935974475372300,13.627372314453124,1.3758248090744019,-4.780725479125977,8.455052375793457
1700935974492365300,13.644365234375,1.3738186359405518,-4.77993631362915,8.455824851989746
1700935974509358600,13.661358642578126,1.370947003364563,-4.779615879058838,8.456469535827637
1700935974526352100,13.67835205078125,1.3688075542449951,-4.780716896057129,8.456194877624512
1700935974543345200,13.69534521484375,1.3693431615829468,-4.782687187194824,8.454995155334473
1700935974560338400,13.71233837890625,1.3718241453170776,-4.7862958908081055,8.45254898071289
1700935974577328600,13.72932861328125,1.3753178119659424,-4.790711879730225,8.449479103088379
1700935974594325200,13.7463251953125,1.379874587059021,-4.7947821617126465,8.446428298950195
1700935974611318000,13.763318115234375,1.3840968608856201,-4.797807216644287,8.444019317626953
1700935974628311300,13.780311279296875,1.3869432210922241,-4.800047874450684,8.442278861999512
1700935974645304600,13.7973046875,1.3874309062957764,-4.801657199859619,8.44128131866455
1700935974662298000,13.814298095703125,1.3875285387039185,-4.803677082061768,8.440116882324219
1700935974679291100,13.831291015625,1.3888570070266724,-4.806102752685547,8.438516616821289
1700935974696284400,13.848284423828124,1.390550971031189,-4.808887958526611,8.436651229858398
1700935974713277700,13.865277587890626,1.3911216259002686,-4.810956954956055,8.43537712097168
1700935974730272500,13.8822724609375,1.3926396369934082,-4.812926769256592,8.434004783630371
1700935974747262500,13.899262451171875,1.3943054676055908,-4.814768314361572,8.432677268981934
1700935974764257300,13.91625732421875,1.3955771923065186,-4.8171772956848145,8.431090354919434
1700935974781250800,13.933250732421875,1.3954737186431885,-4.819443225860596,8.429811477661133
1700935974798243800,13.950243896484375,1.3938779830932617,-4.820556640625,8.429438591003418
1700935974815237400,13.9672373046875,1.3907579183578491,-4.820037364959717,8.430253028869629
1700935974832230400,13.98423046875,1.3881120681762695,-4.81900691986084,8.431276321411133
1700935974849223700,14.0012236328125,1.3867233991622925,-4.817267894744873,8.43249797821045
1700935974866217000,14.018217041015625,1.3876537084579468,-4.814184665679932,8.43410587310791
1700935974883210000,14.0352099609375,1.3887213468551636,-4.810762882232666,8.435882568359375
1700935974900203300,14.052203369140624,1.3905082941055298,-4.808491230010986,8.436884880065918
1700935974917196500,14.069196533203124,1.3935757875442505,-4.809117794036865,8.436022758483887
1700935974934189800,14.08618994140625,1.3940991163253784,-4.811857223510742,8.43437385559082
1700935974951183400,14.103183349609376,1.3894312381744385,-4.81530237197876,8.433176040649414
1700935974968173800,14.120173828125,1.3837559223175049,-4.819268703460693,8.431842803955078
1700935974985179100,14.13717919921875,1.3814609050750732,-4.821761131286621,8.43079662322998
1700935975002163000,14.154162841796875,1.3820180892944336,-4.821107387542725,8.431077003479004
1700935975019156000,14.171156005859375,1.382491111755371,-4.8179731369018555,8.432791709899902
1700935975036149200,14.188149169921875,1.38385009765625,-4.815835952758789,8.433791160583496
1700935975053143000,14.20514306640625,1.3878250122070312,-4.816620826721191,8.432685852050781
1700935975070136000,14.222135986328125,1.3934862613677979,-4.8198418617248535,8.429912567138672
1700935975087129000,14.239129150390625,1.3967711925506592,-4.82376766204834,8.4271240234375
1700935975104122400,14.256122314453124,1.3961005210876465,-4.827567100524902,8.42505931854248
1700935975121116000,14.273115966796874,1.3924788236618042,-4.831113338470459,8.423625946044922
1700935975138108700,14.290108642578126,1.390666127204895,-4.835292816162109,8.421525001525879
1700935975155104500,14.3071044921875,1.3913661241531372,-4.84004545211792,8.418679237365723
1700935975172093200,14.32409326171875,1.3921133279800415,-4.844418525695801,8.416040420532227
1700935975189088500,14.341088623046875,1.392899751663208,-4.8469953536987305,8.414426803588867
1700935975206081800,14.358081787109375,1.393437147140503,-4.847551345825195,8.414017677307129
1700935975223075000,14.375074951171875,1.3921308517456055,-4.845766544342041,8.415261268615723
1700935975240068600,14.392068603515625,1.3903311491012573,-4.843837738037109,8.416670799255371
1700935975257061600,14.4090615234375,1.3906147480010986,-4.842708587646484,8.417271614074707
1700935975274044700,14.426044677734374,1.392067790031433,-4.842575550079346,8.417108535766602
1700935975291048200,14.443048095703125,1.3935331106185913,-4.843098163604736,8.416565895080566
1700935975308041500,14.46004150390625,1.3932582139968872,-4.843470096588135,8.416396141052246
1700935975325034800,14.47703466796875,1.391640305519104,-4.843878746032715,8.416428565979004
1700935975342025200,14.494025146484375,1.3904036283493042,-4.845028400421143,8.415971755981445
1700935975359022000,14.51102197265625,1.3913204669952393,-4.846492290496826,8.414977073669434
1700935975376016000,14.528015869140624,1.3922349214553833,-4.847797393798828,8.41407585144043
1700935975393007900,14.5450078125,1.3941937685012817,-4.848825931549072,8.413158416748047
1700935975410001000,14.5620009765625,1.3967069387435913,-4.850052356719971,8.41203498840332
1700935975426994000,14.578993896484375,1.40021812915802,-4.852020740509033,8.410314559936523
1700935975443987200,14.5959873046875,1.4040580987930298,-4.854813098907471,8.408063888549805
1700935975460980700,14.612980712890625,1.4066208600997925,-4.85673713684082,8.406523704528809
1700935975477974000,14.62997412109375,1.4066647291183472,-4.856760025024414,8.406502723693848
1700935975494967000,14.646967041015625,1.4063583612442017,-4.857221603393555,8.40628719329834
1700935975511960600,14.663960693359375,1.407527208328247,-4.85954475402832,8.404748916625977
1700935975528953600,14.68095361328125,1.407893180847168,-4.86356258392334,8.402362823486328
1700935975545947000,14.69794677734375,1.4039872884750366,-4.868144512176514,8.400362968444824
1700935975562940200,14.714940185546874,1.3985037803649902,-4.87316370010376,8.398367881774902
1700935975579933400,14.731933349609376,1.3936195373535156,-4.876246452331543,8.39738941192627
1700935975596925000,14.748925048828125,1.389136552810669,-4.877536773681641,8.397383689880371
1700935975613921500,14.765921630859374,1.3839137554168701,-4.877503871917725,8.398263931274414
1700935975630913000,14.7829130859375,1.3811193704605103,-4.878287315368652,8.398270606994629
1700935975647906300,14.79990625,1.3816304206848145,-4.881074905395508,8.396567344665527
1700935975664899800,14.81689990234375,1.3836021423339844,-4.884915828704834,8.394006729125977
1700935975681897500,14.8338974609375,1.383959412574768,-4.889402866363525,8.391334533691406
1700935975698883600,14.850883544921874,1.3827648162841797,-4.894566059112549,8.388521194458008
1700935975715882000,14.867882080078125,1.381786584854126,-4.898477077484131,8.386402130126953
1700935975732872700,14.884872802734375,1.3824783563613892,-4.901490688323975,8.384526252746582
1700935975749866000,14.901865966796874,1.385301947593689,-4.905185699462891,8.38189697265625
1700935975766859300,14.918859375,1.3890202045440674,-4.908313274383545,8.379453659057617
1700935975783852300,14.935852294921874,1.3918607234954834,-4.90988302230835,8.378060340881348
1700935975800845600,14.952845458984376,1.3950755596160889,-4.9101972579956055,8.377341270446777
1700935975817839000,14.969839111328126,1.3986265659332275,-4.909788131713867,8.37698745727539
1700935975834829600,14.98682958984375,1.402730107307434,-4.908786773681641,8.376887321472168
1700935975851828200,15.003828125,1.4076663255691528,-4.908344268798828,8.376321792602539
1700935975868818700,15.020818603515625,1.4130867719650269,-4.90872859954834,8.375182151794434
1700935975885812000,15.03781201171875,1.4180504083633423,-4.910300254821777,8.373421669006348
1700935975902805200,15.05480517578125,1.422949194908142,-4.913531303405762,8.370695114135742
1700935975919798300,15.07179833984375,1.4264850616455078,-4.9167985916137695,8.368175506591797
1700935975936791800,15.088791748046875,1.4275375604629517,-4.9185662269592285,8.366957664489746
1700935975953785000,15.10578515625,1.4271609783172607,-4.919847011566162,8.366266250610352
1700935975970775600,15.122775634765626,1.428850769996643,-4.9221014976501465,8.364653587341309
1700935975987774000,15.13977392578125,1.4317188262939453,-4.925690650939941,8.362049102783203
1700935976004764200,15.15676416015625,1.4333010911941528,-4.92972993850708,8.359396934509277
1700935976021756000,15.173755859375,1.4341132640838623,-4.934544086456299,8.356417655944824
1700935976038754000,15.190754150390624,1.436281442642212,-4.939349174499512,8.353204727172852
1700935976055744500,15.20774462890625,1.4383437633514404,-4.941761016845703,8.351425170898438
1700935976072737800,15.22473779296875,1.4397506713867188,-4.944534778594971,8.349538803100586
1700935976089731000,15.24173095703125,1.4416959285736084,-4.949703216552734,8.34614086151123
1700935976106724400,15.258724365234375,1.441628098487854,-4.956369400024414,8.342194557189941
1700935976123717600,15.275717529296875,1.4403563737869263,-4.963168144226074,8.338371276855469
1700935976140710700,15.292710693359375,1.43927001953125,-4.969751834869385,8.334639549255371
1700935976157704000,15.309703857421875,1.4392313957214355,-4.973949432373047,8.332140922546387
1700935976174687200,15.326687255859374,1.4379870891571045,-4.975955009460449,8.331156730651855
1700935976191690500,15.3436904296875,1.4355592727661133,-4.97641658782959,8.331298828125
1700935976208673000,15.360673095703126,1.4343734979629517,-4.976653099060059,8.331364631652832
1700935976225677000,15.377677001953124,1.4343425035476685,-4.9775543212890625,8.330830574035645
1700935976242670000,15.394670166015626,1.4343225955963135,-4.9794921875,8.32967472076416
1700935976259663400,15.411663330078126,1.4340367317199707,-4.9823689460754395,8.328004837036133
1700935976276646100,15.428646240234375,1.433564305305481,-4.985548973083496,8.326184272766113
1700935976293650200,15.445650146484375,1.435073971748352,-4.989337921142578,8.323651313781738
1700935976310643000,15.462642822265625,1.4389266967773438,-4.993715763092041,8.320362091064453
1700935976327636700,15.47963671875,1.4453563690185547,-4.9993367195129395,8.31587028503418
1700935976344629800,15.496629638671875,1.4501756429672241,-5.0058465003967285,8.311114311218262
1700935976361622800,15.513622802734375,1.452553629875183,-5.0119147300720215,8.307039260864258
1700935976378603800,15.530603759765626,1.454620122909546,-5.014876365661621,8.304893493652344
1700935976395609600,15.547609619140625,1.458296775817871,-5.014345645904541,8.304567337036133
1700935976412602400,15.564602294921874,1.46297287940979,-5.010674953460693,8.305959701538086
1700935976429596400,15.581596435546874,1.4694422483444214,-5.005319595336914,8.308046340942383
1700935976446589200,15.598589111328126,1.4758309125900269,-4.999810695648193,8.31023120880127
1700935976463582500,15.61558251953125,1.4808120727539062,-4.995532512664795,8.311918258666992
1700935976480576000,15.632575927734376,1.4837380647659302,-4.9940924644470215,8.312261581420898
1700935976497569000,15.649569091796875,1.485023856163025,-4.9954447746276855,8.31121826171875
1700935976514562300,15.666562255859375,1.4864628314971924,-4.997536659240723,8.309701919555664
1700935976531555600,15.6835556640625,1.4863511323928833,-4.999401092529297,8.30860424041748
1700935976548546300,15.70054638671875,1.4864879846572876,-5.001574516296387,8.307269096374512
1700935976565544700,15.717544677734375,1.4862090349197388,-5.005518913269043,8.304943084716797
1700935976582535200,15.73453515625,1.4857003688812256,-5.010014057159424,8.302324295043945
1700935976599518000,15.75151806640625,1.4833234548568726,-5.014252662658691,8.300187110900879
1700935976616522000,15.76852197265625,1.4804537296295166,-5.0174031257629395,8.298799514770508
1700935976633515000,15.785514892578124,1.4772809743881226,-5.019111633300781,8.298331260681152
1700935976650502700,15.802502685546875,1.474617600440979,-5.0212483406066895,8.297510147094727
1700935976667491000,15.819490966796875,1.4743515253067017,-5.025317192077637,8.29509449005127
1700935976684494800,15.836494873046876,1.4741480350494385,-5.031864166259766,8.291162490844727
1700935976701488000,15.853488037109376,1.4708975553512573,-5.039657115936279,8.287002563476562
1700935976718481200,15.870481201171875,1.4660263061523438,-5.047191143035889,8.283280372619629
1700935976735480600,15.88748046875,1.464404821395874,-5.051112651824951,8.28117561340332
1700935976752465200,15.904465087890625,1.465660810470581,-5.051085948944092,8.280970573425293
1700935976769467000,15.921466796875,1.465307593345642,-5.048793792724609,8.282430648803711
1700935976786451500,15.938451416015624,1.4638323783874512,-5.047402858734131,8.283541679382324
1700935976803447800,15.95544775390625,1.464307188987732,-5.0496978759765625,8.282057762145996
1700935976820441000,15.972441162109375,1.4644907712936401,-5.054783821105957,8.278922080993652
1700935976837434000,15.98943408203125,1.4628084897994995,-5.06020975112915,8.27590274810791
1700935976854427400,16.006427490234376,1.460291862487793,-5.065065860748291,8.273377418518066
1700935976871408000,16.023408203125,1.4600223302841187,-5.069070816040039,8.270970344543457
1700935976888404700,16.04040478515625,1.4624115228652954,-5.071844577789307,8.268847465515137
1700935976905407700,16.05740771484375,1.466463565826416,-5.0741047859191895,8.266744613647461
1700935976922390300,16.074390380859374,1.4706724882125854,-5.075891494750977,8.264898300170898
1700935976939393800,16.091393798828125,1.4738012552261353,-5.075867176055908,8.264357566833496
1700935976956387000,16.108386962890624,1.474853754043579,-5.073118686676025,8.265856742858887
1700935976973380400,16.12538037109375,1.47537362575531,-5.069206237792969,8.268165588378906
1700935976990355500,16.14235546875,1.4751900434494019,-5.064281463623047,8.27121353149414
1700935977007366700,16.15936669921875,1.473861575126648,-5.05870246887207,8.274864196777344
1700935977024360000,16.17635986328125,1.4724336862564087,-5.053349494934082,8.278388023376465
1700935977041353200,16.193353271484376,1.4714303016662598,-5.047630310058594,8.282054901123047
1700935977058346800,16.2103466796875,1.4709420204162598,-5.040748119354248,8.286333084106445
1700935977075337000,16.2273369140625,1.4717161655426025,-5.032266616821289,8.291349411010742
1700935977092335900,16.2443359375,1.4739363193511963,-5.022244453430176,8.297028541564941
1700935977109326000,16.261326171875,1.4767260551452637,-5.010930061340332,8.303369522094727
1700935977126319600,16.278319580078126,1.4791345596313477,-4.999997615814209,8.309529304504395
1700935977143313000,16.29531298828125,1.482453465461731,-4.992469787597656,8.313464164733887
1700935977160306400,16.312306396484374,1.4860488176345825,-4.988763809204102,8.315046310424805
1700935977177299200,16.32929931640625,1.4896267652511597,-4.985950469970703,8.316094398498535
1700935977194292500,16.34629248046875,1.4948127269744873,-4.981677055358887,8.31772518157959
1700935977211285800,16.36328564453125,1.5031812191009521,-4.975035667419434,8.3201904296875
1700935977228279000,16.380279052734377,1.5144002437591553,-4.968721866607666,8.321929931640625
1700935977245272300,16.397272216796875,1.5265052318572998,-4.961678504943848,8.323920249938965
1700935977262265900,16.414265869140625,1.5366460084915161,-4.953917980194092,8.326677322387695
1700935977279259100,16.431259033203126,1.5456933975219727,-4.94710636138916,8.329051971435547
1700935977296252000,16.448251953125,1.554284691810608,-4.941662311553955,8.330683708190918
1700935977313243000,16.465242919921874,1.561496615409851,-4.938273906707764,8.331342697143555
1700935977330241500,16.482241455078125,1.5666006803512573,-4.937134265899658,8.331062316894531
1700935977347231700,16.499231689453126,1.571435809135437,-4.938499450683594,8.329341888427734
1700935977364225000,16.51622509765625,1.5762124061584473,-4.943455696105957,8.325498580932617
1700935977381218300,16.53321826171875,1.580660343170166,-4.954221725463867,8.31825065612793
1700935977398211800,16.5502119140625,1.5846662521362305,-4.970712184906006,8.307646751403809
1700935977415205000,16.567205078125,1.58762788772583,-4.990396499633789,8.295267105102539
1700935977432198400,16.584198486328123,1.5880290269851685,-5.010234832763672,8.28322696685791
1700935977449191700,16.601191650390625,1.5844786167144775,-5.027606964111328,8.2733736038208
1700935977466184700,16.618184814453127,1.5778993368148804,-5.043012619018555,8.265253067016602
1700935977483178000,16.635177978515625,1.5689302682876587,-5.05612325668335,8.258947372436523
1700935977500161000,16.6521611328125,1.5572761297225952,-5.067324161529541,8.254286766052246
1700935977517157400,16.669157470703126,1.54377019405365,-5.077937602996826,8.250300407409668
1700935977534147300,16.686147216796876,1.530920386314392,-5.089990139007568,8.245264053344727
1700935977551151000,16.703151123046876,1.5191739797592163,-5.103842735290527,8.238870620727539
1700935977568144100,16.72014404296875,1.5077297687530518,-5.1165690422058105,8.233078956604004
1700935977585137400,16.737137451171876,1.497133493423462,-5.126267433166504,8.22897720336914
1700935977602130700,16.754130615234374,1.4889713525772095,-5.133282661437988,8.226086616516113
1700935977619121700,16.77112158203125,1.483241081237793,-5.137800216674805,8.224302291870117
1700935977636119800,16.788119873046874,1.4777557849884033,-5.140666484832764,8.223498344421387
1700935977653103000,16.80510302734375,1.472036600112915,-5.143336296081543,8.222854614257812
1700935977670104000,16.82210400390625,1.4699591398239136,-5.145487308502197,8.221878051757812
1700935977687097300,16.839097412109375,1.4725629091262817,-5.143929958343506,8.222390174865723
1700935977704087800,16.856087890625,1.4714635610580444,-5.1375532150268555,8.226570129394531
1700935977721086500,16.87308642578125,1.4665086269378662,-5.12755823135376,8.233689308166504
1700935977738077000,16.890076904296876,1.462668776512146,-5.11722469329834,8.240795135498047
1700935977755070000,16.907070068359374,1.4606064558029175,-5.1088762283325195,8.246341705322266
1700935977772066600,16.924066650390625,1.4588253498077393,-5.1033148765563965,8.250097274780273
1700935977789053400,16.941053466796873,1.4574624300003052,-5.100076198577881,8.252341270446777
1700935977806050000,16.958050048828124,1.4556059837341309,-5.097973346710205,8.253968238830566
1700935977823046100,16.975046142578126,1.4532898664474487,-5.096081733703613,8.25554370880127
1700935977840032500,16.992032470703126,1.4513146877288818,-5.094491958618164,8.256872177124023
1700935977857030700,17.00903076171875,1.4502785205841064,-5.09282922744751,8.258079528808594
1700935977874023200,17.026023193359375,1.4505808353424072,-5.091028213500977,8.259138107299805
1700935977891016200,17.04301611328125,1.4516198635101318,-5.088354110717773,8.260602951049805
1700935977908009700,17.060009765625,1.4525882005691528,-5.084075450897217,8.263067245483398
1700935977925002800,17.077002685546876,1.4537465572357178,-5.079384803771973,8.265748023986816
1700935977941997000,17.0939970703125,1.4554691314697266,-5.0749192237854,8.268187522888184
1700935977958988800,17.11098876953125,1.457784652709961,-5.071776390075684,8.269707679748535
1700935977975982000,17.127982177734374,1.460805892944336,-5.0698723793029785,8.270341873168945
1700935977992968000,17.144968017578126,1.4641399383544922,-5.069242000579834,8.270140647888184
1700935978009969000,17.161968994140626,1.4663403034210205,-5.069408893585205,8.269647598266602
1700935978026962200,17.178962158203124,1.466874122619629,-5.069847106933594,8.269283294677734
1700935978043955500,17.19595556640625,1.4672869443893433,-5.070077419281006,8.26906967163086
1700935978060939000,17.21293896484375,1.4683306217193604,-5.071588039398193,8.267959594726562
1700935978077942300,17.2299423828125,1.4694404602050781,-5.075038909912109,8.265644073486328
1700935978094931200,17.24693115234375,1.4702357053756714,-5.079889297485352,8.262521743774414
1700935978111922400,17.26392236328125,1.4716418981552124,-5.085309028625488,8.258934020996094
1700935978128921900,17.280921875,1.473453402519226,-5.0896172523498535,8.25595760345459
1700935978145915100,17.2979150390625,1.474311113357544,-5.091522693634033,8.254631996154785
1700935978162908400,17.314908447265626,1.472744107246399,-5.0910868644714355,8.25517749786377
1700935978179902000,17.33190185546875,1.4699426889419556,-5.090330600738525,8.256144523620605
1700935978196895200,17.348895263671874,1.4683336019515991,-5.090029716491699,8.256614685058594
1700935978213888000,17.365887939453124,1.4689264297485352,-5.089819431304932,8.25663948059082
1700935978230879200,17.382879150390625,1.4699392318725586,-5.088785648345947,8.257098197937012
1700935978247877000,17.399877197265624,1.4698883295059204,-5.085716724395752,8.258996963500977
1700935978264867800,17.416867919921874,1.4686452150344849,-5.079635143280029,8.262960433959961
1700935978281861000,17.433861083984375,1.467385172843933,-5.069477558135986,8.269418716430664
1700935978298855000,17.45085498046875,1.4668080806732178,-5.0552754402160645,8.27821159362793
1700935978315847700,17.46784765625,1.467747688293457,-5.038834095001221,8.28806209564209
1700935978332841000,17.484841064453125,1.4698678255081177,-5.024456024169922,8.29641342163086
1700935978349834500,17.50183447265625,1.4734346866607666,-5.015103340148926,8.301437377929688
1700935978366827800,17.518827880859376,1.476552963256836,-5.011694431304932,8.302940368652344
1700935978383821000,17.535821044921875,1.477256417274475,-5.011775016784668,8.30276870727539
1700935978400814000,17.55281396484375,1.475775957107544,-5.012857913970947,8.302375793457031
1700935978417807400,17.569807373046874,1.4732463359832764,-5.012847900390625,8.302831649780273
1700935978434794800,17.586794677734375,1.4697760343551636,-5.012176036834717,8.303853034973145
1700935978451794200,17.603794189453126,1.4685323238372803,-5.013513565063477,8.303265571594238
1700935978468787200,17.620787109375,1.4687806367874146,-5.019152641296387,8.299812316894531
1700935978485780700,17.63778076171875,1.4682329893112183,-5.028498649597168,8.2942533493042
1700935978502774000,17.65477392578125,1.4651877880096436,-5.041102886199951,8.287137031555176
1700935978519767000,17.67176708984375,1.4578535556793213,-5.055753231048584,8.279500007629395
1700935978536760300,17.68876025390625,1.4461939334869385,-5.070860385894775,8.27230453491211
1700935978553762300,17.70576220703125,1.4336609840393066,-5.086145877838135,8.26509952545166
1700935978570744300,17.722744384765626,1.4237879514694214,-5.102631568908691,8.25663948059082
1700935978587742700,17.73974267578125,1.41511070728302,-5.12058162689209,8.247013092041016
1700935978604733400,17.7567333984375,1.4084045886993408,-5.139167785644531,8.236593246459961
1700935978621726500,17.7737265625,1.4047070741653442,-5.158237457275391,8.225296020507812
1700935978638719700,17.7907197265625,1.4038671255111694,-5.177018165588379,8.213632583618164
1700935978655713000,17.807713134765624,1.4032397270202637,-5.194626331329346,8.202615737915039
1700935978672705500,17.82470556640625,1.4013714790344238,-5.209168910980225,8.193707466125488
1700935978689700400,17.841700439453124,1.4003682136535645,-5.220060348510742,8.186944007873535
1700935978706681000,17.85868115234375,1.4012999534606934,-5.229769229888916,8.180585861206055
1700935978723687700,17.875687744140624,1.4033695459365845,-5.238199710845947,8.174836158752441
1700935978740679700,17.8926796875,1.4061051607131958,-5.244319915771484,8.170439720153809
1700935978757673000,17.9096728515625,1.4084911346435547,-5.247488021850586,8.167994499206543
1700935978774666000,17.926666015625,1.4100472927093506,-5.246488571166992,8.168368339538574
1700935978791659000,17.943658935546875,1.4115816354751587,-5.241032600402832,8.171605110168457
1700935978808652500,17.960652587890625,1.4158217906951904,-5.230861663818359,8.177387237548828
1700935978825645800,17.977645751953126,1.424320936203003,-5.2169928550720215,8.184765815734863
1700935978842639000,17.99463916015625,1.4337677955627441,-5.201229572296143,8.193145751953125
1700935978859632600,18.011632568359374,1.4426742792129517,-5.187421798706055,8.200332641601562
1700935978876625700,18.028625732421876,1.4513459205627441,-5.175863265991211,8.206104278564453
1700935978893619000,18.045618896484374,1.4590040445327759,-5.165194511413574,8.211467742919922
1700935978910612000,18.062612060546876,1.4644498825073242,-5.154621601104736,8.217140197753906
1700935978927605200,18.079605224609374,1.4683988094329834,-5.144031524658203,8.223068237304688
1700935978944588000,18.096588134765625,1.4717895984649658,-5.133152961730957,8.229257583618164
1700935978961592000,18.113592041015625,1.475393533706665,-5.12216854095459,8.235455513000488
1700935978978585300,18.13058544921875,1.4780852794647217,-5.112959861755371,8.240694046020508
1700935978995578600,18.14757861328125,1.479584813117981,-5.106927394866943,8.24416446685791
1700935979012572000,18.164572021484375,1.4794727563858032,-5.103922367095947,8.246044158935547
1700935979029565000,18.18156494140625,1.4787623882293701,-5.1039958000183105,8.24612808227539
1700935979046558000,18.198557861328126,1.4776630401611328,-5.106472969055176,8.244791030883789
1700935979063551500,18.215551513671876,1.4755750894546509,-5.10995626449585,8.243005752563477
1700935979080545000,18.232544921875,1.4716275930404663,-5.113122463226318,8.241747856140137
1700935979097538000,18.2495380859375,1.4660955667495728,-5.115467071533203,8.241278648376465
1700935979114531000,18.266531005859374,1.4605400562286377,-5.118424892425537,8.240428924560547
1700935979131514000,18.28351416015625,1.4545013904571533,-5.1223273277282715,8.2390718460083
1700935979148518000,18.300517822265626,1.4481310844421387,-5.12778902053833,8.236796379089355
1700935979165511400,18.317511474609375,1.4420444965362549,-5.135781764984131,8.232884407043457
1700935979182504200,18.334504150390625,1.4351780414581299,-5.146334171295166,8.227492332458496
1700935979199497500,18.35149755859375,1.427890658378601,-5.158079624176025,8.221402168273926
1700935979216490800,18.36849072265625,1.420709490776062,-5.1700873374938965,8.215103149414062
1700935979233484300,18.385484375,1.414152979850769,-5.181585311889648,8.208986282348633
1700935979250477600,18.4024775390625,1.4086416959762573,-5.192158222198486,8.203251838684082
1700935979267467800,18.4194677734375,1.4034909009933472,-5.200973987579346,8.19854736328125
1700935979284467000,18.436467041015625,1.3976720571517944,-5.208712577819824,8.194629669189453
1700935979301457200,18.45345703125,1.3909682035446167,-5.2155561447143555,8.191415786743164
1700935979318440200,18.470440185546874,1.3845192193984985,-5.2211995124816895,8.188913345336914
1700935979335436500,18.4874365234375,1.3797459602355957,-5.225624084472656,8.186897277832031
1700935979352437000,18.50443701171875,1.3762372732162476,-5.227363586425781,8.18637752532959
1700935979369430300,18.52143017578125,1.373669147491455,-5.226011276245117,8.187670707702637
1700935979386423800,18.538423828125,1.3731282949447632,-5.223370552062988,8.189446449279785
1700935979403416800,18.555416748046873,1.3753502368927002,-5.220309734344482,8.191025733947754
1700935979420410400,18.572410400390623,1.3776025772094727,-5.2168965339660645,8.19282054901123
1700935979437403400,18.5894033203125,1.3784589767456055,-5.214303970336914,8.194327354431152
1700935979454396400,18.606396484375,1.3784205913543701,-5.212236404418945,8.195649147033691
1700935979471387400,18.623387451171876,1.3773541450500488,-5.208686351776123,8.19808578491211
1700935979488385800,18.6403857421875,1.3738685846328735,-5.202613353729248,8.202526092529297
1700935979505376300,18.657376220703124,1.368980050086975,-5.194438457489014,8.208520889282227
1700935979522372400,18.674372314453127,1.365991473197937,-5.185190200805664,8.214864730834961
1700935979539365600,18.69136572265625,1.3655766248703003,-5.176113605499268,8.220654487609863
1700935979556355600,18.70835546875,1.3656154870986938,-5.169547080993652,8.224780082702637
1700935979573350400,18.725350341796876,1.3631505966186523,-5.165432453155518,8.22777271270752
1700935979590332400,18.74233251953125,1.359302043914795,-5.161142349243164,8.231101989746094
1700935979607336200,18.759336181640624,1.3544610738754272,-5.154897212982178,8.235811233520508
1700935979624329500,18.77632958984375,1.3495242595672607,-5.147329807281494,8.241353034973145
1700935979641322800,18.79332275390625,1.3442871570587158,-5.139252185821533,8.247246742248535
1700935979658315800,18.810315673828125,1.3390390872955322,-5.131669521331787,8.252821922302246
1700935979675309300,18.827309326171875,1.332664966583252,-5.126065254211426,8.257333755493164
1700935979692302300,18.84430224609375,1.3265810012817383,-5.1237077713012695,8.259777069091797
1700935979709306400,18.861306396484373,1.321908712387085,-5.123922824859619,8.260392189025879
1700935979726278400,18.8782783203125,1.3184843063354492,-5.125070571899414,8.26022720336914
1700935979743282200,18.8952822265625,1.3141875267028809,-5.125834941864014,8.260437965393066
1700935979760275700,18.912275634765624,1.3095585107803345,-5.126850128173828,8.260544776916504
1700935979777269800,18.929269775390626,1.3057572841644287,-5.127761363983154,8.260581016540527
1700935979794261500,18.946261474609376,1.301743507385254,-5.128635883331299,8.260671615600586
1700935979811255600,18.963255615234374,1.2973419427871704,-5.13021993637085,8.26037883758545
1700935979828248800,18.980248779296875,1.2932190895080566,-5.1327691078186035,8.259442329406738
1700935979845241900,18.997241943359374,1.2899993658065796,-5.135462760925293,8.258271217346191
1700935979862235000,19.01423486328125,1.2860217094421387,-5.137624263763428,8.257547378540039
1700935979879228400,19.031228515625,1.2789571285247803,-5.138233184814453,8.258265495300293
1700935979896222000,19.048221923828127,1.271536111831665,-5.1394853591918945,8.25863265991211
1700935979913214700,19.065214599609376,1.2688037157058716,-5.144031047821045,8.256221771240234
1700935979930208300,19.082208251953126,1.269210696220398,-5.151041507720947,8.251786231994629
1700935979947201300,19.099201171875,1.268302321434021,-5.157075881958008,8.248157501220703
1700935979964194600,19.116194580078126,1.2658023834228516,-5.15904426574707,8.247309684753418
1700935979981187800,19.133187744140624,1.265344500541687,-5.156095504760742,8.249223709106445
1700935979998181400,19.150181396484374,1.2665314674377441,-5.149075508117676,8.253424644470215
1700935980015174400,19.16717431640625,1.2665374279022217,-5.1409478187561035,8.258490562438965
1700935980032164900,19.184164794921877,1.2640926837921143,-5.135984897613525,8.26195240020752
1700935980049163800,19.201163818359376,1.2621054649353027,-5.1352057456970215,8.262740135192871
1700935980066155500,19.218155517578126,1.2617520093917847,-5.1380791664123535,8.261006355285645
1700935980083146200,19.235146240234375,1.2615479230880737,-5.142130374908447,8.25851821899414
1700935980100140800,19.252140869140625,1.2601677179336548,-5.1441168785095215,8.257491111755371
1700935980117134300,19.26913427734375,1.2581530809402466,-5.143409252166748,8.258238792419434
1700935980134127400,19.28612744140625,1.2569373846054077,-5.140696048736572,8.260111808776855
1700935980151121000,19.303120849609375,1.2569280862808228,-5.137034893035889,8.262392044067383
1700935980168114000,19.320114013671876,1.257019281387329,-5.132629871368408,8.265116691589355
1700935980185107500,19.337107421875,1.255398154258728,-5.1282429695129395,8.268084526062012
1700935980202100700,19.354100830078124,1.2527408599853516,-5.123178958892822,8.271625518798828
1700935980219091500,19.371091552734374,1.2506890296936035,-5.115410327911377,8.276741981506348
1700935980236089600,19.388089599609376,1.2495404481887817,-5.105116367340088,8.283269882202148
1700935980253080600,19.40508056640625,1.2499452829360962,-5.095559120178223,8.289090156555176
1700935980270073900,19.422073974609376,1.2531718015670776,-5.08668851852417,8.294051170349121
1700935980287067100,19.439067138671874,1.2599692344665527,-5.078754901885986,8.297882080078125
1700935980304060400,19.456060302734375,1.2678377628326416,-5.071914196014404,8.300867080688477
1700935980321053700,19.4730537109375,1.276936650276184,-5.066034317016602,8.30306339263916
1700935980338047000,19.490046875,1.2863318920135498,-5.0604634284973145,8.305007934570312
1700935980355040000,19.5070400390625,1.2962757349014282,-5.056286334991455,8.306007385253906
1700935980372021200,19.524021240234376,1.305014967918396,-5.054143905639648,8.305943489074707
1700935980389023200,19.541023193359376,1.3122169971466064,-5.053865432739258,8.304976463317871
1700935980406016500,19.5580166015625,1.3189351558685303,-5.057140827178955,8.301918983459473
1700935980423016400,19.575016357421877,1.3271268606185913,-5.065525054931641,8.295499801635742
1700935980439996000,19.591995849609376,1.3348190784454346,-5.077085971832275,8.287192344665527
1700935980457000000,19.609,1.3392738103866577,-5.088766574859619,8.27930736541748
1700935980473993000,19.625992919921874,1.3419255018234253,-5.099229335784912,8.272436141967773
1700935980490986000,19.642986083984376,1.3466722965240479,-5.108937740325928,8.26567268371582
1700935980507979500,19.6599794921875,1.3512234687805176,-5.117234706878662,8.259796142578125
1700935980524970500,19.676970458984375,1.3512027263641357,-5.124476432800293,8.2553071975708
1700935980541968400,19.693968505859374,1.3484890460968018,-5.132587432861328,8.250711441040039
1700935980558959600,19.710959716796875,1.345861554145813,-5.142293453216553,8.245096206665039
1700935980575952600,19.72795263671875,1.3436309099197388,-5.151148319244385,8.239930152893066
1700935980592946200,19.7449462890625,1.3413276672363281,-5.157931327819824,8.23606014251709
1700935980609939200,19.761939208984376,1.337876319885254,-5.16074800491333,8.234858512878418
1700935980626932500,19.778932373046874,1.3328334093093872,-5.158563137054443,8.237044334411621
1700935980643926000,19.795926025390624,1.3279424905776978,-5.152878284454346,8.241392135620117
1700935980660908300,19.812908203125,1.3253884315490723,-5.145349979400635,8.246503829956055
1700935980677912300,19.829912353515624,1.323742151260376,-5.136481761932373,8.25229549407959
1700935980694905600,19.846905517578126,1.3208225965499878,-5.128323554992676,8.25783634185791
1700935980711899000,19.86389892578125,1.3147529363632202,-5.121699810028076,8.26291275024414
1700935980728892000,19.880891845703125,1.3058130741119385,-5.117587089538574,8.266878128051758
1700935980745885200,19.89788525390625,1.2963844537734985,-5.115573883056641,8.269607543945312
1700935980762878700,19.914878662109373,1.2892695665359497,-5.114397048950195,8.27144718170166
1700935980779872000,19.9318720703125,1.2837629318237305,-5.114104270935059,8.27248477935791
1700935980796865300,19.948865234375,1.2755377292633057,-5.114068031311035,8.27377986907959
1700935980813858300,19.9658583984375,1.2627226114273071,-5.115938663482666,8.274588584899902
1700935980830860300,19.9828603515625,1.2497777938842773,-5.120808124542236,8.273542404174805
1700935980847845000,19.99984521484375,1.2426669597625732,-5.128286838531494,8.269980430603027
1700935980864838100,20.016838134765624,1.2414677143096924,-5.136548042297363,8.265032768249512
1700935980881831400,20.03383154296875,1.2431777715682983,-5.143638610839844,8.260364532470703
1700935980898825000,20.050824951171876,1.2445603609085083,-5.148270130157471,8.257268905639648
1700935980915818200,20.067818359375,1.2448508739471436,-5.151040077209473,8.255497932434082
1700935980932811500,20.0848115234375,1.2469743490219116,-5.153929233551025,8.253375053405762
1700935980949804800,20.1018046875,1.2501405477523804,-5.157321453094482,8.250774383544922
1700935980966797800,20.1187978515625,1.250951886177063,-5.162352085113525,8.247507095336914
1700935980983788500,20.13578857421875,1.2480154037475586,-5.168146133422852,8.244322776794434
1700935981000787000,20.152786865234376,1.2453739643096924,-5.171941757202148,8.242339134216309
1700935981017775000,20.169775146484376,1.2444758415222168,-5.171477317810059,8.242767333984375
1700935981034773800,20.186773681640624,1.2444428205490112,-5.1666717529296875,8.245784759521484
1700935981051764500,20.203764404296876,1.2429754734039307,-5.159609794616699,8.25042724609375
1700935981068757800,20.2207578125,1.2413771152496338,-5.154653549194336,8.253766059875488
1700935981085748500,20.23774853515625,1.241914987564087,-5.153896331787109,8.254158020019531
1700935981102746600,20.25474658203125,1.244259238243103,-5.156515121459961,8.252169609069824
1700935981119737300,20.2717373046875,1.245027780532837,-5.159477710723877,8.250202178955078
1700935981136731000,20.28873095703125,1.2413169145584106,-5.158228397369385,8.251542091369629
1700935981153724200,20.30572412109375,1.2339417934417725,-5.149601936340332,8.258033752441406
1700935981170715000,20.32271484375,1.2282922267913818,-5.135030746459961,8.267942428588867
1700935981187713000,20.339713134765624,1.2288976907730103,-5.119082927703857,8.277735710144043
1700935981204703700,20.356703857421873,1.233164668083191,-5.10543155670166,8.285530090332031
1700935981221697000,20.373697021484375,1.2354403734207153,-5.09636926651001,8.290767669677734
1700935981238690300,20.390690185546877,1.2359219789505005,-5.092721939086914,8.292936325073242
1700935981255682300,20.407682373046875,1.2358427047729492,-5.092704772949219,8.292959213256836
1700935981272674000,20.424674072265624,1.2349693775177002,-5.094127178192139,8.292216300964355
1700935981289673000,20.4416728515625,1.2335783243179321,-5.095612049102783,8.291510581970215
1700935981306663400,20.458663330078124,1.231560468673706,-5.097028732299805,8.290938377380371
1700935981323656700,20.47565673828125,1.2290911674499512,-5.09848690032959,8.29040813446045
1700935981340650200,20.492650146484376,1.2270058393478394,-5.101407527923584,8.288921356201172
1700935981357643500,20.5096435546875,1.2270245552062988,-5.105668067932129,8.286295890808105
1700935981374636500,20.526636474609376,1.2278661727905273,-5.110910415649414,8.282937049865723
1700935981391629800,20.5436298828125,1.2295893430709839,-5.117276191711426,8.2787504196167
1700935981408623000,20.560623046875,1.2336055040359497,-5.124002933502197,8.273992538452148
1700935981425616400,20.577616455078125,1.2366812229156494,-5.128485679626465,8.270753860473633
1700935981442603000,20.59460302734375,1.2390577793121338,-5.132345199584961,8.268004417419434
1700935981459603200,20.611603271484373,1.2432043552398682,-5.140049934387207,8.262594223022461
1700935981476588000,20.628588134765625,1.2471243143081665,-5.151660442352295,8.254767417907715
1700935981493591000,20.645591064453125,1.2481794357299805,-5.165688991546631,8.24583625793457
1700935981510582500,20.66258251953125,1.2495312690734863,-5.179783821105957,8.236785888671875
1700935981527565600,20.679565673828126,1.2547470331192017,-5.191015720367432,8.228917121887207
1700935981544569300,20.6965693359375,1.2624609470367432,-5.196230888366699,8.224444389343262
1700935981561562600,20.713562744140624,1.2708265781402588,-5.198052883148193,8.222004890441895
1700935981578544400,20.73054443359375,1.2787820100784302,-5.199307918548584,8.219977378845215
1700935981595549200,20.747549072265624,1.2865055799484253,-5.199788570404053,8.218467712402344
1700935981612542500,20.76454248046875,1.294956922531128,-5.199371337890625,8.21740436553955
1700935981629535700,20.78153564453125,1.3044978380203247,-5.197543621063232,8.217052459716797
1700935981646526200,20.798526123046877,1.3121097087860107,-5.192799091339111,8.218840599060059
1700935981663521800,20.815521728515623,1.314408540725708,-5.185192584991455,8.223273277282715
1700935981680516000,20.83251611328125,1.311855673789978,-5.176994800567627,8.228843688964844
1700935981697511200,20.84951123046875,1.3070799112319946,-5.1694793701171875,8.234326362609863
1700935981714502100,20.866502197265625,1.3017115592956543,-5.162197589874268,8.239744186401367
1700935981731495700,20.88349560546875,1.2988663911819458,-5.154855251312256,8.24478816986084
1700935981748488400,20.900488525390625,1.2972931861877441,-5.146572113037109,8.250208854675293
1700935981765471500,20.917471435546876,1.2941900491714478,-5.137314319610596,8.256464004516602
1700935981782475000,20.93447509765625,1.290524959564209,-5.127595901489258,8.263075828552246
1700935981799458800,20.951458740234376,1.2874256372451782,-5.118229866027832,8.269362449645996
1700935981816462000,20.968462158203124,1.2839611768722534,-5.109376907348633,8.275375366210938
1700935981833455000,20.985455078125,1.2798196077346802,-5.101444244384766,8.28090763092041
1700935981850448400,21.002448486328124,1.2773784399032593,-5.093789100646973,8.285994529724121
1700935981867441400,21.01944140625,1.2779338359832764,-5.083967685699463,8.291940689086914
1700935981884435500,21.036435546875,1.2809606790542603,-5.073315143585205,8.297995567321777
1700935981901428500,21.053428466796873,1.2858902215957642,-5.063687324523926,8.303112030029297
1700935981918421200,21.070421142578127,1.290805697441101,-5.055469989776611,8.307355880737305
1700935981935414800,21.087414794921877,1.2954986095428467,-5.049227237701416,8.31042194366455
1700935981952400000,21.10439990234375,1.300594449043274,-5.0458292961120605,8.311690330505371
1700935981969397500,21.1213974609375,1.3040987253189087,-5.044638633728027,8.311863899230957
1700935981986398500,21.1383984375,1.3047395944595337,-5.045876979827881,8.31101131439209
1700935982003388000,21.155387939453124,1.303232192993164,-5.050900459289551,8.308195114135742
1700935982020381000,21.172380859375,1.3006248474121094,-5.061516284942627,8.302141189575195
1700935982037374200,21.189374267578124,1.2987385988235474,-5.07668399810791,8.293171882629395
1700935982054367700,21.20636767578125,1.2995922565460205,-5.0920186042785645,8.283629417419434
1700935982071361300,21.223361328125,1.3031666278839111,-5.104058265686035,8.275655746459961
1700935982088354300,21.240354248046874,1.308575987815857,-5.112565040588379,8.269548416137695
1700935982105347800,21.257347900390624,1.313440203666687,-5.118578910827637,8.265054702758789
1700935982122340900,21.2743408203125,1.3153069019317627,-5.123842716217041,8.261496543884277
1700935982139334100,21.291334228515623,1.3157068490982056,-5.130666255950928,8.257197380065918
1700935982156340700,21.3083408203125,1.3166429996490479,-5.138362407684326,8.252262115478516
1700935982173320700,21.32532080078125,1.3180171251296997,-5.145820617675781,8.247392654418945
1700935982190301000,21.342301025390626,1.3174114227294922,-5.151322364807129,8.244054794311523
1700935982207309800,21.359309814453123,1.3149268627166748,-5.155340671539307,8.241938591003418
1700935982224300300,21.37630029296875,1.3127976655960083,-5.158829212188721,8.240094184875488
1700935982241293800,21.3932939453125,1.312497615814209,-5.161412715911865,8.238524436950684
1700935982258287000,21.410287109375,1.3120406866073608,-5.162349700927734,8.238009452819824
1700935982275280400,21.4272802734375,1.3107057809829712,-5.162076473236084,8.238393783569336
1700935982292273700,21.444273681640624,1.3107209205627441,-5.161703109741211,8.238626480102539
1700935982309257500,21.461257568359375,1.313954472541809,-5.160706996917725,8.23873519897461
1700935982326264000,21.47826416015625,1.3193175792694092,-5.158944129943848,8.238982200622559
1700935982343256300,21.49525634765625,1.3238778114318848,-5.156609058380127,8.23971176147461
1700935982360247000,21.5122470703125,1.3260486125946045,-5.154090404510498,8.240938186645508
1700935982377240300,21.529240234375,1.327085018157959,-5.151815891265869,8.242194175720215
1700935982394230800,21.546230712890626,1.3268382549285889,-5.1486496925354,8.24421215057373
1700935982411229400,21.5632294921875,1.3258757591247559,-5.14284610748291,8.247987747192383
1700935982428219600,21.5802197265625,1.326318383216858,-5.136495113372803,8.251873016357422
1700935982445213000,21.597212890625,1.3298341035842896,-5.131932258605957,8.254146575927734
1700935982462206500,21.61420654296875,1.3346656560897827,-5.130943775177002,8.253981590270996
1700935982479200000,21.631199951171876,1.3383160829544067,-5.133121013641357,8.252035140991211
1700935982496190500,21.6481904296875,1.3395010232925415,-5.135614395141602,8.250292778015137
1700935982513188900,21.66518896484375,1.3399351835250854,-5.1354875564575195,8.250301361083984
1700935982530179600,21.6821796875,1.3409607410430908,-5.134300708770752,8.250871658325195
1700935982547173000,21.699173095703124,1.3425365686416626,-5.135402679443359,8.249931335449219
1700935982564166000,21.716165771484373,1.3407580852508545,-5.139196872711182,8.247858047485352
1700935982581159400,21.733159423828123,1.3347361087799072,-5.145308494567871,8.24502182006836
1700935982598152700,21.750152587890625,1.3276393413543701,-5.15134859085083,8.24239730834961
1700935982615146000,21.76714599609375,1.321252703666687,-5.153367519378662,8.242161750793457
1700935982632139300,21.78413916015625,1.3135905265808105,-5.149033069610596,8.24609375
1700935982649132500,21.801132568359375,1.3044819831848145,-5.1414289474487305,8.25228214263916
1700935982666126000,21.8181259765625,1.2943055629730225,-5.1343770027160645,8.258273124694824
1700935982683119000,21.835119140625,1.2841602563858032,-5.130105018615723,8.262510299682617
1700935982700112400,21.8521123046875,1.2744951248168945,-5.130098342895508,8.26401138305664
1700935982717095000,21.869094970703124,1.266099452972412,-5.133176326751709,8.263389587402344
1700935982734099200,21.88609912109375,1.2582370042800903,-5.137155055999756,8.262117385864258
1700935982751092500,21.903092529296874,1.2510279417037964,-5.14035701751709,8.261221885681152
1700935982768085500,21.92008544921875,1.2451980113983154,-5.1426615715026855,8.260666847229004
1700935982785079000,21.9370791015625,1.240865707397461,-5.1433210372924805,8.260909080505371
1700935982802072000,21.954072021484375,1.238053560256958,-5.1429853439331055,8.261540412902832
1700935982819061800,21.971061767578124,1.2358938455581665,-5.143391132354736,8.26161003112793
