time,seconds_elapsed,z,y,x
1700935683166924500,0.159924560546875,8.979869842529297,3.8515126705169678,0.8740170001983643
1700935683183917000,0.1769169921875,8.982170104980469,3.8476879596710205,0.8671939969062805
1700935683200905500,0.193905517578125,8.982478141784668,3.8481690883636475,0.8618489503860474
1700935683217898500,0.2108984375,8.981074333190918,3.852503776550293,0.8571036458015442
1700935683234891300,0.227891357421875,8.978304862976074,3.860243558883667,0.8512704372406006
1700935683251871200,0.244871337890625,8.976190567016602,3.866765022277832,0.8439508676528931
1700935683268871000,0.261870849609375,8.976029396057129,3.869579315185547,0.8326793313026428
1700935683285853200,0.278853271484375,8.97774887084961,3.8689897060394287,0.8167331218719482
1700935683302839000,0.295839111328125,8.978480339050293,3.8701767921447754,0.8029468655586243
1700935683319841500,0.312841552734375,8.977395057678223,3.8733081817626953,0.7999768853187561
1700935683336844300,0.32984423828125,8.976396560668945,3.8759119510650635,0.798569917678833
1700935683353827000,0.3468271484375,8.975884437561035,3.8781800270080566,0.7932964563369751
1700935683370821000,0.363821044921875,8.97579288482666,3.88077974319458,0.7815364003181458
1700935683387814100,0.380814208984375,8.976807594299316,3.88152813911438,0.7660064697265625
1700935683404804000,0.39780419921875,8.979304313659668,3.878798723220825,0.7504228949546814
1700935683421793800,0.414793701171875,8.983155250549316,3.8724825382232666,0.7368234395980835
1700935683438787300,0.431787353515625,8.988009452819824,3.862640142440796,0.7292506098747253
1700935683455774500,0.4487744140625,8.993340492248535,3.850781202316284,0.7262340188026428
1700935683472771300,0.465771240234375,8.997795104980469,3.840644598007202,0.7247344851493835
1700935683489743400,0.482743408203125,8.999397277832031,3.8376383781433105,0.7207574844360352
1700935683506754600,0.499754638671875,8.99791431427002,3.8428866863250732,0.7112513780593872
1700935683523747800,0.516747802734375,8.996138572692871,3.8498146533966064,0.6960856318473816
1700935683540734500,0.533734375,8.996657371520996,3.8507115840911865,0.684320867061615
1700935683557727500,0.5507275390625,8.999521255493164,3.8451688289642334,0.6777965426445007
1700935683574719200,0.56771923828125,9.003308296203613,3.8369500637054443,0.6740582585334778
1700935683591708000,0.5847080078125,9.006378173828125,3.830517053604126,0.6696228981018066
1700935683608703200,0.601703125,9.00820541381836,3.8275868892669678,0.661756157875061
1700935683625692400,0.6186923828125,9.008953094482422,3.82751727104187,0.6519076824188232
1700935683642686500,0.6356865234375,9.009888648986816,3.826808214187622,0.643077552318573
1700935683659672800,0.6526728515625,9.011798858642578,3.8235442638397217,0.6356923580169678
1700935683676665600,0.66966552734375,9.014451026916504,3.818275213241577,0.6297250986099243
1700935683693657000,0.686656982421875,9.016497611999512,3.8141632080078125,0.6253283023834229
1700935683710651100,0.703651123046875,9.016972541809082,3.813438653945923,0.6229037642478943
1700935683727642000,0.72064208984375,9.016432762145996,3.8153676986694336,0.6188759207725525
1700935683744633900,0.7376337890625,9.016680717468262,3.816228151321411,0.6099036335945129
1700935683761617700,0.75461767578125,9.017271995544434,3.81663179397583,0.5985191464424133
1700935683778617000,0.7716171875,9.016186714172363,3.820275068283081,0.5916010141372681
1700935683795607000,0.78860693359375,9.013614654541016,3.8274688720703125,0.5842412710189819
1700935683812597500,0.805597412109375,9.011188507080078,3.834076404571533,0.5783120393753052
1700935683829587200,0.822587158203125,9.010058403015137,3.837338924407959,0.5742639899253845
1700935683846582300,0.839582275390625,9.01008129119873,3.837697982788086,0.5715194344520569
1700935683863572000,0.856572021484375,9.010516166687012,3.8374135494232178,0.5665398240089417
1700935683880565800,0.873565673828125,9.010624885559082,3.8379979133605957,0.5608149766921997
1700935683897555700,0.8905556640625,9.010103225708008,3.8397467136383057,0.5572192072868347
1700935683914548700,0.907548828125,9.00897216796875,3.8425207138061523,0.5563861131668091
1700935683931536400,0.924536376953125,9.007739067077637,3.8453118801116943,0.5570698380470276
1700935683948538400,0.941538330078125,9.006791114807129,3.8475558757781982,0.5568917393684387
1700935683965522000,0.95852197265625,9.005976676940918,3.8499503135681152,0.5535179376602173
1700935683982514700,0.9755146484375,9.004951477050781,3.8533923625946045,0.5461922287940979
1700935683999503600,0.992503662109375,9.003928184509277,3.8563358783721924,0.5422817468643188
1700935684016496600,1.00949658203125,9.004046440124512,3.8558950424194336,0.5434412956237793
1700935684033488600,1.026488525390625,9.005345344543457,3.852411985397339,0.5466130971908569
1700935684050477300,1.043477294921875,9.006299018859863,3.8498339653015137,0.5490494966506958
1700935684067470000,1.060469970703125,9.005428314208984,3.8517634868621826,0.5498116612434387
1700935684084464400,1.07746435546875,9.002785682678223,3.8575849533081055,0.5522581338882446
1700935684101450500,1.094450439453125,9.000346183776855,3.863234758377075,0.5525366067886353
1700935684118446300,1.1114462890625,8.999234199523926,3.8661816120147705,0.5500255227088928
1700935684135425300,1.12842529296875,8.998943328857422,3.867013454437256,0.5489367842674255
1700935684152433200,1.14543310546875,8.999101638793945,3.8666274547576904,0.5490524172782898
1700935684169413000,1.1624130859375,8.999266624450684,3.8659465312957764,0.5511484742164612
1700935684186411000,1.179410888671875,8.998668670654297,3.8672072887420654,0.5520603656768799
1700935684203403500,1.196403564453125,8.99692153930664,3.871455430984497,0.5507739782333374
1700935684220399600,1.213399658203125,8.994467735290527,3.8774070739746094,0.5489693880081177
1700935684237384200,1.23038427734375,8.993151664733887,3.880518913269043,0.5485436916351318
1700935684254377700,1.247377685546875,8.994083404541016,3.878115177154541,0.5502740144729614
1700935684271366000,1.264365966796875,8.99625301361084,3.8729748725891113,0.5510100722312927
1700935684288361000,1.28136083984375,8.997403144836426,3.870293617248535,0.5510673522949219
1700935684305350100,1.29835009765625,8.99652099609375,3.87209153175354,0.5528421401977539
1700935684322344400,1.315344482421875,8.994599342346191,3.876460313796997,0.5534899830818176
1700935684339333400,1.33233349609375,8.993087768554688,3.8799288272857666,0.5537510514259338
1700935684356323600,1.349323486328125,8.99311351776123,3.879782199859619,0.5543457269668579
1700935684373317600,1.366317626953125,8.994880676269531,3.8757410049438477,0.5539542436599731
1700935684390306000,1.38330615234375,8.996949195861816,3.8712544441223145,0.5517295598983765
1700935684407288800,1.400288818359375,8.997403144836426,3.8702776432037354,0.5511768460273743
1700935684424293400,1.41729345703125,8.996072769165039,3.873169422149658,0.5525684952735901
1700935684441279200,1.434279296875,8.994685173034668,3.876394510269165,0.5525475740432739
1700935684458275300,1.451275390625,8.994606018066406,3.8765761852264404,0.552573025226593
1700935684475264000,1.468263916015625,8.997639656066895,3.869328498840332,0.5539726614952087
1700935684492259800,1.485259765625,9.005484580993652,3.850972890853882,0.5544118285179138
1700935684509245200,1.5022451171875,9.015949249267578,3.8268167972564697,0.5515822172164917
1700935684526240300,1.519240234375,9.02403450012207,3.8080098628997803,0.5495257377624512
1700935684543232500,1.536232421875,9.0282621383667,3.7980854511260986,0.548758864402771
1700935684560221000,1.553220947265625,9.029850959777832,3.7945401668548584,0.547144889831543
1700935684577213200,1.570213134765625,9.030603408813477,3.793358564376831,0.5428995490074158
1700935684594211000,1.587211181640625,9.03161334991455,3.791764259338379,0.5372030138969421
1700935684611192600,1.604192626953125,9.031377792358398,3.792623519897461,0.5350942015647888
1700935684628191500,1.62119140625,9.030007362365723,3.795799970626831,0.5357124209403992
1700935684645179100,1.63817919921875,9.030070304870605,3.795811176300049,0.5345666408538818
1700935684662173400,1.65517333984375,9.031999588012695,3.7916131019592285,0.5317521095275879
1700935684679152600,1.672152587890625,9.033430099487305,3.7880849838256836,0.5325992107391357
1700935684696155100,1.689155029296875,9.03407096862793,3.7858455181121826,0.5376216769218445
1700935684713136000,1.70613623046875,9.036271095275879,3.7798514366149902,0.5427955985069275
1700935684730135300,1.72313525390625,9.041431427001953,3.767369508743286,0.543649435043335
1700935684747128300,1.74012841796875,9.047613143920898,3.752720594406128,0.5421203970909119
1700935684764122400,1.757122314453125,9.05147647857666,3.7431204319000244,0.5439934134483337
1700935684781100800,1.774100830078125,9.053241729736328,3.738091468811035,0.5491642355918884
1700935684798107100,1.791107177734375,9.054311752319336,3.734550952911377,0.5555832982063293
1700935684815102700,1.808102783203125,9.055472373962402,3.731107234954834,0.5597902536392212
1700935684832078300,1.825078369140625,9.05588436126709,3.7300021648406982,0.5604916214942932
1700935684849070300,1.8420703125,9.053993225097656,3.7344095706939697,0.5617057681083679
1700935684866069500,1.859069580078125,9.051067352294922,3.7407381534576416,0.566720187664032
1700935684883065600,1.876065673828125,9.050475120544434,3.741544008255005,0.5708383917808533
1700935684900050700,1.89305078125,9.052541732788086,3.736234188079834,0.5728474855422974
1700935684917042400,1.91004248046875,9.054641723632812,3.730898857116699,0.5744372010231018
1700935684934037000,1.927037109375,9.05443286895752,3.730842351913452,0.5780820846557617
1700935684951023000,1.944023193359375,9.052512168884277,3.7348453998565674,0.5822960138320923
1700935684968019500,1.96101953125,9.051064491271973,3.7379438877105713,0.5849043130874634
1700935684985008000,1.978008056640625,9.049494743347168,3.741478443145752,0.5865916609764099
1700935685002002700,1.995002685546875,9.045828819274902,3.749563217163086,0.5914974808692932
1700935685018990300,2.011990234375,9.041841506958008,3.7580056190490723,0.5988349914550781
1700935685035982300,2.028982421875,9.040175437927246,3.7616546154022217,0.6010651588439941
1700935685052981200,2.045981201171875,9.039740562438965,3.7631185054779053,0.5984377264976501
1700935685069962000,2.0629619140625,9.037406921386719,3.7695212364196777,0.593373715877533
1700935685086959600,2.079959716796875,9.031411170959473,3.7840256690979004,0.5923425555229187
1700935685103951600,2.09695166015625,9.023536682128906,3.8026983737945557,0.5927850604057312
1700935685120937200,2.113937255859375,9.016831398010254,3.818770408630371,0.5914837718009949
1700935685137933600,2.13093359375,9.011489868164062,3.831712245941162,0.5891929268836975
1700935685154923000,2.147923095703125,9.007349967956543,3.8421056270599365,0.5847999453544617
1700935685171917800,2.164917724609375,9.003673553466797,3.8513646125793457,0.5804882049560547
1700935685188903400,2.1819033203125,8.998257637023926,3.8638267517089844,0.5816437602043152
1700935685205898500,2.1988984375,8.986650466918945,3.888762950897217,0.5947738289833069
1700935685222890800,2.215890869140625,8.967841148376465,3.92864727973938,0.6161704063415527
1700935685239879200,2.232879150390625,8.939797401428223,3.983452081680298,0.6694996356964111
1700935685256870400,2.249870361328125,8.9072847366333,4.039831161499023,0.7590489983558655
1700935685273867000,2.266866943359375,8.879083633422852,4.081672668457031,0.859027087688446
1700935685290852400,2.283852294921875,8.861567497253418,4.1074371337890625,0.915247917175293
1700935685307849700,2.300849609375,8.841859817504883,4.143272876739502,0.9438835978507996
1700935685324826600,2.31782666015625,8.796351432800293,4.2252302169799805,1.0038625001907349
1700935685341841200,2.334841064453125,8.712428092956543,4.3661017417907715,1.1255455017089844
1700935685358823400,2.351823486328125,8.599589347839355,4.538565635681152,1.29792058467865
1700935685375814100,2.368814208984375,8.479547500610352,4.7017903327941895,1.4921671152114868
1700935685392804600,2.3858046875,8.377001762390137,4.829555034637451,1.6544934511184692
1700935685409792800,2.402792724609375,8.30321979522705,4.914828300476074,1.7711917161941528
1700935685426781000,2.419781005859375,8.248828887939453,4.970966815948486,1.8661267757415771
1700935685443782100,2.4367822265625,8.19076919555664,5.018526077270508,1.9904274940490723
1700935685460767200,2.453767333984375,8.109190940856934,5.074189186096191,2.174794912338257
1700935685477760300,2.47076025390625,8.029314994812012,5.126183032989502,2.342747449874878
1700935685494740700,2.48774072265625,7.987602233886719,5.1152215003967285,2.5037639141082764
1700935685511741400,2.504741455078125,8.001131057739258,5.0047760009765625,2.677729845046997
1700935685528739000,2.521739013671875,8.04757022857666,4.850672245025635,2.818458080291748
1700935685545727700,2.538727783203125,8.094938278198242,4.711485862731934,2.917188882827759
1700935685562709200,2.555709228515625,8.137556076049805,4.576824188232422,3.0114734172821045
1700935685579708400,2.57270849609375,8.200723648071289,4.410594463348389,3.08721661567688
1700935685596701000,2.589700927734375,8.306694030761719,4.200501441955566,3.096890687942505
1700935685613695200,2.6066953125,8.449579238891602,3.961214303970337,3.024812936782837
1700935685630681600,2.623681640625,8.600945472717285,3.725682258605957,2.8946726322174072
1700935685647673300,2.64067333984375,8.731488227844238,3.5296406745910645,2.7457003593444824
1700935685664669700,2.657669677734375,8.818787574768066,3.399829387664795,2.6279773712158203
1700935685681661000,2.674660888671875,8.862695693969727,3.3299574851989746,2.5690693855285645
1700935685698650600,2.691650634765625,8.87842082977295,3.2843940258026123,2.573425531387329
1700935685715642400,2.708642333984375,8.897582054138184,3.2310972213745117,2.5747129917144775
1700935685732633900,2.7256337890625,8.936094284057617,3.1651995182037354,2.522665500640869
1700935685749624600,2.74262451171875,8.99104118347168,3.0925967693328857,2.415187358856201
1700935685766615600,2.759615478515625,9.03962516784668,3.033902883529663,2.3058013916015625
1700935685783610000,2.776610107421875,9.060334205627441,3.0082578659057617,2.2576189041137695
1700935685800596000,2.793595947265625,9.04000186920166,3.023892641067505,2.3174448013305664
1700935685817593900,2.81059375,8.994643211364746,3.042733907699585,2.4646027088165283
1700935685834580700,2.827580810546875,8.973514556884766,2.9988818168640137,2.592076539993286
1700935685851571700,2.84457177734375,9.003232955932617,2.870196580886841,2.6343634128570557
1700935685868567300,2.8615673828125,9.069499969482422,2.692415952682495,2.5944509506225586
1700935685885539800,2.878539794921875,9.130555152893066,2.527162551879883,2.5460774898529053
1700935685902549500,2.895549560546875,9.145943641662598,2.4317424297332764,2.583493709564209
1700935685919536600,2.91253662109375,9.097867965698242,2.41747784614563,2.760563850402832
1700935685936531000,2.929531005859375,9.001015663146973,2.4268643856048584,3.054203748703003
1700935685953523500,2.9465234375,8.895039558410645,2.389944076538086,3.376765251159668
1700935685970504000,2.96350390625,8.816082000732422,2.286055088043213,3.6451008319854736
1700935685987507000,2.9805068359375,8.76097297668457,2.1571969985961914,3.850710153579712
1700935686004497400,2.997497314453125,8.70710277557373,2.0334081649780273,4.035804748535156
1700935686021486000,3.014486083984375,8.641077995300293,1.9085665941238403,4.233822822570801
1700935686038479600,3.031479736328125,8.559317588806152,1.7754663228988647,4.452178955078125
1700935686055471900,3.048471923828125,8.4824800491333,1.6246771812438965,4.652318477630615
1700935686072463400,3.06546337890625,8.442890167236328,1.4498770236968994,4.780332088470459
1700935686089449500,3.082449462890625,8.418548583984375,1.3004698753356934,4.865484237670898
1700935686106447400,3.099447265625,8.380970001220703,1.192960262298584,4.95704460144043
1700935686123439000,3.116439208984375,8.304205894470215,1.1084365844726562,5.103689670562744
1700935686140428300,3.13342822265625,8.218113899230957,1.0062520503997803,5.2617645263671875
1700935686157418800,3.150418701171875,8.151308059692383,0.8958354592323303,5.384213924407959
1700935686174414300,3.167414306640625,8.11009693145752,0.7875242233276367,5.46280574798584
1700935686191404300,3.184404296875,8.079270362854004,0.6910434365272522,5.521228790283203
1700935686208394500,3.20139453125,8.038944244384766,0.5947916507720947,5.5908589363098145
1700935686225387300,3.21838720703125,7.9673237800598145,0.5025328397750854,5.701344013214111
1700935686242377700,3.235377685546875,7.858316898345947,0.42193859815597534,5.857041358947754
1700935686259370200,3.252370361328125,7.733948230743408,0.32985782623291016,6.026055812835693
1700935686276360200,3.269360107421875,7.62027645111084,0.19861939549446106,6.174790859222412
1700935686293340200,3.286340087890625,7.536071300506592,0.034355610609054565,6.280330657958984
1700935686310333200,3.303333251953125,7.467939376831055,-0.13803844153881073,6.359789848327637
1700935686327338800,3.3203388671875,7.394568920135498,-0.3063935339450836,6.439144611358643
1700935686344326100,3.337326171875,7.302021503448486,-0.4752359688282013,6.533815860748291
1700935686361305900,3.354305908203125,7.184321403503418,-0.6560268998146057,6.647651672363281
1700935686378312000,3.37131201171875,7.048649787902832,-0.8559058308601379,6.769052982330322
1700935686395302000,3.388302001953125,6.916047096252441,-1.0673496723175049,6.874967098236084
1700935686412292000,3.4052919921875,6.788783073425293,-1.2725287675857544,6.966290473937988
1700935686429284900,3.422284912109375,6.658885478973389,-1.4564204216003418,7.055083274841309
1700935686446275300,3.439275390625,6.522897720336914,-1.6243951320648193,7.144876480102539
1700935686463265500,3.456265625,6.383638858795166,-1.7925807237625122,7.2299323081970215
1700935686480260600,3.473260498046875,6.249231338500977,-1.9701354503631592,7.300807952880859
1700935686497250800,3.490250732421875,6.125648498535156,-2.1584315299987793,7.352123260498047
1700935686514241000,3.507240966796875,5.998823642730713,-2.3504512310028076,7.397675514221191
1700935686531234000,3.524234130859375,5.872767448425293,-2.524022102355957,7.441507339477539
1700935686548222200,3.54122216796875,5.765568733215332,-2.664837598800659,7.476159572601318
1700935686565218000,3.558218017578125,5.675129413604736,-2.7859106063842773,7.501181602478027
1700935686582196700,3.57519677734375,5.592735767364502,-2.912086248397827,7.515129566192627
1700935686599200000,3.592199951171875,5.507158279418945,-3.0477590560913086,7.524526119232178
1700935686616189400,3.609189453125,5.4135212898254395,-3.175562620162964,7.539609432220459
1700935686633182500,3.626182373046875,5.325780868530273,-3.2754507064819336,7.559338092803955
1700935686650172700,3.643172607421875,5.266064167022705,-3.3450748920440674,7.570676803588867
1700935686667165700,3.660165771484375,5.232279300689697,-3.3934051990509033,7.572593688964844
1700935686684155600,3.67715576171875,5.209697246551514,-3.435894250869751,7.569002151489258
1700935686701144600,3.69414453125,5.188878059387207,-3.481651544570923,7.56239128112793
1700935686718140200,3.71114013671875,5.163447380065918,-3.528866767883301,7.557911396026611
1700935686735134000,3.728134033203125,5.127889156341553,-3.567126750946045,7.564157485961914
1700935686752121300,3.745121337890625,5.087510585784912,-3.584907054901123,7.582993030548096
1700935686769114000,3.762114013671875,5.049164295196533,-3.586890459060669,7.607645511627197
1700935686786104600,3.7791044921875,5.01774787902832,-3.578582286834717,7.6323041915893555
1700935686803097300,3.796097412109375,5.002438068389893,-3.56038498878479,7.65084171295166
1700935686820087300,3.81308740234375,5.003666877746582,-3.5340516567230225,7.6622395515441895
1700935686837080000,3.830080078125,5.019433498382568,-3.505472183227539,7.6650543212890625
1700935686854070500,3.847070556640625,5.040010452270508,-3.47511625289917,7.66537618637085
1700935686871063000,3.86406298828125,5.05969762802124,-3.436591863632202,7.669773101806641
1700935686888053000,3.881052978515625,5.0808539390563965,-3.390291213989258,7.676389694213867
1700935686905045800,3.898045654296875,5.108071804046631,-3.3442957401275635,7.678502559661865
1700935686922025700,3.915025634765625,5.14497709274292,-3.300602436065674,7.672766208648682
1700935686939029200,3.932029296875,5.185184955596924,-3.2562642097473145,7.664640426635742
1700935686956019200,3.949019287109375,5.22383975982666,-3.2086141109466553,7.6584858894348145
1700935686973011700,3.96601171875,5.257216453552246,-3.1611387729644775,7.655388832092285
1700935686990002200,3.983002197265625,5.285849094390869,-3.115654230117798,7.654319763183594
1700935687006984700,3.999984619140625,5.3152079582214355,-3.0722968578338623,7.651514053344727
1700935687023984600,4.016984619140625,5.348461151123047,-3.035928964614868,7.642853736877441
1700935687040977700,4.033977783203125,5.388033866882324,-3.0083086490631104,7.6259613037109375
1700935687057965600,4.050965576171875,5.433404445648193,-2.9815187454223633,7.604259967803955
1700935687074963200,4.067963134765625,5.475164413452148,-2.954235553741455,7.584931373596191
1700935687091950600,4.08495068359375,5.5010085105896,-2.931023120880127,7.575230598449707
1700935687108943600,4.101943603515625,5.511634349822998,-2.913123607635498,7.574410915374756
1700935687125934000,4.11893408203125,5.5152974128723145,-2.9033360481262207,7.575503349304199
1700935687142924300,4.13592431640625,5.5187153816223145,-2.904456377029419,7.57258415222168
1700935687159918000,4.15291796875,5.523700714111328,-2.9120945930480957,7.566013336181641
1700935687176910300,4.169910400390625,5.5310959815979,-2.91679048538208,7.558797359466553
1700935687193900000,4.186900146484375,5.5354084968566895,-2.917327642440796,7.5554327964782715
1700935687210892800,4.203892822265625,5.527373313903809,-2.9217145442962646,7.5596184730529785
1700935687227868000,4.220867919921875,5.507826328277588,-2.9331037998199463,7.569469928741455
1700935687244875300,4.237875244140625,5.485374450683594,-2.9503543376922607,7.5790629386901855
1700935687261868300,4.254868408203125,5.466454029083252,-2.975131034851074,7.583045959472656
1700935687278858800,4.271858642578125,5.446575164794922,-3.006556510925293,7.58495569229126
1700935687295848700,4.2888486328125,5.424654960632324,-3.036954164505005,7.588552951812744
1700935687312841200,4.30584130859375,5.402433395385742,-3.0627999305725098,7.594015598297119
1700935687329831400,4.32283154296875,5.3796281814575195,-3.087956190109253,7.600016117095947
1700935687346822100,4.339822265625,5.354647636413574,-3.1156015396118164,7.606371879577637
1700935687363816700,4.356816650390625,5.331549167633057,-3.148451805114746,7.60906982421875
1700935687380807000,4.373806884765625,5.31317138671875,-3.183882236480713,7.607182502746582
1700935687397797600,4.390797607421875,5.297281265258789,-3.2116446495056152,7.606594085693359
1700935687414780200,4.4077802734375,5.279894828796387,-3.2289865016937256,7.6113386154174805
1700935687431777300,4.42477734375,5.257327556610107,-3.2428739070892334,7.621049404144287
1700935687448775700,4.441775634765625,5.232424259185791,-3.2583651542663574,7.63157320022583
1700935687465763600,4.458763671875,5.210970878601074,-3.275932550430298,7.638728141784668
1700935687482756400,4.47575634765625,5.193869113922119,-3.293853759765625,7.642667770385742
1700935687499746000,4.49274609375,5.181361675262451,-3.3107948303222656,7.64383602142334
1700935687516738800,4.50973876953125,5.173272609710693,-3.321547269821167,7.644650459289551
1700935687533729300,4.526729248046875,5.166715621948242,-3.3227593898773193,7.648557662963867
1700935687550722000,4.54372216796875,5.1598968505859375,-3.3190908432006836,7.654751300811768
1700935687567711700,4.560711669921875,5.155098915100098,-3.316129684448242,7.659265995025635
1700935687584704500,4.57770458984375,5.150505065917969,-3.3160107135772705,7.662407398223877
1700935687601695500,4.594695556640625,5.14786958694458,-3.3164467811584473,7.663989067077637
1700935687618688300,4.611688232421875,5.148477554321289,-3.316406726837158,7.663597583770752
1700935687635674600,4.628674560546875,5.147918224334717,-3.3157777786254883,7.664246559143066
1700935687652664000,4.6456640625,5.146189212799072,-3.3138301372528076,7.666250228881836
1700935687669658400,4.662658447265625,5.1442646980285645,-3.311685800552368,7.6684675216674805
1700935687686656500,4.679656494140625,5.145554065704346,-3.30950665473938,7.668542861938477
1700935687703639600,4.6966396484375,5.154678821563721,-3.305492639541626,7.6641459465026855
1700935687720636700,4.71363671875,5.166944980621338,-3.3018274307250977,7.6574625968933105
1700935687737627000,4.730626953125,5.175530910491943,-3.2991833686828613,7.652802467346191
1700935687754620000,4.747619873046875,5.176874160766602,-3.2971580028533936,7.652766227722168
1700935687771609900,4.76460986328125,5.174393177032471,-3.295997142791748,7.654943466186523
1700935687788602400,4.781602294921875,5.171407699584961,-3.296304225921631,7.656829833984375
1700935687805592800,4.7985927734375,5.1735334396362305,-3.2985050678253174,7.654444694519043
1700935687822581800,4.815581787109375,5.184125900268555,-3.300835609436035,7.646268367767334
1700935687839572000,4.832572021484375,5.193955421447754,-3.302765369415283,7.638761520385742
1700935687856564000,4.84956396484375,5.1985650062561035,-3.3055710792541504,7.634410381317139
1700935687873563100,4.866563232421875,5.198495388031006,-3.309314250946045,7.632836818695068
1700935687890551800,4.8835517578125,5.19529914855957,-3.314281463623047,7.632857322692871
1700935687907541500,4.90054150390625,5.189754009246826,-3.3208999633789062,7.633754253387451
1700935687924519000,4.917518798828125,5.185705184936523,-3.3274359703063965,7.633658409118652
1700935687941524500,4.9345244140625,5.189129829406738,-3.3313629627227783,7.629618167877197
1700935687958514700,4.9515146484375,5.197335243225098,-3.3355507850646973,7.622198581695557
1700935687975510000,4.968510009765625,5.204550266265869,-3.3409218788146973,7.614920616149902
1700935687992500200,4.985500244140625,5.205483913421631,-3.348639488220215,7.6108903884887695
1700935688009490700,5.00249072265625,5.199214458465576,-3.3571152687072754,7.611443042755127
1700935688026472700,5.01947265625,5.192870140075684,-3.363509178161621,7.612950325012207
1700935688043470600,5.036470703125,5.189749717712402,-3.3655638694763184,7.614171028137207
1700935688060468700,5.05346875,5.187834739685059,-3.36254620552063,7.61680793762207
1700935688077456400,5.070456298828125,5.183882236480713,-3.357102394104004,7.621899127960205
1700935688094444000,5.087444091796875,5.1803083419799805,-3.3527584075927734,7.62623929977417
1700935688111438000,5.10443798828125,5.17747688293457,-3.349447727203369,7.629615783691406
1700935688128432000,5.12143212890625,5.174463272094727,-3.3474738597869873,7.632526397705078
1700935688145422600,5.138422607421875,5.167788505554199,-3.345088243484497,7.638092517852783
1700935688162415400,5.155415283203125,5.156612873077393,-3.341642379760742,7.647148132324219
1700935688179405300,5.1724052734375,5.148662090301514,-3.337035894393921,7.654514312744141
1700935688196397800,5.189397705078125,5.1444573402404785,-3.3330960273742676,7.659055709838867
1700935688213377800,5.206377685546875,5.140138626098633,-3.331235885620117,7.6627655029296875
1700935688230378800,5.223378662109375,5.135871887207031,-3.3315951824188232,7.665469169616699
1700935688247373600,5.24037353515625,5.133097171783447,-3.3325247764587402,7.666923522949219
1700935688264363800,5.25736376953125,5.128405570983887,-3.3319833278656006,7.670297622680664
1700935688281354200,5.274354248046875,5.120486259460449,-3.3299965858459473,7.67644739151001
1700935688298344700,5.2913447265625,5.1104655265808105,-3.328660488128662,7.68370246887207
1700935688315333400,5.30833349609375,5.100466251373291,-3.3302180767059326,7.68966817855835
1700935688332333300,5.325333251953125,5.094661712646484,-3.33449125289917,7.691664218902588
1700935688349320200,5.3423203125,5.094572067260742,-3.338456869125366,7.690004348754883
1700935688366313200,5.359313232421875,5.095714092254639,-3.339998245239258,7.688577651977539
1700935688383303000,5.376302978515625,5.0966596603393555,-3.3393187522888184,7.688246726989746
1700935688400295700,5.393295654296875,5.097834587097168,-3.3376455307006836,7.688194274902344
1700935688417286400,5.410286376953125,5.101986885070801,-3.3360424041748047,7.686134338378906
1700935688434279000,5.42727880859375,5.108326435089111,-3.3362061977386475,7.681851863861084
1700935688451268900,5.444268798828125,5.114513397216797,-3.3376119136810303,7.677122116088867
1700935688468261600,5.46126171875,5.120959758758545,-3.338456869125366,7.672455787658691
1700935688485241900,5.478241943359375,5.128796577453613,-3.3356668949127197,7.668434143066406
1700935688502245000,5.4952451171875,5.135092735290527,-3.3322014808654785,7.665727138519287
1700935688519234600,5.512234619140625,5.140912055969238,-3.3303136825561523,7.662646770477295
1700935688536227800,5.529227783203125,5.143864154815674,-3.32997727394104,7.660811901092529
1700935688553218000,5.546218017578125,5.141734600067139,-3.33017897605896,7.662153244018555
1700935688570210600,5.56321044921875,5.137270450592041,-3.3312788009643555,7.664668560028076
1700935688587200800,5.58020068359375,5.134914398193359,-3.333207368850708,7.665409088134766
1700935688604193300,5.597193359375,5.137232780456543,-3.333749771118164,7.663619518280029
1700935688621183700,5.614183837890625,5.1425251960754395,-3.3310694694519043,7.661235332489014
1700935688638174200,5.63117431640625,5.147751331329346,-3.3244614601135254,7.660595417022705
1700935688655169000,5.6481689453125,5.149902820587158,-3.3159987926483154,7.662817001342773
1700935688672153900,5.66515380859375,5.1507391929626465,-3.308835744857788,7.665350437164307
1700935688689150200,5.682150146484375,5.152921676635742,-3.3029799461364746,7.666409969329834
1700935688706145000,5.69914501953125,5.156795501708984,-3.297600746154785,7.666121006011963
1700935688723132400,5.71613232421875,5.15645170211792,-3.294430732727051,7.667715072631836
1700935688740125400,5.73312548828125,5.153295040130615,-3.2925565242767334,7.6706414222717285
1700935688757104000,5.750104248046875,5.150832176208496,-3.2907838821411133,7.673055171966553
1700935688774111200,5.767111328125,5.149355888366699,-3.2887213230133057,7.674930572509766
1700935688791098600,5.7840986328125,5.149219036102295,-3.288256883621216,7.6752214431762695
1700935688808091400,5.80109130859375,5.152917385101318,-3.2893714904785156,7.672260761260986
1700935688825081900,5.818081787109375,5.1586408615112305,-3.290682077407837,7.66785192489624
1700935688842074400,5.835074462890625,5.158794403076172,-3.2904372215270996,7.667853355407715
1700935688859064300,5.852064208984375,5.154848098754883,-3.288921594619751,7.671156883239746
1700935688876055300,5.86905517578125,5.151421546936035,-3.289232015609741,7.673326015472412
1700935688893049600,5.886049560546875,5.149572849273682,-3.2931301593780518,7.67289400100708
1700935688910040600,5.90304052734375,5.1492085456848145,-3.2989470958709717,7.6706390380859375
1700935688927030500,5.920030517578125,5.149880409240723,-3.3030803203582764,7.668409824371338
1700935688944013800,5.937013916015625,5.150256633758545,-3.30415415763855,7.667694091796875
1700935688961003000,5.9540029296875,5.150521278381348,-3.304924249649048,7.667185306549072
1700935688978006300,5.97100634765625,5.150064468383789,-3.308560609817505,7.665922164916992
1700935688994996200,5.987996337890625,5.148459434509277,-3.3133695125579834,7.664924144744873
1700935689011989200,6.0049892578125,5.147924900054932,-3.3182365894317627,7.663177490234375
1700935689028979700,6.021979736328125,5.150410175323486,-3.3223438262939453,7.659726619720459
1700935689045972200,6.03897216796875,5.153454780578613,-3.3245294094085693,7.656730651855469
1700935689062959600,6.055959716796875,5.157354354858398,-3.3242223262786865,7.654236793518066
1700935689079957500,6.07295751953125,5.160656929016113,-3.3241162300109863,7.65205717086792
1700935689096941800,6.08994189453125,5.1608734130859375,-3.3261749744415283,7.651017189025879
1700935689113936000,6.106935791015625,5.159686088562012,-3.3301467895507812,7.650089263916016
1700935689130931200,6.12393115234375,5.155027389526367,-3.334233045578003,7.651450157165527
1700935689147921200,6.140921142578125,5.150862693786621,-3.336338996887207,7.653337478637695
1700935689164911600,6.15791162109375,5.152419090270996,-3.3364973068237305,7.652219772338867
1700935689181904100,6.174904052734375,5.158006191253662,-3.333688497543335,7.649681091308594
1700935689198894000,6.19189404296875,5.163862705230713,-3.328829288482666,7.647843837738037
1700935689215886800,6.208886962890625,5.166804790496826,-3.325853109359741,7.647152900695801
1700935689232877300,6.225877197265625,5.167463779449463,-3.3258726596832275,7.646698951721191
1700935689249869800,6.242869873046875,5.16696310043335,-3.328500747680664,7.645893096923828
1700935689266860000,6.259860107421875,5.164970874786377,-3.3310248851776123,7.646140098571777
1700935689283852500,6.2768525390625,5.161070823669434,-3.333709955215454,7.647603988647461
1700935689300843500,6.293843505859375,5.156302452087402,-3.336031913757324,7.649807453155518
1700935689317836000,6.3108359375,5.152286052703857,-3.3388309478759766,7.651291847229004
1700935689334826200,6.327826171875,5.1531901359558105,-3.3435420989990234,7.648625373840332
1700935689351819000,6.344819091796875,5.1557936668396,-3.3498992919921875,7.6440887451171875
1700935689368820200,6.3618203125,5.154707908630371,-3.3545985221862793,7.642760276794434
1700935689385801700,6.3788017578125,5.1523118019104,-3.3549447059631348,7.644222736358643
1700935689402792000,6.3957919921875,5.151172161102295,-3.3536531925201416,7.645556926727295
1700935689419779600,6.412779541015625,5.150383472442627,-3.354304313659668,7.645803928375244
1700935689436775200,6.429775146484375,5.149200439453125,-3.3557136058807373,7.6459808349609375
1700935689453768200,6.446768310546875,5.148169994354248,-3.356748580932617,7.64622163772583
1700935689470757600,6.463757568359375,5.149105072021484,-3.356374740600586,7.645756244659424
1700935689487744800,6.480744873046875,5.1493377685546875,-3.353949546813965,7.646663188934326
1700935689504743700,6.49774365234375,5.147225379943848,-3.3493828773498535,7.650086879730225
1700935689521716000,6.514716064453125,5.144791603088379,-3.3437530994415283,7.6541852951049805
1700935689538723600,6.5317236328125,5.142940521240234,-3.339826822280884,7.657142639160156
1700935689555705900,6.548705810546875,5.142576694488525,-3.338435173034668,7.657993316650391
1700935689572704800,6.565704833984375,5.141372203826904,-3.337038516998291,7.6594109535217285
1700935689589702700,6.58270263671875,5.137731552124023,-3.3344082832336426,7.662998676300049
1700935689606690000,6.59968994140625,5.133419990539551,-3.330096483230591,7.66776180267334
1700935689623682600,6.6166826171875,5.129978656768799,-3.3251848220825195,7.672194957733154
1700935689640678400,6.633678466796875,5.127668857574463,-3.3212058544158936,7.675461769104004
1700935689657665800,6.650665771484375,5.1240644454956055,-3.3199446201324463,7.678414344787598
1700935689674655700,6.66765576171875,5.119736194610596,-3.320742130279541,7.68095588684082
1700935689691648500,6.6846484375,5.116921901702881,-3.322439193725586,7.682097911834717
1700935689708639000,6.701638916015625,5.116144180297852,-3.323878526687622,7.681992530822754
1700935689725631500,6.718631591796875,5.115673065185547,-3.3217811584472656,7.683213710784912
1700935689742622000,6.7356220703125,5.1166791915893555,-3.316185712814331,7.684960842132568
1700935689759616800,6.75261669921875,5.116329669952393,-3.3117032051086426,7.687126636505127
1700935689776602600,6.7696025390625,5.114469528198242,-3.3114547729492188,7.688470840454102
1700935689793597700,6.78659765625,5.114414691925049,-3.3144237995147705,7.687227249145508
1700935689810587600,6.803587646484375,5.113151550292969,-3.3184258937835693,7.686340808868408
1700935689827580200,6.820580078125,5.110569000244141,-3.3206827640533447,7.687084674835205
1700935689844569900,6.83756982421875,5.1082305908203125,-3.320326566696167,7.688793182373047
1700935689861565000,6.85456494140625,5.104533672332764,-3.3191709518432617,7.691745281219482
1700935689878542800,6.87154296875,5.101180553436279,-3.3197765350341797,7.693709373474121
1700935689895546000,6.888546142578125,5.098445892333984,-3.3224287033081055,7.694375991821289
1700935689912536600,6.90553662109375,5.095033645629883,-3.3267810344696045,7.694756031036377
1700935689929512400,6.922512451171875,5.091362476348877,-3.3319945335388184,7.694929599761963
1700935689946518500,6.9395185546875,5.087181568145752,-3.336406707763672,7.695784568786621
1700935689963513300,6.956513427734375,5.082766056060791,-3.3412833213806152,7.6965861320495605
1700935689980503000,6.9735029296875,5.078672885894775,-3.346536874771118,7.697004795074463
1700935689997495600,6.99049560546875,5.075238227844238,-3.350724458694458,7.697449207305908
1700935690014477800,7.007477783203125,5.072098255157471,-3.355180025100708,7.697577476501465
1700935690031481600,7.024481689453125,5.069417953491211,-3.360442876815796,7.697048187255859
1700935690048465700,7.041465576171875,5.06773042678833,-3.364598274230957,7.696342945098877
1700935690065461800,7.058461669921875,5.065530776977539,-3.36700177192688,7.696740627288818
1700935690082451500,7.075451416015625,5.06272029876709,-3.366910457611084,7.698629379272461
1700935690099444200,7.0924443359375,5.0598931312561035,-3.3646669387817383,7.701468467712402
1700935690116435000,7.10943505859375,5.058089733123779,-3.3624002933502197,7.703642845153809
1700935690133427500,7.126427490234375,5.058202743530273,-3.359464645385742,7.704848289489746
1700935690150417200,7.143417236328125,5.058274269104004,-3.3561723232269287,7.706235408782959
1700935690167410200,7.16041015625,5.05985164642334,-3.3540220260620117,7.706137180328369
1700935690184400600,7.177400634765625,5.064030647277832,-3.352876901626587,7.703889846801758
1700935690201383000,7.1943828125,5.065450191497803,-3.3498897552490234,7.704256057739258
1700935690218381000,7.211381103515625,5.0622429847717285,-3.3450679779052734,7.708458423614502
1700935690235377400,7.22837744140625,5.060204029083252,-3.340345859527588,7.711843967437744
1700935690252368000,7.245367919921875,5.0638861656188965,-3.336660623550415,7.711021900177002
1700935690269348900,7.262348876953125,5.072617530822754,-3.3332479000091553,7.70675802230835
1700935690286349300,7.279349365234375,5.077682971954346,-3.329277515411377,7.705138206481934
1700935690303331300,7.296331298828125,5.07868766784668,-3.324721336364746,7.70644474029541
1700935690320332800,7.313332763671875,5.078318119049072,-3.3204634189605713,7.708523273468018
1700935690337325600,7.33032568359375,5.077640533447266,-3.3181464672088623,7.709967136383057
1700935690354315300,7.347315185546875,5.07944393157959,-3.317819118499756,7.708919525146484
1700935690371297500,7.364297607421875,5.083202838897705,-3.3179538249969482,7.70638370513916
1700935690388298500,7.381298583984375,5.086509704589844,-3.3169984817504883,7.7046122550964355
1700935690405291500,7.39829150390625,5.088371276855469,-3.3133575916290283,7.704949378967285
1700935690422281200,7.41528125,5.0893874168396,-3.3104641437530518,7.705522537231445
1700935690439274200,7.432274169921875,5.091269016265869,-3.310185194015503,7.704400062561035
1700935690456264700,7.4492646484375,5.094452381134033,-3.311347007751465,7.7017951011657715
1700935690473257200,7.46625732421875,5.096618175506592,-3.313722848892212,7.699340343475342
1700935690490247200,7.4832470703125,5.096921443939209,-3.3166379928588867,7.697883129119873
1700935690507240200,7.500240234375,5.0964741706848145,-3.32060170173645,7.696470260620117
1700935690524230700,7.517230712890625,5.096421241760254,-3.323826551437378,7.695113658905029
1700935690541223400,7.534223388671875,5.09776496887207,-3.325589418411255,7.69346284866333
1700935690558210600,7.55121044921875,5.100667476654053,-3.327425241470337,7.690744400024414
1700935690575208400,7.56820849609375,5.107539176940918,-3.331719398498535,7.684322357177734
1700935690592183000,7.58518310546875,5.12310266494751,-3.341590404510498,7.669661998748779
1700935690609189400,7.602189453125,5.135043621063232,-3.350257396697998,7.6578850746154785
1700935690626179000,7.619178955078125,5.135716915130615,-3.353943109512329,7.655819416046143
1700935690643172000,7.636172119140625,5.131538391113281,-3.355039119720459,7.658143043518066
1700935690660162600,7.65316259765625,5.127124309539795,-3.358339786529541,7.659651756286621
1700935690677155000,7.670155029296875,5.124804496765137,-3.3614351749420166,7.65984582901001
1700935690694145300,7.687145263671875,5.126327991485596,-3.363464117050171,7.657936096191406
1700935690711138000,7.704137939453125,5.130499362945557,-3.367466688156128,7.653383255004883
1700935690728128500,7.72112841796875,5.134450435638428,-3.3725533485412598,7.648491859436035
1700935690745121000,7.73812109375,5.137422561645508,-3.3758480548858643,7.6450419425964355
1700935690762108700,7.755108642578125,5.141791820526123,-3.3764734268188477,7.641826629638672
1700935690779103500,7.772103515625,5.149376392364502,-3.3746955394744873,7.637503623962402
1700935690796096800,7.7890966796875,5.159091949462891,-3.3698832988739014,7.633071422576904
1700935690813087000,7.8060869140625,5.169133186340332,-3.363182306289673,7.629231929779053
1700935690830077200,7.8230771484375,5.1803059577941895,-3.3573055267333984,7.624240875244141
1700935690847069700,7.840069580078125,5.193049430847168,-3.3505852222442627,7.618524551391602
1700935690864060200,7.85706005859375,5.20527458190918,-3.3427627086639404,7.613616466522217
1700935690881053000,7.874052978515625,5.215681552886963,-3.3351211547851562,7.609845161437988
1700935690898043000,7.89104296875,5.223721981048584,-3.3297371864318848,7.606687545776367
1700935690915036000,7.908035888671875,5.227996349334717,-3.3268418312072754,7.60501766204834
1700935690932026000,7.925026123046875,5.231986999511719,-3.3247218132019043,7.6031999588012695
1700935690949019000,7.942018798828125,5.237614631652832,-3.321627378463745,7.600677967071533
1700935690966009000,7.959009033203125,5.242491722106934,-3.3160204887390137,7.5997633934021
1700935690983001900,7.976001953125,5.244317531585693,-3.30971360206604,7.601252555847168
1700935690999991800,7.99299169921875,5.245284080505371,-3.304841995239258,7.602705478668213
1700935691016985000,8.009985107421874,5.247549533843994,-3.3007102012634277,7.6029372215271
1700935691033975000,8.02697509765625,5.251123905181885,-3.295154571533203,7.602878570556641
1700935691050965000,8.043965087890625,5.258112907409668,-3.2857675552368164,7.602111339569092
1700935691067960800,8.0609609375,5.264349460601807,-3.27441668510437,7.602692604064941
1700935691084951300,8.077951416015624,5.269235610961914,-3.263611316680908,7.6039533615112305
1700935691101941000,8.09494091796875,5.273487567901611,-3.2545504570007324,7.604889392852783
1700935691118933800,8.111933837890625,5.278744220733643,-3.2475717067718506,7.604225158691406
1700935691135924500,8.128924560546874,5.2865095138549805,-3.242602825164795,7.600950717926025
1700935691152906200,8.14590625,5.295657157897949,-3.239307403564453,7.595987319946289
1700935691169906700,8.16290673828125,5.303879261016846,-3.236307144165039,7.591527938842773
1700935691186899500,8.1798994140625,5.308094501495361,-3.233513355255127,7.5897722244262695
1700935691203890200,8.19689013671875,5.308370590209961,-3.232832670211792,7.589868545532227
1700935691220883000,8.213883056640626,5.306437969207764,-3.235419988632202,7.590117931365967
1700935691237873200,8.230873046875,5.3042731285095215,-3.2402265071868896,7.58958101272583
1700935691254865400,8.247865478515624,5.3045854568481445,-3.245504856109619,7.587106227874756
1700935691271851800,8.264851806640625,5.30610990524292,-3.250523567199707,7.583890438079834
1700935691288853800,8.281853759765625,5.304688930511475,-3.2549967765808105,7.582965850830078
1700935691305838800,8.2988388671875,5.300736427307129,-3.2601304054260254,7.583524227142334
1700935691322831600,8.31583154296875,5.296779632568359,-3.2665088176727295,7.583545684814453
1700935691339822000,8.332822021484375,5.293200969696045,-3.2724854946136475,7.58346700668335
1700935691356804400,8.349804443359375,5.290053844451904,-3.2768008708953857,7.583799362182617
1700935691373805000,8.36680517578125,5.2884840965271,-3.2802302837371826,7.5834126472473145
1700935691390801000,8.38380078125,5.289268493652344,-3.282351016998291,7.581946849822998
1700935691407784700,8.40078466796875,5.290882587432861,-3.282463312149048,7.580772876739502
1700935691424781000,8.417781005859375,5.291407108306885,-3.282756805419922,7.580279350280762
1700935691441770800,8.434770751953126,5.291180610656738,-3.2831881046295166,7.5802507400512695
1700935691458761700,8.45176171875,5.2910637855529785,-3.2825095653533936,7.580625534057617
1700935691475755800,8.468755859375,5.293565273284912,-3.2810652256011963,7.579504013061523
1700935691492746800,8.485746826171875,5.2952189445495605,-3.279689311981201,7.578944206237793
1700935691509731300,8.5027314453125,5.295305252075195,-3.279245615005493,7.579077243804932
1700935691526729700,8.519729736328125,5.296769142150879,-3.2795379161834717,7.577927589416504
1700935691543720200,8.53672021484375,5.301006317138672,-3.2776761054992676,7.575769901275635
1700935691560712700,8.553712646484374,5.305872440338135,-3.272740602493286,7.574496269226074
1700935691577702700,8.57070263671875,5.310009479522705,-3.267016887664795,7.574068546295166
1700935691594695400,8.5876953125,5.315382480621338,-3.262005090713501,7.572460174560547
1700935691611686100,8.60468603515625,5.320779323577881,-3.257431745529175,7.570637226104736
1700935691628680200,8.62168017578125,5.323693752288818,-3.253798007965088,7.5701518058776855
1700935691645667600,8.63866748046875,5.324098110198975,-3.25026273727417,7.571386814117432
1700935691662652700,8.655652587890625,5.325343608856201,-3.246100664138794,7.57229471206665
1700935691679650300,8.672650390625,5.3306097984313965,-3.2419979572296143,7.570347309112549
1700935691696644600,8.68964453125,5.337188243865967,-3.2381038665771484,7.567378044128418
1700935691713634600,8.706634521484375,5.341386318206787,-3.2348203659057617,7.565820217132568
1700935691730616800,8.723616943359374,5.342850208282471,-3.232694625854492,7.565695285797119
1700935691747618300,8.740618408203124,5.34507942199707,-3.231452703475952,7.564651012420654
1700935691764610800,8.75761083984375,5.347719192504883,-3.23118257522583,7.562901496887207
1700935691781600800,8.774600830078125,5.3513078689575195,-3.2294552326202393,7.561100482940674
1700935691798593800,8.79159375,5.357140064239502,-3.225066900253296,7.558842658996582
1700935691815584300,8.808584228515626,5.361843109130859,-3.2210581302642822,7.557217597961426
1700935691832576800,8.82557666015625,5.364705562591553,-3.2208411693573,7.5552778244018555
1700935691849566700,8.842566650390625,5.363989353179932,-3.223860263824463,7.554498195648193
1700935691866559700,8.859559814453124,5.3597187995910645,-3.227989435195923,7.555767059326172
1700935691883550200,8.87655029296875,5.35469913482666,-3.2345266342163086,7.5565290451049805
1700935691900538400,8.893538330078124,5.351502895355225,-3.2412075996398926,7.55593204498291
1700935691917537300,8.910537353515625,5.352322101593018,-3.244612455368042,7.553889751434326
1700935691934525400,8.927525390625,5.356550216674805,-3.2446985244750977,7.550854682922363
1700935691951516200,8.94451611328125,5.359769821166992,-3.244417190551758,7.548691272735596
1700935691968508700,8.9615087890625,5.359865665435791,-3.2461071014404297,7.547896862030029
1700935691985499000,8.978498779296874,5.358128070831299,-3.2510602474212646,7.546999454498291
1700935692002491400,8.995491455078126,5.3548784255981445,-3.257925510406494,7.54634428024292
1700935692019482000,9.012482177734375,5.351062774658203,-3.2633392810821533,7.5467119216918945
1700935692036474600,9.029474609375,5.3482666015625,-3.266348361968994,7.54739236831665
1700935692053462000,9.0464619140625,5.345718860626221,-3.2697081565856934,7.5477423667907715
1700935692070460200,9.063460205078124,5.342421531677246,-3.2748398780822754,7.547852993011475
1700935692087447800,9.08044775390625,5.339873790740967,-3.2786083221435547,7.548018932342529
1700935692104440800,9.09744091796875,5.337660789489746,-3.27992844581604,7.549010276794434
1700935692121430500,9.114430419921876,5.335818767547607,-3.2782697677612305,7.551032543182373
1700935692138423600,9.131423583984375,5.335373401641846,-3.275575876235962,7.552517414093018
1700935692155414300,9.148414306640625,5.336021423339844,-3.272613048553467,7.553343296051025
1700935692172408800,9.165408935546875,5.335400104522705,-3.269143581390381,7.555283546447754
1700935692189394400,9.18239453125,5.334900856018066,-3.264615297317505,7.557595729827881
1700935692206389200,9.19938916015625,5.335715293884277,-3.2591493129730225,7.559378147125244
1700935692223380000,9.2163798828125,5.3370795249938965,-3.252542495727539,7.561261177062988
1700935692240371700,9.233371826171876,5.338338375091553,-3.2452118396759033,7.5635223388671875
1700935692257363500,9.250363525390625,5.33859395980835,-3.2380425930023193,7.566412925720215
1700935692274355700,9.267355712890625,5.336537837982178,-3.2345242500305176,7.5693678855896
1700935692291346200,9.28434619140625,5.332566738128662,-3.234950542449951,7.571983814239502
1700935692308339000,9.3013388671875,5.327193737030029,-3.235093116760254,7.5757036209106445
1700935692325329000,9.318328857421875,5.322616100311279,-3.234381675720215,7.579224586486816
1700935692342321400,9.3353212890625,5.32067346572876,-3.233126640319824,7.581123352050781
1700935692359312100,9.35231201171875,5.318666934967041,-3.23159122467041,7.583186626434326
1700935692376304400,9.369304443359376,5.316649436950684,-3.232273817062378,7.584310531616211
1700935692393294600,9.386294677734375,5.3146281242370605,-3.235889434814453,7.584184646606445
1700935692410287600,9.40328759765625,5.309392929077148,-3.2400593757629395,7.586071014404297
1700935692427278000,9.420278076171876,5.3009185791015625,-3.2440578937530518,7.5902886390686035
1700935692444270800,9.437270751953125,5.291608810424805,-3.2482991218566895,7.594968795776367
1700935692461250300,9.454250244140624,5.286740779876709,-3.2507667541503906,7.597301483154297
1700935692478253300,9.47125341796875,5.287187576293945,-3.2496252059936523,7.597480773925781
1700935692495243800,9.488243896484375,5.288649082183838,-3.2480313777923584,7.597143650054932
1700935692512226800,9.505226806640625,5.28833532333374,-3.249199628829956,7.596861839294434
1700935692529227000,9.52222705078125,5.28564977645874,-3.2522945404052734,7.597408294677734
1700935692546219500,9.539219482421874,5.282294273376465,-3.2554526329040527,7.598388195037842
1700935692563210000,9.5562099609375,5.277273654937744,-3.2576980590820312,7.600915431976318
1700935692580203000,9.573203125,5.272894382476807,-3.2598981857299805,7.6030097007751465
1700935692597192700,9.590192626953124,5.2711591720581055,-3.262091636657715,7.603272438049316
1700935692614185700,9.607185791015626,5.271482467651367,-3.2639212608337402,7.602262496948242
1700935692631176000,9.624176025390625,5.272761821746826,-3.265191078186035,7.600830078125
1700935692648168700,9.641168701171875,5.2744669914245605,-3.265028715133667,7.599716663360596
1700935692665147000,9.65814697265625,5.274665832519531,-3.264342784881592,7.599874496459961
1700935692682146600,9.675146484375,5.273359775543213,-3.2642526626586914,7.600819110870361
1700935692699142000,9.692141845703125,5.271625995635986,-3.263324499130249,7.602420330047607
1700935692716135000,9.709135009765625,5.271474361419678,-3.260859966278076,7.603581428527832
1700935692733124600,9.72612451171875,5.272850513458252,-3.258765459060669,7.603525638580322
1700935692750114800,9.74311474609375,5.274714946746826,-3.258007526397705,7.602557182312012
1700935692767110400,9.7601103515625,5.276888370513916,-3.2574925422668457,7.601269721984863
1700935692784100900,9.777100830078124,5.2781147956848145,-3.2559382915496826,7.601084232330322
1700935692801090800,9.7940908203125,5.278774738311768,-3.2539548873901367,7.601476192474365
1700935692818083600,9.81108349609375,5.278651714324951,-3.2524220943450928,7.602216720581055
1700935692835063300,9.828063232421876,5.277819633483887,-3.2518210411071777,7.603051662445068
1700935692852066800,9.84506689453125,5.277182579040527,-3.2516822814941406,7.603552341461182
1700935692869057800,9.862057861328125,5.279418468475342,-3.2499797344207764,7.602728366851807
1700935692886048500,9.879048583984375,5.282481670379639,-3.2482476234436035,7.6013407707214355
1700935692903042800,9.896042724609375,5.283555030822754,-3.247795820236206,7.60078763961792
1700935692920023000,9.91302294921875,5.282177448272705,-3.2490487098693848,7.601211071014404
1700935692937028400,9.9300283203125,5.2805891036987305,-3.2508437633514404,7.601546287536621
1700935692954015500,9.947015380859375,5.280002117156982,-3.2521750926971436,7.60138463973999
1700935692971006000,9.964005859375,5.279263973236084,-3.253455877304077,7.601348400115967
1700935692987988200,9.98098828125,5.278712272644043,-3.2553868293762207,7.600905895233154
1700935693004988700,9.99798876953125,5.280796051025391,-3.2555317878723145,7.599396228790283
1700935693021969700,10.0149697265625,5.284701347351074,-3.254112482070923,7.597288131713867
1700935693038972200,10.03197216796875,5.2885026931762695,-3.253847122192383,7.594756126403809
1700935693055965000,10.04896484375,5.29144287109375,-3.254971981048584,7.592226982116699
1700935693072954600,10.06595458984375,5.293637275695801,-3.2572038173675537,7.589738845825195
1700935693089947400,10.082947509765624,5.296675205230713,-3.2604987621307373,7.586203575134277
1700935693106927600,10.099927734375,5.299837112426758,-3.2641937732696533,7.582405090332031
1700935693123931000,10.116930908203125,5.301297664642334,-3.26653790473938,7.580376148223877
1700935693140920600,10.133920654296874,5.303165435791016,-3.2672533988952637,7.578760623931885
1700935693157913300,10.150913330078126,5.305832862854004,-3.268519401550293,7.576347351074219
1700935693174904000,10.167904052734375,5.309211730957031,-3.2708215713500977,7.57298469543457
1700935693191896600,10.184896484375,5.312587261199951,-3.272766590118408,7.569777488708496
1700935693208886800,10.20188671875,5.31515645980835,-3.274935007095337,7.56703519821167
1700935693225879800,10.2188798828125,5.314615249633789,-3.2778286933898926,7.566163063049316
1700935693242869800,10.235869873046875,5.312234401702881,-3.2794408798217773,7.567137241363525
1700935693259863000,10.252863037109375,5.310687065124512,-3.2804677486419678,7.567776679992676
1700935693276852700,10.269852783203126,5.31304931640625,-3.280848979949951,7.565953731536865
1700935693293845500,10.286845458984375,5.317962169647217,-3.279688596725464,7.563005447387695
1700935693310836200,10.303836181640625,5.322866916656494,-3.2760977745056152,7.56110954284668
1700935693327828700,10.320828857421875,5.326761722564697,-3.2711739540100098,7.560499668121338
1700935693344819000,10.33781884765625,5.328724384307861,-3.2658660411834717,7.561410903930664
1700935693361811700,10.354811767578125,5.328506946563721,-3.2621169090270996,7.563180923461914
1700935693378802200,10.37180224609375,5.328108787536621,-3.2598555088043213,7.5644378662109375
1700935693395794700,10.388794677734374,5.3286261558532715,-3.2568933963775635,7.565348148345947
1700935693412785000,10.405784912109375,5.3295464515686035,-3.2502176761627197,7.567570686340332
1700935693429777700,10.422777587890625,5.330294132232666,-3.2425830364227295,7.570319175720215
1700935693446768000,10.43976806640625,5.32960844039917,-3.2382731437683105,7.572645664215088
1700935693463761000,10.456760986328124,5.32760763168335,-3.2370188236236572,7.574590682983398
1700935693480748300,10.473748291015625,5.325361728668213,-3.2359225749969482,7.5766377449035645
1700935693497746400,10.490746337890625,5.325323581695557,-3.232785224914551,7.578003883361816
1700935693514734000,10.507734130859374,5.328171253204346,-3.2274746894836426,7.57826566696167
1700935693531726800,10.524726806640626,5.334244251251221,-3.220060110092163,7.577147960662842
1700935693548717000,10.541717041015625,5.340091705322266,-3.2121291160583496,7.576395511627197
1700935693565709800,10.558709716796875,5.3423614501953125,-3.2066102027893066,7.577132225036621
1700935693582700300,10.5757001953125,5.34313440322876,-3.2055981159210205,7.5770158767700195
1700935693599692800,10.59269287109375,5.345370769500732,-3.207913875579834,7.574457168579102
1700935693616683000,10.60968310546875,5.347292423248291,-3.2103214263916016,7.572081089019775
1700935693633673200,10.626673095703126,5.351528167724609,-3.2101593017578125,7.569156646728516
1700935693650668500,10.64366845703125,5.357348918914795,-3.208631992340088,7.565685749053955
1700935693667658800,10.66065869140625,5.364085674285889,-3.206789255142212,7.56169319152832
1700935693684638700,10.677638671875,5.369213104248047,-3.205458641052246,7.55861759185791
1700935693701632500,10.694632568359374,5.37212610244751,-3.205617666244507,7.5564799308776855
1700935693718632200,10.711632080078125,5.374618053436279,-3.2076656818389893,7.55383825302124
1700935693735625200,10.728625244140625,5.37847900390625,-3.2099368572235107,7.550124168395996
1700935693752614700,10.74561474609375,5.382661819458008,-3.211404323577881,7.546518802642822
1700935693769607700,10.762607666015626,5.3877129554748535,-3.2102198600769043,7.543417453765869
1700935693786597600,10.77959765625,5.390880107879639,-3.206986904144287,7.542529582977295
1700935693803591200,10.796591064453125,5.393209457397461,-3.2038803100585938,7.542184829711914
1700935693820580900,10.813580810546876,5.396058082580566,-3.2032952308654785,7.540396690368652
1700935693837564200,10.830564208984375,5.397512912750244,-3.2046029567718506,7.538797855377197
1700935693854564400,10.847564453125,5.398068904876709,-3.2037532329559326,7.538761615753174
1700935693871557000,10.86455712890625,5.400588035583496,-3.200556755065918,7.538316249847412
1700935693888546800,10.881546875,5.407496452331543,-3.1977288722991943,7.534561634063721
1700935693905539800,10.898539794921875,5.414941787719727,-3.196561336517334,7.529707908630371
1700935693922530300,10.9155302734375,5.417232036590576,-3.195844888687134,7.5283660888671875
1700935693939535600,10.93253564453125,5.415546417236328,-3.197521448135376,7.528867244720459
1700935693956513000,10.949512939453125,5.414071559906006,-3.2017486095428467,7.528131484985352
1700935693973506000,10.966506103515625,5.412467956542969,-3.205479383468628,7.527695178985596
1700935693990496300,10.983496337890625,5.4117536544799805,-3.2084851264953613,7.5269293785095215
1700935694007487700,11.00048779296875,5.40987491607666,-3.2090187072753906,7.528051853179932
1700935694024480500,11.01748046875,5.405797481536865,-3.2079927921295166,7.531417369842529
1700935694041471700,11.0344716796875,5.403382301330566,-3.206807851791382,7.533654689788818
1700935694058455300,11.051455322265625,5.404544830322266,-3.205420970916748,7.533411502838135
1700935694075457800,11.068457763671875,5.406839370727539,-3.2024295330047607,7.533037185668945
1700935694092445400,11.085445556640625,5.40787935256958,-3.1985597610473633,7.533934116363525
1700935694109437700,11.102437744140625,5.4076714515686035,-3.1961612701416016,7.535101890563965
1700935694126428400,11.119428466796874,5.4082932472229,-3.196711540222168,7.534421920776367
1700935694143421200,11.136421142578126,5.409061431884766,-3.1988699436187744,7.532954216003418
1700935694160411100,11.1534111328125,5.4079999923706055,-3.2010910511016846,7.532773017883301
1700935694177404000,11.17040380859375,5.408066749572754,-3.202192783355713,7.532257080078125
1700935694194403000,11.187403076171876,5.40914249420166,-3.2024972438812256,7.5313544273376465
1700935694211387100,11.20438720703125,5.409041881561279,-3.2035374641418457,7.530984401702881
1700935694228377000,11.221377197265625,5.408214569091797,-3.2053074836730957,7.530824661254883
1700935694245370000,11.2383701171875,5.407207012176514,-3.207343578338623,7.53068208694458
1700935694262357800,11.255357666015625,5.4068989753723145,-3.2097580432891846,7.5298752784729
1700935694279355600,11.272355712890626,5.408547401428223,-3.2122387886047363,7.527633190155029
1700935694296345900,11.289345947265625,5.409631729125977,-3.213217258453369,7.5264363288879395
1700935694313333000,11.3063330078125,5.408883094787598,-3.211911916732788,7.527530193328857
1700935694330326300,11.323326171875,5.40707540512085,-3.2103776931762695,7.529483318328857
1700935694347319300,11.3403193359375,5.405697345733643,-3.2109711170196533,7.530220031738281
1700935694364309200,11.357309326171874,5.404635429382324,-3.2139294147491455,7.529720783233643
1700935694381302000,11.374302001953126,5.4037957191467285,-3.2173709869384766,7.528852939605713
1700935694398292500,11.39129248046875,5.403951168060303,-3.21982741355896,7.52769136428833
1700935694415285200,11.40828515625,5.405518531799316,-3.219520330429077,7.526697635650635
1700935694432273400,11.4252734375,5.408040523529053,-3.216289758682251,7.526266098022461
1700935694449269800,11.442269775390624,5.409897804260254,-3.2116243839263916,7.526923179626465
1700935694466265900,11.459265869140625,5.410622596740723,-3.207921266555786,7.527981758117676
1700935694483251200,11.476251220703125,5.408679485321045,-3.20681095123291,7.529851913452148
1700935694500241400,11.493241455078126,5.405921459197998,-3.208692789077759,7.531030654907227
1700935694517241000,11.510240966796875,5.401759147644043,-3.212285041809082,7.5324859619140625
1700935694534224100,11.52722412109375,5.395122051239014,-3.2156074047088623,7.535823822021484
1700935694551217200,11.544217041015624,5.390902042388916,-3.216885805130005,7.538297176361084
1700935694568207000,11.56120703125,5.39183235168457,-3.2143499851226807,7.538714408874512
1700935694585200000,11.5782001953125,5.3965983390808105,-3.2092275619506836,7.537485599517822
1700935694602190300,11.5951904296875,5.402242660522461,-3.2050626277923584,7.535214900970459
1700935694619183400,11.612183349609374,5.405826091766357,-3.20481276512146,7.532750129699707
1700935694636176400,11.62917626953125,5.40643835067749,-3.2076616287231445,7.531098365783691
1700935694653162800,11.646162841796874,5.405266761779785,-3.2108194828033447,7.530594348907471
1700935694670146000,11.66314599609375,5.405399322509766,-3.2127835750579834,7.529660701751709
1700935694687149300,11.6801494140625,5.407062530517578,-3.2131547927856445,7.528307914733887
1700935694704150500,11.697150634765626,5.4080328941345215,-3.2111763954162598,7.5284552574157715
1700935694721131800,11.7141318359375,5.40708589553833,-3.2103655338287354,7.529480934143066
1700935694738119000,11.731118896484375,5.404257297515869,-3.213107109069824,7.530343055725098
1700935694755118800,11.748118896484375,5.399996280670166,-3.2170324325561523,7.531723976135254
1700935694772105200,11.765105224609375,5.395716190338135,-3.2182724475860596,7.534260272979736
1700935694789098200,11.78209814453125,5.394721984863281,-3.2167372703552246,7.535628795623779
1700935694806088700,11.799088623046876,5.3972907066345215,-3.2159810066223145,7.534111976623535
1700935694823081500,11.81608154296875,5.400273323059082,-3.215373992919922,7.532232761383057
1700935694840061400,11.8330615234375,5.399742126464844,-3.2131285667419434,7.533571720123291
1700935694857064700,11.850064697265625,5.39846134185791,-3.2099595069885254,7.53584098815918
1700935694874054400,11.867054443359375,5.399109363555908,-3.2064688205718994,7.536862373352051
1700935694891047700,11.884047607421875,5.400651931762695,-3.203634023666382,7.53696346282959
1700935694908037000,11.901037109375,5.401498317718506,-3.2018675804138184,7.537106990814209
1700935694925027600,11.918027587890625,5.399126052856445,-3.19822359085083,7.540353298187256
1700935694942023400,11.9350234375,5.393199443817139,-3.191267967224121,7.547537326812744
1700935694959013400,11.952013427734375,5.383060455322266,-3.1790525913238525,7.559920310974121
1700935694976000800,11.969000732421875,5.370763778686523,-3.15887713432312,7.577103614807129
1700935694992999000,11.9859990234375,5.362401962280273,-3.136200189590454,7.5924296379089355
1700935695009976000,12.00297607421875,5.362127780914307,-3.1202094554901123,7.599210262298584
1700935695026979600,12.0199794921875,5.364953994750977,-3.1126856803894043,7.600300312042236
1700935695043969300,12.03696923828125,5.362359523773193,-3.111597776412964,7.602577209472656
1700935695060950000,12.053949951171875,5.352316379547119,-3.111586809158325,7.609654426574707
1700935695077955300,12.070955322265625,5.340381622314453,-3.110769748687744,7.618369102478027
1700935695094945000,12.087945068359375,5.333741664886475,-3.1074459552764893,7.624374866485596
1700935695111929000,12.10492919921875,5.334291458129883,-3.1014115810394287,7.626447677612305
1700935695128928500,12.121928466796875,5.336484909057617,-3.0870306491851807,7.630745887756348
1700935695145918700,12.138918701171875,5.335212230682373,-3.068372964859009,7.639157295227051
1700935695162911500,12.155911376953124,5.331202507019043,-3.0524466037750244,7.648330211639404
1700935695179901400,12.1729013671875,5.328123092651367,-3.041346549987793,7.6548967361450195
1700935695196894200,12.189894287109375,5.325855731964111,-3.0357728004455566,7.658685207366943
1700935695213885000,12.206885009765625,5.3194661140441895,-3.032557964324951,7.664398670196533
1700935695230877400,12.22387744140625,5.305776119232178,-3.029020309448242,7.675277233123779
1700935695247867400,12.240867431640625,5.286866664886475,-3.0254907608032227,7.689704418182373
1700935695264858000,12.257858154296875,5.266563892364502,-3.025712251663208,7.703537464141846
1700935695281851000,12.274850830078124,5.247560024261475,-3.029956579208374,7.714828968048096
1700935695298842600,12.291842529296876,5.239001274108887,-3.0354645252227783,7.718480587005615
1700935695315836000,12.3088359375,5.238379001617432,-3.043558120727539,7.715714931488037
1700935695332824300,12.32582421875,5.237895488739014,-3.054326057434082,7.71178674697876
1700935695349816800,12.34281689453125,5.232112884521484,-3.0674781799316406,7.71049165725708
1700935695366809900,12.359809814453126,5.223806381225586,-3.0810327529907227,7.710720062255859
1700935695383799800,12.3767998046875,5.217719078063965,-3.0943238735198975,7.7095184326171875
1700935695400792600,12.39379248046875,5.214997291564941,-3.1050219535827637,7.707058429718018
1700935695417783000,12.410782958984376,5.216695785522461,-3.11275053024292,7.7027907371521
1700935695434775800,12.42777587890625,5.220437526702881,-3.1179304122924805,7.698159217834473
1700935695451765800,12.444765869140625,5.225858211517334,-3.1215670108795166,7.69300651550293
1700935695468758300,12.46175830078125,5.235531806945801,-3.124915838241577,7.685065269470215
1700935695485748700,12.478748779296875,5.244157314300537,-3.129652261734009,7.677251815795898
1700935695502741800,12.49574169921875,5.2468156814575195,-3.135300874710083,7.673130512237549
1700935695519732000,12.51273193359375,5.245222568511963,-3.1391701698303223,7.672636985778809
1700935695536714000,12.5297138671875,5.245891571044922,-3.140333652496338,7.671703815460205
1700935695553715000,12.54671484375,5.2505693435668945,-3.1399619579315186,7.668655872344971
1700935695570707700,12.563707763671875,5.257381916046143,-3.1400225162506104,7.663960933685303
1700935695587698000,12.580697998046874,5.262609004974365,-3.138953924179077,7.660810470581055
1700935695604690700,12.597690673828126,5.265161991119385,-3.1363484859466553,7.6601243019104
1700935695621681000,12.614680908203125,5.266329288482666,-3.133791208267212,7.6603684425354
1700935695638674200,12.631674072265625,5.268466472625732,-3.1299071311950684,7.660486698150635
1700935695655663900,12.648663818359376,5.273004531860352,-3.123779296875,7.659864902496338
1700935695672656600,12.66565673828125,5.279482364654541,-3.1161117553710938,7.6585259437561035
1700935695689650200,12.682650146484375,5.285427093505859,-3.108051300048828,7.65770149230957
1700935695706637000,12.699636962890626,5.289848804473877,-3.1012122631073,7.657421588897705
1700935695723619300,12.716619384765625,5.29390811920166,-3.0958476066589355,7.656786918640137
1700935695740614000,12.73361376953125,5.298450469970703,-3.093061685562134,7.654770374298096
1700935695757592800,12.7505927734375,5.303275108337402,-3.0904903411865234,7.652466773986816
1700935695774608600,12.767608642578125,5.307869911193848,-3.0887832641601562,7.649970054626465
1700935695791595800,12.784595703125,5.3104424476623535,-3.0882818698883057,7.648387432098389
1700935695808588800,12.8015888671875,5.311220169067383,-3.0886383056640625,7.647703647613525
1700935695825579300,12.818579345703125,5.314452648162842,-3.0881783962249756,7.6456427574157715
1700935695842561800,12.835561767578126,5.319624900817871,-3.0892934799194336,7.641594409942627
1700935695859567400,12.8525673828125,5.32370138168335,-3.092113494873047,7.6376142501831055
1700935695876553700,12.8695537109375,5.323559761047363,-3.095346450805664,7.6364030838012695
1700935695893546500,12.88654638671875,5.319528102874756,-3.0995051860809326,7.637526512145996
1700935695910527500,12.903527587890625,5.314114570617676,-3.1045777797698975,7.63923454284668
1700935695927528200,12.920528076171875,5.308934688568115,-3.1108145713806152,7.640299320220947
1700935695944518400,12.937518310546874,5.305295944213867,-3.1164660453796387,7.640522480010986
1700935695961514000,12.954513916015625,5.300985336303711,-3.121969699859619,7.641268253326416
1700935695978504200,12.971504150390626,5.296132564544678,-3.1255321502685547,7.643176078796387
1700935695995494100,12.988494140625,5.295312404632568,-3.127134323120117,7.6430888175964355
1700935696012487200,13.005487060546875,5.296722888946533,-3.1286637783050537,7.641486644744873
1700935696029477400,13.022477294921876,5.2966790199279785,-3.128405809402466,7.641622543334961
1700935696046470100,13.03947021484375,5.297178268432617,-3.127031087875366,7.641838550567627
1700935696063450000,13.0564501953125,5.298312664031982,-3.1264359951019287,7.641295909881592
1700935696080452900,13.073452880859374,5.299060821533203,-3.126190185546875,7.640876770019531
1700935696097441300,13.090441162109375,5.297866344451904,-3.126060724258423,7.641757965087891
1700935696114438700,13.107438720703126,5.296151638031006,-3.1269354820251465,7.642589092254639
1700935696131426300,13.12442626953125,5.294175624847412,-3.1283152103424072,7.6433939933776855
1700935696148419000,13.141419189453124,5.2932562828063965,-3.128404140472412,7.643993854522705
1700935696165409800,13.158409912109375,5.294379234313965,-3.1250250339508057,7.644598007202148
1700935696182392000,13.17539208984375,5.298691272735596,-3.1169753074645996,7.644896984100342
1700935696199382500,13.192382568359376,5.304439544677734,-3.1063477993011475,7.645236015319824
1700935696216385300,13.20938525390625,5.311683654785156,-3.0959880352020264,7.644409656524658
1700935696233375700,13.226375732421875,5.318820476531982,-3.086796522140503,7.643163681030273
1700935696250368500,13.243368408203125,5.324066638946533,-3.078599214553833,7.64281702041626
1700935696267358500,13.2603583984375,5.329694747924805,-3.0709314346313477,7.641979694366455
1700935696284340700,13.2773408203125,5.336345195770264,-3.063387393951416,7.6403656005859375
1700935696301341400,13.294341552734375,5.344671726226807,-3.0583229064941406,7.6365742683410645
1700935696318334700,13.311334716796875,5.351719379425049,-3.056741237640381,7.632269859313965
1700935696335324400,13.328324462890626,5.356207847595215,-3.05584979057312,7.629477500915527
1700935696352317400,13.3453173828125,5.358861923217773,-3.054267406463623,7.628246784210205
1700935696369314600,13.362314453125,5.361910820007324,-3.0517971515655518,7.62709379196167
1700935696386300400,13.379300537109375,5.365954875946045,-3.0481202602386475,7.625720500946045
1700935696403287800,13.396287841796875,5.369555473327637,-3.0454823970794678,7.62423849105835
1700935696420285700,13.41328564453125,5.372635841369629,-3.044152021408081,7.6225996017456055
1700935696437263400,13.430263427734374,5.374554634094238,-3.043409824371338,7.621544361114502
1700935696454266600,13.4472666015625,5.37570858001709,-3.043938636779785,7.620519161224365
1700935696471256600,13.464256591796875,5.374145030975342,-3.046002149581909,7.620797157287598
1700935696488249000,13.4812490234375,5.369765758514404,-3.0484142303466797,7.622920036315918
1700935696505229600,13.4982294921875,5.364871501922607,-3.050891399383545,7.625373363494873
1700935696522232600,13.515232666015624,5.363941669464111,-3.053887367248535,7.624828815460205
1700935696539221000,13.532220947265625,5.365076541900635,-3.0563557147979736,7.623041152954102
1700935696556213000,13.549212890625,5.365589141845703,-3.0553128719329834,7.623098373413086
1700935696573208600,13.56620849609375,5.364130973815918,-3.0515787601470947,7.625619888305664
1700935696590198800,13.58319873046875,5.360351085662842,-3.0496304035186768,7.629055976867676
1700935696607186200,13.600186279296874,5.361349105834961,-3.0506699085235596,7.627939701080322
1700935696624184300,13.617184326171875,5.359666347503662,-3.053838014602661,7.627854347229004
1700935696641172000,13.634171875,5.354496955871582,-3.0593926906585693,7.62925910949707
1700935696658164700,13.651164794921876,5.354922771453857,-3.065053939819336,7.626687526702881
1700935696675154700,13.66815478515625,5.352959156036377,-3.0682716369628906,7.626772880554199
1700935696692147500,13.6851474609375,5.345132827758789,-3.0697033405303955,7.631683349609375
1700935696709138000,13.702137939453126,5.3411359786987305,-3.072680711746216,7.6332831382751465
1700935696726130700,13.719130615234375,5.348019599914551,-3.071990966796875,7.628739833831787
1700935696743121000,13.736120849609375,5.353113651275635,-3.066805601119995,7.627253532409668
1700935696760113700,13.75311376953125,5.354156494140625,-3.061910390853882,7.628487586975098
1700935696777104000,13.770103759765625,5.3603515625,-3.0596485137939453,7.625044345855713
1700935696794096600,13.7870966796875,5.367082118988037,-3.056241989135742,7.621674060821533
1700935696811086300,13.80408642578125,5.370011329650879,-3.0503644943237305,7.621966361999512
1700935696828076800,13.821076904296875,5.371564865112305,-3.0447604656219482,7.623111248016357
1700935696845073400,13.838073486328126,5.373873233795166,-3.041351079940796,7.622845649719238
1700935696862060500,13.855060546875,5.374862194061279,-3.038229465484619,7.6233930587768555
1700935696879055600,13.8720556640625,5.374326229095459,-3.036038398742676,7.624644756317139
1700935696896045800,13.8890458984375,5.37529182434082,-3.0351717472076416,7.6243085861206055
1700935696913036000,13.9060361328125,5.377521991729736,-3.034161329269409,7.623137950897217
1700935696930028800,13.92302880859375,5.378469944000244,-3.0317790508270264,7.623417854309082
1700935696947019000,13.94001904296875,5.379633903503418,-3.029447555541992,7.6235222816467285
1700935696964020000,13.95702001953125,5.38063383102417,-3.0277113914489746,7.623506546020508
1700935696981002500,13.97400244140625,5.380903244018555,-3.0261423587799072,7.6239399909973145
1700935696997995300,13.990995361328125,5.380703926086426,-3.025968551635742,7.624149322509766
1700935697014985200,14.007985107421876,5.380764007568359,-3.0264902114868164,7.623899936676025
1700935697031977700,14.024977783203125,5.381615161895752,-3.0273454189300537,7.622959136962891
1700935697048968200,14.04196826171875,5.382659912109375,-3.0284461975097656,7.6217851638793945
1700935697065968400,14.058968505859376,5.381637096405029,-3.0302205085754395,7.621801376342773
1700935697082951400,14.075951416015625,5.380335807800293,-3.032104730606079,7.62197208404541
1700935697099944200,14.092944091796875,5.379720687866211,-3.0342013835906982,7.621571063995361
1700935697116924700,14.109924560546874,5.3773417472839355,-3.0360589027404785,7.622509956359863
1700935697133927400,14.126927490234374,5.372797012329102,-3.038051128387451,7.62492036819458
1700935697150917600,14.143917724609375,5.368484973907471,-3.0409674644470215,7.626794815063477
1700935697167910100,14.16091015625,5.367313861846924,-3.044085741043091,7.626375198364258
1700935697184900400,14.177900390625,5.368670463562012,-3.045712947845459,7.624770164489746
1700935697201893400,14.194893310546876,5.372557640075684,-3.045048475265503,7.622297286987305
1700935697218883300,14.21188330078125,5.376984119415283,-3.043647289276123,7.619735240936279
1700935697235876400,14.22887646484375,5.380129337310791,-3.0435433387756348,7.617556571960449
1700935697252866800,14.24586669921875,5.3783111572265625,-3.0456390380859375,7.6180033683776855
1700935697269859600,14.262859619140626,5.372354030609131,-3.0507071018218994,7.620177745819092
1700935697286849300,14.279849365234375,5.367856025695801,-3.0568318367004395,7.620893955230713
1700935697303843600,14.296843505859375,5.368890285491943,-3.059389114379883,7.619138717651367
1700935697320820700,14.31382080078125,5.3751630783081055,-3.055018663406372,7.616468906402588
1700935697337825500,14.330825439453125,5.383069038391113,-3.0481808185577393,7.613624572753906
1700935697354815700,14.347815673828125,5.3898186683654785,-3.042283535003662,7.611207008361816
1700935697371808500,14.36480859375,5.39380407333374,-3.039180278778076,7.609622955322266
1700935697388799000,14.381799072265625,5.394451141357422,-3.03879714012146,7.609317779541016
1700935697405791700,14.398791748046875,5.393153190612793,-3.039937734603882,7.609782695770264
1700935697422781400,14.415781494140624,5.392266273498535,-3.0394492149353027,7.610607147216797
1700935697439774500,14.4327744140625,5.391490459442139,-3.0373141765594482,7.612008571624756
1700935697456762400,14.449762451171875,5.388744354248047,-3.0358145236968994,7.61454963684082
1700935697473760300,14.46676025390625,5.384271144866943,-3.035559892654419,7.617815017700195
1700935697490747600,14.48374755859375,5.379378795623779,-3.036355495452881,7.620953559875488
1700935697507740400,14.500740478515626,5.377061367034912,-3.0378358364105225,7.621999263763428
1700935697524731100,14.517731201171875,5.37746524810791,-3.040832757949829,7.620519638061523
1700935697541724000,14.534723876953125,5.37946891784668,-3.043253183364868,7.618138790130615
1700935697558713600,14.551713623046876,5.381702899932861,-3.044250011444092,7.616162300109863
1700935697575706400,14.568706298828126,5.384181499481201,-3.043710947036743,7.614625930786133
1700935697592697000,14.585697021484375,5.386251926422119,-3.044379949569702,7.612894058227539
1700935697609689900,14.60268994140625,5.388929843902588,-3.048051595687866,7.609528541564941
1700935697626679800,14.6196796875,5.390984535217285,-3.0524981021881104,7.606289863586426
1700935697643672800,14.6366728515625,5.392621994018555,-3.0536837577819824,7.604653835296631
1700935697660663000,14.6536630859375,5.392574787139893,-3.0485048294067383,7.606764793395996
1700935697677652200,14.67065234375,5.3927083015441895,-3.0420327186584473,7.609259605407715
1700935697694658300,14.687658203125,5.393475532531738,-3.0386767387390137,7.610057353973389
1700935697711638500,14.704638427734375,5.394514560699463,-3.038079261779785,7.609559535980225
1700935697728629200,14.721629150390624,5.392972946166992,-3.0376250743865967,7.610833168029785
1700935697745622000,14.7386220703125,5.387303829193115,-3.0348687171936035,7.6159467697143555
1700935697762601500,14.7556015625,5.380695819854736,-3.0306286811828613,7.622304439544678
1700935697779604700,14.772604736328125,5.375296115875244,-3.0249085426330566,7.628383159637451
1700935697796595500,14.789595458984374,5.37347936630249,-3.020385503768921,7.6314544677734375
1700935697813588200,14.806588134765626,5.373015880584717,-3.020599842071533,7.6316962242126465
1700935697830575400,14.823575439453125,5.373155117034912,-3.0244646072387695,7.630067825317383
1700935697847573500,14.840573486328125,5.37279748916626,-3.0273706912994385,7.6291680335998535
1700935697864561700,14.857561767578124,5.372258186340332,-3.0267956256866455,7.629774570465088
1700935697881554200,14.87455419921875,5.373551845550537,-3.0242326259613037,7.629880428314209
1700935697898533400,14.891533447265624,5.378690719604492,-3.0217740535736084,7.627233028411865
1700935697915537000,14.908536865234375,5.384819984436035,-3.0198423862457275,7.623671531677246
1700935697932526000,14.925526123046875,5.387369155883789,-3.0188872814178467,7.622249603271484
1700935697949522000,14.94252197265625,5.3882060050964355,-3.0185697078704834,7.62178373336792
1700935697966510300,14.95951025390625,5.3916401863098145,-3.01879620552063,7.619264602661133
1700935697983492600,14.97649267578125,5.395567417144775,-3.018007755279541,7.616796970367432
1700935698000493600,14.99349365234375,5.398262977600098,-3.01595401763916,7.615700721740723
1700935698017486600,15.010486572265625,5.39984655380249,-3.0147879123687744,7.615039348602295
1700935698034476500,15.0274765625,5.398937702178955,-3.017191171646118,7.614732265472412
1700935698051469300,15.04446923828125,5.39456844329834,-3.0217502117156982,7.616021156311035
1700935698068459500,15.06145947265625,5.3870158195495605,-3.02640438079834,7.619517803192139
1700935698085452300,15.078452392578125,5.378233909606934,-3.029449224472046,7.624509811401367
1700935698102442500,15.0954423828125,5.371805667877197,-3.0276360511779785,7.629759788513184
1700935698119435500,15.112435546875,5.365010738372803,-3.020207643508911,7.637480735778809
1700935698136426000,15.129426025390625,5.357619285583496,-3.0087170600891113,7.647199630737305
1700935698153418800,15.146418701171875,5.350722312927246,-2.9970736503601074,7.656594276428223
1700935698170408400,15.163408447265626,5.3449273109436035,-2.990300416946411,7.66328763961792
1700935698187390700,15.180390625,5.341233730316162,-2.987755537033081,7.666853904724121
1700935698204391700,15.1973916015625,5.338905334472656,-2.9864919185638428,7.668968200683594
1700935698221384400,15.214384521484375,5.336335182189941,-2.9850447177886963,7.67132043838501
1700935698238374700,15.231374755859376,5.334133625030518,-2.982901096343994,7.6736836433410645
1700935698255367200,15.2483671875,5.333068370819092,-2.9808027744293213,7.675240516662598
1700935698272358100,15.265358154296875,5.331619739532471,-2.9785537719726562,7.677120208740234
1700935698289349000,15.28234912109375,5.329070568084717,-2.977578639984131,7.679267883300781
1700935698306342700,15.2993427734375,5.327188491821289,-2.9789299964904785,7.680048942565918
1700935698323334000,15.316333984375,5.3254570960998535,-2.9818851947784424,7.6801018714904785
1700935698340323800,15.33332373046875,5.323729991912842,-2.9841537475585938,7.680419921875
1700935698357317000,15.350317138671874,5.323785781860352,-2.984924077987671,7.680080890655518
1700935698374306600,15.367306640625,5.325815200805664,-2.9862282276153564,7.678167343139648
1700935698391299600,15.384299560546875,5.327815532684326,-2.9892523288726807,7.675601959228516
1700935698408290300,15.401290283203124,5.326472282409668,-2.9931695461273193,7.675008773803711
1700935698425283000,15.418282958984374,5.322839736938477,-2.9986729621887207,7.675379753112793
1700935698442273000,15.43527294921875,5.320382118225098,-3.004422903060913,7.674834728240967
1700935698459265800,15.452265869140625,5.3184990882873535,-3.0060017108917236,7.675520896911621
1700935698476256000,15.469256103515624,5.317993640899658,-3.0015861988067627,7.677600383758545
1700935698493246700,15.486246826171875,5.321009635925293,-2.9949214458465576,7.678112506866455
1700935698510241500,15.503241455078125,5.325286865234375,-2.9911246299743652,7.676627159118652
1700935698527229400,15.5202294921875,5.326283931732178,-2.9897897243499756,7.676455497741699
1700935698544206600,15.53720654296875,5.324146747589111,-2.9893877506256104,7.678094863891602
1700935698561225200,15.55422509765625,5.323668956756592,-2.9896609783172607,7.678319454193115
1700935698578203100,15.571203125,5.323826789855957,-2.9890329837799072,7.678454399108887
1700935698595199700,15.58819970703125,5.321488857269287,-2.9858593940734863,7.681309700012207
1700935698612201200,15.605201171875,5.319117546081543,-2.982323169708252,7.684325695037842
1700935698629181400,15.622181396484375,5.317959308624268,-2.9813756942749023,7.6854939460754395
1700935698646171100,15.639171142578125,5.315877437591553,-2.9827229976654053,7.6864118576049805
1700935698663164000,15.656163818359374,5.31165075302124,-2.9846203327178955,7.688596725463867
1700935698680154600,15.673154541015625,5.30741548538208,-2.9864795207977295,7.690799236297607
1700935698697147400,15.6901474609375,5.3052215576171875,-2.9885575771331787,7.691505432128906
1700935698714137000,15.70713720703125,5.3039116859436035,-2.9894797801971436,7.692050457000732
1700935698731131600,15.724131591796874,5.30296516418457,-2.988830089569092,7.692955017089844
1700935698748109000,15.741109130859375,5.304503440856934,-2.988541841506958,7.692006587982178
1700935698765113300,15.75811328125,5.305185794830322,-2.988459825515747,7.6915693283081055
1700935698782103600,15.775103515625,5.301900863647461,-2.988520622253418,7.693809986114502
1700935698799096000,15.792095947265626,5.295902729034424,-2.9891231060028076,7.6977057456970215
1700935698816086500,15.80908642578125,5.290894985198975,-2.991358518600464,7.700280666351318
1700935698833080800,15.826080810546875,5.287940979003906,-2.9924981594085693,7.701867580413818
1700935698850069500,15.843069580078126,5.28502082824707,-2.9919943809509277,7.704065799713135
1700935698867062300,15.860062255859376,5.284456253051758,-2.9918484687805176,7.70451021194458
1700935698884052700,15.877052734375,5.287673473358154,-2.993511199951172,7.701656341552734
1700935698901045500,15.89404541015625,5.291910648345947,-2.9953763484954834,7.698019981384277
1700935698918035700,15.91103564453125,5.295201301574707,-2.9947192668914795,7.696012020111084
1700935698935028700,15.92802880859375,5.297720909118652,-2.9928903579711914,7.694990158081055
1700935698952019500,15.94501953125,5.298857688903809,-2.993374824523926,7.694019794464111
1700935698969022000,15.96202197265625,5.297763347625732,-2.997401237487793,7.693204879760742
1700935698985999000,15.9789990234375,5.2955474853515625,-3.0017528533935547,7.693033218383789
1700935699002997000,15.9959970703125,5.2937846183776855,-3.0042476654052734,7.69327449798584
1700935699019985000,16.01298486328125,5.294891357421875,-3.00197172164917,7.693400859832764
1700935699036964900,16.02996484375,5.301415920257568,-2.9959418773651123,7.691256999969482
1700935699053958000,16.0469580078125,5.310177326202393,-2.988955497741699,7.687930107116699
1700935699070960400,16.06396044921875,5.314454555511475,-2.9839558601379395,7.686917304992676
1700935699087954000,16.080953857421875,5.31664514541626,-2.979295015335083,7.6872100830078125
1700935699104943900,16.09794384765625,5.321251392364502,-2.9771511554718018,7.684853553771973
1700935699121934000,16.11493408203125,5.326958179473877,-2.978254795074463,7.680471420288086
1700935699138926800,16.1319267578125,5.332553386688232,-2.9789540767669678,7.676316261291504
1700935699155917300,16.148917236328124,5.337652206420898,-2.9777777194976807,7.6732282638549805
1700935699172909800,16.165909912109374,5.343170642852783,-2.9747848510742188,7.6705474853515625
1700935699189900300,16.182900390625,5.347721099853516,-2.9728410243988037,7.668129920959473
1700935699206892800,16.199892822265625,5.3513336181640625,-2.9737274646759033,7.665266036987305
1700935699223882000,16.216882080078125,5.352105140686035,-2.9756457805633545,7.6639814376831055
1700935699240877800,16.2338779296875,5.351146697998047,-2.9759600162506104,7.6645283699035645
1700935699257866500,16.250866455078125,5.350934982299805,-2.975245237350464,7.664953708648682
1700935699274859000,16.26785888671875,5.3534255027771,-2.9752044677734375,7.6632304191589355
1700935699291849700,16.284849609375,5.355958461761475,-2.9749865531921387,7.6615447998046875
1700935699308842500,16.301842529296874,5.357398509979248,-2.974752426147461,7.660628318786621
1700935699325832400,16.31883251953125,5.357505798339844,-2.975126028060913,7.6604084968566895
1700935699342814500,16.335814453125,5.35665225982666,-2.9765379428863525,7.660457611083984
1700935699359816000,16.35281591796875,5.357215881347656,-2.979013442993164,7.659101963043213
1700935699376808200,16.36980810546875,5.357305526733398,-2.981595993041992,7.65803337097168
1700935699393798100,16.386798095703124,5.357560157775879,-2.9819376468658447,7.657721996307373
1700935699410791400,16.40379150390625,5.357263088226318,-2.9809951782226562,7.658297538757324
1700935699427782000,16.420781982421875,5.359036922454834,-2.980668067932129,7.6571831703186035
1700935699444774700,16.437774658203125,5.35928201675415,-2.9810991287231445,7.656843185424805
1700935699461764600,16.4547646484375,5.357940196990967,-2.981783866882324,7.6575164794921875
1700935699478757600,16.471757568359376,5.357945442199707,-2.9817397594451904,7.657529354095459
1700935699495747800,16.488747802734373,5.359756946563721,-2.9814705848693848,7.65636682510376
1700935699512740900,16.505740966796875,5.361280918121338,-2.9812114238739014,7.65540075302124
1700935699529738200,16.52273828125,5.36057186126709,-2.9818365573883057,7.655653476715088
1700935699546723800,16.539723876953126,5.358150005340576,-2.981247663497925,7.657578468322754
1700935699563713800,16.5567138671875,5.356149196624756,-2.9795892238616943,7.659623622894287
1700935699580706800,16.573706787109376,5.355643272399902,-2.977494478225708,7.660790920257568
1700935699597696800,16.59069677734375,5.357052326202393,-2.9752914905548096,7.660662651062012
1700935699614689800,16.607689697265624,5.359950065612793,-2.9715652465820312,7.660081386566162
1700935699631680000,16.624679931640625,5.3627753257751465,-2.966836452484131,7.659937381744385
1700935699648672800,16.6416728515625,5.364604949951172,-2.96272349357605,7.660247325897217
1700935699665662700,16.658662841796875,5.367094039916992,-2.9595370292663574,7.659735679626465
1700935699682653400,16.6756533203125,5.36956262588501,-2.9563143253326416,7.659249782562256
1700935699699651300,16.6926513671875,5.371774196624756,-2.9527437686920166,7.6590776443481445
1700935699716639200,16.70963916015625,5.375283241271973,-2.950186252593994,7.657600402832031
1700935699733629000,16.72662890625,5.377925395965576,-2.9490058422088623,7.6561994552612305
1700935699750622000,16.7436220703125,5.378463268280029,-2.948580503463745,7.655985355377197
1700935699767612200,16.760612060546876,5.377080917358398,-2.948746681213379,7.656892776489258
1700935699784605400,16.77760546875,5.376684188842773,-2.950786590576172,7.65638542175293
1700935699801595100,16.79459521484375,5.377314567565918,-2.9536144733428955,7.654853343963623
1700935699818588200,16.811588134765625,5.379701137542725,-2.9559764862060547,7.652263164520264
1700935699835578400,16.828578369140626,5.383132457733154,-2.9574217796325684,7.649291515350342
1700935699852571100,16.845571044921876,5.3852643966674805,-2.957447052001953,7.647780895233154
1700935699869561300,16.862561279296877,5.386141777038574,-2.9578726291656494,7.646998405456543
1700935699886551600,16.879551513671874,5.386092662811279,-2.960871458053589,7.645872116088867
1700935699903547100,16.896547119140624,5.385616302490234,-2.9661307334899902,7.644168376922607
1700935699920542700,16.913542724609375,5.385995864868164,-2.9703900814056396,7.642248153686523
1700935699937527600,16.930527587890627,5.388304710388184,-2.972827672958374,7.639670372009277
1700935699954520300,16.947520263671876,5.392414093017578,-2.9719183444976807,7.637125492095947
1700935699971510800,16.9645107421875,5.395467758178711,-2.969764471054077,7.635806560516357
1700935699988503600,16.981503662109375,5.397294998168945,-2.9676408767700195,7.635341167449951
1700935700005493800,16.99849365234375,5.397891044616699,-2.966261148452759,7.6354546546936035
1700935700022486300,17.015486328125,5.397751331329346,-2.9654736518859863,7.635859489440918
1700935700039476700,17.032476806640624,5.398507595062256,-2.964427947998047,7.635731220245361
1700935700056469800,17.0494697265625,5.4014129638671875,-2.9604105949401855,7.6352362632751465
1700935700073459500,17.06645947265625,5.406740665435791,-2.9565107822418213,7.632976055145264
1700935700090452200,17.0834521484375,5.4097371101379395,-2.9556095600128174,7.631200790405273
1700935700107443000,17.10044287109375,5.4076666831970215,-2.95743727684021,7.631960391998291
1700935700124436000,17.11743603515625,5.403248310089111,-2.960970163345337,7.633719444274902
1700935700141425700,17.13442578125,5.400399684906006,-2.96515154838562,7.63411283493042
1700935700158412000,17.151412109375,5.399471282958984,-2.9671714305877686,7.633983612060547
1700935700175406300,17.16840625,5.400422096252441,-2.9640870094299316,7.634510040283203
1700935700192402000,17.18540185546875,5.404877662658691,-2.9596853256225586,7.633064270019531
1700935700209392000,17.20239208984375,5.411057949066162,-2.956939220428467,7.6297502517700195
1700935700226384600,17.219384521484375,5.414427757263184,-2.9559550285339355,7.627739906311035
1700935700243375400,17.236375244140625,5.414358139038086,-2.957031011581421,7.627372741699219
1700935700260368400,17.253368408203126,5.412403583526611,-2.959866762161255,7.627659797668457
1700935700277357800,17.27035791015625,5.411741733551025,-2.962573528289795,7.627078533172607
1700935700294348300,17.287348388671877,5.410730361938477,-2.9628851413726807,7.627674579620361
1700935700311344000,17.30434423828125,5.41009521484375,-2.9626126289367676,7.628231048583984
1700935700328334300,17.321334228515624,5.411581993103027,-2.963062286376953,7.627002239227295
1700935700345324300,17.33832421875,5.412639141082764,-2.964529514312744,7.6256818771362305
1700935700362317000,17.355317138671875,5.411570072174072,-2.965721607208252,7.6259765625
1700935700379307800,17.372307861328125,5.408599376678467,-2.9677202701568604,7.6273064613342285
1700935700396300500,17.389300537109374,5.406591892242432,-2.9695687294006348,7.628011226654053
1700935700413290200,17.406290283203123,5.40656852722168,-2.9699740409851074,7.62786865234375
1700935700430283000,17.423282958984377,5.407310962677002,-2.9698381423950195,7.627395153045654
1700935700447274000,17.44027392578125,5.407146453857422,-2.968756675720215,7.627933979034424
1700935700464266800,17.457266845703124,5.406506061553955,-2.9673938751220703,7.628917694091797
1700935700481256200,17.474256103515625,5.405808448791504,-2.9674770832061768,7.6293792724609375
1700935700498236200,17.491236083984376,5.405566215515137,-2.9687983989715576,7.6290364265441895
1700935700515242500,17.508242431640625,5.4058051109313965,-2.9690182209014893,7.628781795501709
1700935700532232400,17.525232421875,5.407238006591797,-2.968663454055786,7.627904415130615
1700935700549222700,17.54222265625,5.409868240356445,-2.9679112434387207,7.6263322830200195
1700935700566215200,17.559215087890625,5.412197113037109,-2.966111660003662,7.625380516052246
1700935700583205600,17.57620556640625,5.413671970367432,-2.964934825897217,7.624790668487549
1700935700600199000,17.593198974609376,5.416013717651367,-2.964054584503174,7.623469829559326
1700935700617189000,17.610189208984377,5.420125484466553,-2.9625751972198486,7.621121883392334
1700935700634181400,17.627181396484374,5.4224162101745605,-2.9613962173461914,7.619950771331787
1700935700651157500,17.644157470703124,5.421621799468994,-2.9621920585632324,7.620206356048584
1700935700668164900,17.661164794921874,5.418328285217285,-2.9649503231048584,7.621476173400879
1700935700685145600,17.6781455078125,5.4138407707214355,-2.968029737472534,7.623466968536377
1700935700702147800,17.69514794921875,5.4117913246154785,-2.972057342529297,7.62335205078125
1700935700719137300,17.71213720703125,5.413540840148926,-2.974830389022827,7.621028423309326
1700935700736131800,17.7291318359375,5.41817045211792,-2.9720444679260254,7.618825435638428
1700935700753110500,17.746110595703126,5.42408561706543,-2.9648144245147705,7.617433547973633
1700935700770114000,17.763114013671874,5.427599906921387,-2.9591104984283447,7.617147922515869
1700935700787104500,17.7801044921875,5.428656578063965,-2.958190441131592,7.616752624511719
1700935700804097000,17.797096923828125,5.428620338439941,-2.960155725479126,7.61601448059082
1700935700821087000,17.8140869140625,5.427657604217529,-2.961233615875244,7.616281032562256
1700935700838080000,17.831080078125,5.429019927978516,-2.959282398223877,7.616067886352539
1700935700855070700,17.84807080078125,5.4328227043151855,-2.955338716506958,7.6148881912231445
1700935700872063200,17.865063232421875,5.43645715713501,-2.951906204223633,7.613626003265381
1700935700889052700,17.882052734375,5.439002990722656,-2.9507031440734863,7.612273216247559
1700935700906047000,17.899046875,5.442579746246338,-2.953429698944092,7.608659267425537
1700935700923037000,17.916036865234375,5.446768283843994,-2.9599921703338623,7.603108882904053
1700935700940029400,17.933029541015625,5.450561046600342,-2.9658515453338623,7.598106384277344
1700935700957019000,17.950018798828125,5.452991485595703,-2.969111919403076,7.595088958740234
1700935700974015000,17.967014892578124,5.453100204467773,-2.968946695327759,7.5950751304626465
1700935700991002600,17.984002685546876,5.453646183013916,-2.9678096771240234,7.595127582550049
1700935701007995400,18.000995361328126,5.453496932983398,-2.966970920562744,7.59556245803833
1700935701024985900,18.01798583984375,5.452245235443115,-2.9653751850128174,7.597083568572998
1700935701041978000,18.03497802734375,5.4529242515563965,-2.9636175632476807,7.5972819328308105
1700935701058969000,18.051968994140626,5.452482223510742,-2.9617037773132324,7.598345756530762
1700935701075961900,18.0689619140625,5.4493818283081055,-2.959618091583252,7.601383209228516
1700935701092951800,18.085951904296873,5.445931911468506,-2.9589319229125977,7.604121208190918
1700935701109944800,18.10294482421875,5.443446159362793,-2.959634304046631,7.60562801361084
1700935701126935000,18.11993505859375,5.4413957595825195,-2.9586806297302246,7.607465744018555
1700935701143927600,18.136927490234374,5.437480926513672,-2.9564225673675537,7.611142158508301
1700935701160917800,18.153917724609375,5.431268215179443,-2.9548583030700684,7.616183280944824
1700935701177900300,18.170900390625,5.424962520599365,-2.9537298679351807,7.6211137771606445
1700935701194901000,18.18790087890625,5.4194416999816895,-2.9529943466186523,7.6253252029418945
1700935701211894000,18.20489404296875,5.4140777587890625,-2.9553401470184326,7.628227710723877
1700935701228874000,18.2218740234375,5.408451557159424,-2.959599018096924,7.630566596984863
1700935701245876700,18.238876708984375,5.401857376098633,-2.964507818222046,7.633330345153809
1700935701262863400,18.25586328125,5.396883010864258,-2.9697751998901367,7.634801387786865
1700935701279860500,18.272860595703126,5.395044803619385,-2.973788261413574,7.634539604187012
1700935701296850000,18.289849853515626,5.395427227020264,-2.974318504333496,7.634061813354492
1700935701313843000,18.306843017578124,5.395658016204834,-2.9710259437561035,7.635180473327637
1700935701330833400,18.32383349609375,5.394233226776123,-2.967073440551758,7.63772439956665
1700935701347815000,18.34081494140625,5.39223051071167,-2.965778350830078,7.639641284942627
1700935701364813800,18.357813720703124,5.3892083168029785,-2.967282295227051,7.6411895751953125
1700935701381811700,18.374811767578127,5.3863420486450195,-2.9696357250213623,7.642295837402344
1700935701398800000,18.3917998046875,5.3848676681518555,-2.9715700149536133,7.642583847045898
1700935701415792400,18.40879248046875,5.384589672088623,-2.971421003341675,7.6428375244140625
1700935701432782300,18.4257822265625,5.384007453918457,-2.969485282897949,7.644000053405762
1700935701449764600,18.4427646484375,5.382690906524658,-2.9703619480133057,7.644586563110352
1700935701466765600,18.459765625,5.380914688110352,-2.9742910861968994,7.644309997558594
1700935701483758800,18.4767587890625,5.376589775085449,-2.9775500297546387,7.646083354949951
1700935701500748800,18.493748779296876,5.3718461990356445,-2.9788269996643066,7.648919582366943
1700935701517741600,18.510741455078126,5.370591163635254,-2.9792871475219727,7.649621486663818
1700935701534732300,18.527732177734375,5.37199068069458,-2.978086471557617,7.649107456207275
1700935701551725000,18.54472509765625,5.373420715332031,-2.9743990898132324,7.6495361328125
1700935701568714800,18.56171484375,5.372778415679932,-2.972599744796753,7.650687217712402
1700935701585705500,18.57870556640625,5.37004280090332,-2.974062919616699,7.652040004730225
1700935701602700300,18.5957001953125,5.363894939422607,-2.975923776626587,7.65562629699707
1700935701619674600,18.612674560546875,5.355381965637207,-2.976717948913574,7.661275863647461
1700935701636681000,18.629680908203124,5.348892688751221,-2.977710723876953,7.665422439575195
1700935701653671200,18.646671142578125,5.346083164215088,-2.978867530822754,7.666932582855225
1700935701670667000,18.6636669921875,5.345137119293213,-2.978463649749756,7.667748928070068
1700935701687657000,18.680656982421876,5.3440165519714355,-2.9755966663360596,7.669642448425293
1700935701704647000,18.69764697265625,5.341606140136719,-2.973663806915283,7.6720709800720215
1700935701721640200,18.71464013671875,5.338021755218506,-2.973947286605835,7.67445707321167
1700935701738630400,18.73163037109375,5.332499980926514,-2.974635362625122,7.678027153015137
1700935701755623400,18.74862353515625,5.323823928833008,-2.975937604904175,7.683541297912598
1700935701772613000,18.765613037109375,5.31534481048584,-2.978886365890503,7.688266754150391
1700935701789606000,18.78260595703125,5.310658931732178,-2.9849534034729004,7.689152717590332
1700935701806596400,18.799596435546874,5.312328815460205,-2.990548849105835,7.685823917388916
1700935701823579400,18.816579345703126,5.317091464996338,-2.9939472675323486,7.681206703186035
1700935701840579600,18.83357958984375,5.320569038391113,-2.9962072372436523,7.677917003631592
1700935701857572400,18.850572265625,5.322014331817627,-2.9979188442230225,7.6762471199035645
1700935701874562600,18.8675625,5.321627140045166,-2.9997360706329346,7.675804138183594
1700935701891555600,18.8845556640625,5.3219075202941895,-3.0029795169830322,7.674342155456543
1700935701908545500,18.901545654296875,5.324819564819336,-3.0076751708984375,7.6704816818237305
1700935701925538600,18.91853857421875,5.332310199737549,-3.011897087097168,7.663619518280029
1700935701942529000,18.935529052734374,5.341191291809082,-3.0128285884857178,7.657065391540527
1700935701959521800,18.952521728515624,5.348527908325195,-3.0120179653167725,7.652262210845947
1700935701976496000,18.96949609375,5.355691909790039,-3.011586904525757,7.647419452667236
1700935701993504800,18.9865048828125,5.361380577087402,-3.0118746757507324,7.6433186531066895
1700935702010495200,19.0034951171875,5.363500118255615,-3.0138401985168457,7.641057014465332
1700935702027487700,19.02048779296875,5.362037181854248,-3.0172691345214844,7.640729904174805
1700935702044478000,19.03747802734375,5.360224723815918,-3.021962881088257,7.6401472091674805
1700935702061470700,19.054470703125,5.359000205993652,-3.026654005050659,7.639149188995361
1700935702078459000,19.071458984375,5.357429027557373,-3.0287625789642334,7.639415740966797
1700935702095456500,19.08845654296875,5.356757164001465,-3.026883125305176,7.640631198883057
1700935702112444000,19.10544384765625,5.357899188995361,-3.0230910778045654,7.641331195831299
1700935702129426200,19.12242626953125,5.360191822052002,-3.01973557472229,7.641050338745117
1700935702146427600,19.139427734375,5.36077880859375,-3.0164575576782227,7.641933441162109
1700935702163420200,19.156420166015625,5.359323978424072,-3.0137779712677,7.644010543823242
1700935702180410400,19.173410400390626,5.357050895690918,-3.0136311054229736,7.645662784576416
1700935702197403100,19.190403076171876,5.356601715087891,-3.0147180557250977,7.645547389984131
1700935702214393900,19.207393798828125,5.357666015625,-3.0152809619903564,7.644579887390137
1700935702231392000,19.22439208984375,5.359861373901367,-3.0152878761291504,7.643038749694824
1700935702248375000,19.241375,5.363924026489258,-3.015213966369629,7.6402177810668945
1700935702265369000,19.258369140625,5.367756366729736,-3.0152881145477295,7.637495517730713
1700935702282359800,19.27535986328125,5.371176719665527,-3.014455556869507,7.635420799255371
1700935702299351000,19.29235107421875,5.373508453369141,-3.01212739944458,7.634697437286377
1700935702316344300,19.30934423828125,5.375642776489258,-3.010807514190674,7.633715629577637
1700935702333335600,19.32633544921875,5.378468990325928,-3.013518810272217,7.630654335021973
1700935702350326000,19.343325927734377,5.380446910858154,-3.0182976722717285,7.627370357513428
1700935702367318500,19.360318603515626,5.381374835968018,-3.0211915969848633,7.625571250915527
1700935702384308700,19.377308837890624,5.383526802062988,-3.022296667098999,7.623612880706787
1700935702401301000,19.394301025390625,5.389678955078125,-3.0229668617248535,7.618999481201172
1700935702418282000,19.411281982421876,5.398440837860107,-3.0220727920532227,7.613148212432861
1700935702435279600,19.428279541015623,5.407464504241943,-3.017946720123291,7.60837984085083
1700935702452275200,19.445275146484374,5.415546894073486,-3.0128495693206787,7.604650020599365
1700935702469267700,19.462267822265623,5.422229766845703,-3.00992751121521,7.601043701171875
1700935702486258200,19.479258056640624,5.426898956298828,-3.0094311237335205,7.597908020019531
1700935702503240400,19.496240478515624,5.429717540740967,-3.0090103149414062,7.596060752868652
1700935702520241200,19.5132412109375,5.432701587677002,-3.008678436279297,7.594058036804199
1700935702537234200,19.530234130859377,5.435573577880859,-3.008636713027954,7.592020034790039
1700935702554224600,19.547224609375,5.4371113777160645,-3.0092122554779053,7.5906901359558105
1700935702571215400,19.56421533203125,5.4377031326293945,-3.009052038192749,7.590329647064209
1700935702588209400,19.58120947265625,5.4372334480285645,-3.00803542137146,7.59106969833374
1700935702605190000,19.59818994140625,5.436439037322998,-3.0070533752441406,7.592026710510254
1700935702622190300,19.6151904296875,5.435202121734619,-3.00618577003479,7.59325647354126
1700935702639183400,19.632183349609374,5.434273719787598,-3.005777359008789,7.594082355499268
1700935702656162800,19.649162841796876,5.434648513793945,-3.0065670013427734,7.593501091003418
1700935702673166300,19.666166259765625,5.435085296630859,-3.0066754817962646,7.593145370483398
1700935702690157000,19.683156982421874,5.433242321014404,-3.0069503784179688,7.594356060028076
1700935702707149800,19.70014990234375,5.430097579956055,-3.0084049701690674,7.5960283279418945
1700935702724139500,19.717139404296876,5.428763389587402,-3.010164260864258,7.596285820007324
1700935702741132300,19.73413232421875,5.428093433380127,-3.010044813156128,7.596810340881348
1700935702758122800,19.751122802734375,5.4269843101501465,-3.0099844932556152,7.597628116607666
1700935702775116000,19.768115966796874,5.426120281219482,-3.0120701789855957,7.597417831420898
1700935702792106000,19.78510595703125,5.426078796386719,-3.0151119232177734,7.596240997314453
1700935702809098800,19.8020986328125,5.426699161529541,-3.017504930496216,7.594847202301025
1700935702826089200,19.819089111328125,5.428286075592041,-3.0199966430664062,7.592723369598389
1700935702843071500,19.836071533203125,5.431349754333496,-3.0205788612365723,7.590301513671875
1700935702860072000,19.853072021484376,5.433342933654785,-3.0199167728424072,7.589136123657227
1700935702877063200,19.870063232421874,5.4328932762146,-3.0205414295196533,7.58920955657959
1700935702894057000,19.887056884765624,5.430445194244385,-3.0240674018859863,7.589557647705078
1700935702911038000,19.904037841796875,5.428852081298828,-3.0303163528442383,7.588204383850098
1700935702928038100,19.9210380859375,5.4261064529418945,-3.0355098247528076,7.588093280792236
1700935702945031700,19.93803173828125,5.424705505371094,-3.036574602127075,7.5886688232421875
1700935702962021000,19.955021240234377,5.427131652832031,-3.033513069152832,7.588159084320068
1700935702979014400,19.972014404296875,5.432483196258545,-3.02909255027771,7.586094856262207
1700935702996004400,19.98900439453125,5.436875343322754,-3.0255308151245117,7.584370136260986
1700935703012997400,20.005997314453126,5.438615322113037,-3.023963451385498,7.583747863769531
1700935703029987800,20.02298779296875,5.439889430999756,-3.0245816707611084,7.582586765289307
1700935703046980600,20.039980712890625,5.440576076507568,-3.0277392864227295,7.580833435058594
1700935703063970600,20.056970458984374,5.440646171569824,-3.0312182903289795,7.579392910003662
1700935703080963600,20.073963623046875,5.4401326179504395,-3.0334601402282715,7.578864097595215
1700935703097949400,20.090949462890624,5.4400787353515625,-3.036120653152466,7.577837944030762
1700935703114948600,20.107948486328127,5.44152307510376,-3.03824782371521,7.575948238372803
1700935703131939000,20.12493896484375,5.442496299743652,-3.0395987033843994,7.57470703125
1700935703148929800,20.1419296875,5.442131996154785,-3.0410170555114746,7.574399471282959
1700935703165920000,20.158919921875,5.439182758331299,-3.0418620109558105,7.576179027557373
1700935703182912800,20.175912841796876,5.433448791503906,-3.0424134731292725,7.5800700187683105
1700935703199903000,20.192903076171874,5.4286346435546875,-3.043041467666626,7.583266735076904
1700935703216895500,20.2098955078125,5.428330898284912,-3.043609857559204,7.583256721496582
1700935703233886500,20.226886474609376,5.432236671447754,-3.0445008277893066,7.580101490020752
1700935703250879200,20.243879150390626,5.43675422668457,-3.0440382957458496,7.577048301696777
1700935703267869000,20.260868896484375,5.439067840576172,-3.041553020477295,7.576384544372559
1700935703284862200,20.2778623046875,5.438265323638916,-3.0385780334472656,7.578154563903809
1700935703301852700,20.294852783203126,5.43801736831665,-3.037203788757324,7.578883647918701
1700935703318845200,20.31184521484375,5.4391326904296875,-3.037057876586914,7.5781402587890625
1700935703335835100,20.328835205078125,5.439918041229248,-3.0354185104370117,7.578235149383545
1700935703352827600,20.34582763671875,5.440739154815674,-3.0329220294952393,7.578644275665283
1700935703369819000,20.36281884765625,5.441793918609619,-3.0312516689300537,7.578555583953857
1700935703386812000,20.37981201171875,5.443274021148682,-3.028574228286743,7.578563690185547
1700935703403801300,20.39680126953125,5.444944381713867,-3.0239012241363525,7.579228401184082
1700935703420794000,20.413794189453125,5.446455955505371,-3.0201709270477295,7.579630374908447
1700935703437785000,20.43078515625,5.447244644165039,-3.020359754562378,7.578988075256348
1700935703454777900,20.44777783203125,5.444889068603516,-3.022251844406128,7.579926490783691
1700935703471767300,20.464767333984376,5.43880558013916,-3.023930788040161,7.583623886108398
1700935703488758500,20.481758544921874,5.434983253479004,-3.02606201171875,7.585513591766357
1700935703505750800,20.498750732421875,5.437057018280029,-3.0270297527313232,7.583641529083252
1700935703522743800,20.515743896484373,5.441723346710205,-3.0227720737457275,7.5819926261901855
1700935703539734500,20.532734619140626,5.447094917297363,-3.016326665878296,7.5807013511657715
1700935703556718000,20.549718017578126,5.45131778717041,-3.0126566886901855,7.579126358032227
1700935703573714700,20.566714599609377,5.452635288238525,-3.0126705169677734,7.5781731605529785
1700935703590710000,20.5837099609375,5.450655460357666,-3.0138750076293945,7.579117774963379
1700935703607700000,20.600699951171876,5.4475626945495605,-3.0149455070495605,7.580915927886963
1700935703624692700,20.617692626953126,5.44730281829834,-3.0164120197296143,7.580519199371338
1700935703641683700,20.63468359375,5.450281620025635,-3.018341541290283,7.577608585357666
1700935703658676500,20.651676513671877,5.452818393707275,-3.0194268226623535,7.575352191925049
1700935703675666200,20.668666259765626,5.454719543457031,-3.0208683013916016,7.5734076499938965
1700935703692659000,20.685658935546876,5.455325603485107,-3.022376298904419,7.57236909866333
1700935703709649700,20.702649658203125,5.452203750610352,-3.023338556289673,7.5742340087890625
1700935703726642400,20.719642333984375,5.447160720825195,-3.0243496894836426,7.577457427978516
1700935703743632400,20.73663232421875,5.442927837371826,-3.025465488433838,7.580052852630615
1700935703760621000,20.75362109375,5.441680908203125,-3.0248219966888428,7.581204891204834
1700935703777615600,20.77061572265625,5.441330432891846,-3.0237133502960205,7.581899642944336
1700935703794611000,20.78761083984375,5.440545082092285,-3.024188280105591,7.582273006439209
1700935703811596300,20.80459619140625,5.439504146575928,-3.0258243083953857,7.582367897033691
1700935703828591400,20.82159130859375,5.438146591186523,-3.026456356048584,7.583088397979736
1700935703845582000,20.83858203125,5.43538236618042,-3.0266599655151367,7.584988594055176
1700935703862577700,20.85557763671875,5.433290958404541,-3.02691388130188,7.586385250091553
1700935703879562500,20.8725625,5.432877540588379,-3.027693033218384,7.586370944976807
1700935703896560000,20.88956005859375,5.431027412414551,-3.0289011001586914,7.587213039398193
1700935703913548000,20.906548095703126,5.426615238189697,-3.0293784141540527,7.590179920196533
1700935703930540800,20.923540771484376,5.423637866973877,-3.0304439067840576,7.591882228851318
1700935703947531000,20.940531005859373,5.424232482910156,-3.0323123931884766,7.5907111167907715
1700935703964523800,20.957523681640627,5.423498153686523,-3.032620906829834,7.591113567352295
1700935703981504000,20.97450390625,5.419180393218994,-3.0322413444519043,7.59434700012207
1700935703998507500,20.991507568359374,5.414357662200928,-3.0363998413085938,7.59612512588501
1700935704015495200,21.0084951171875,5.408289432525635,-3.043243646621704,7.5977091789245605
1700935704032492300,21.0254921875,5.399189472198486,-3.0483651161193848,7.602126598358154
1700935704049480400,21.04248046875,5.391811847686768,-3.0510051250457764,7.606302738189697
1700935704066473500,21.059473388671876,5.390805721282959,-3.050854206085205,7.607077121734619
1700935704083463400,21.07646337890625,5.392886638641357,-3.047337293624878,7.607010364532471
1700935704100456400,21.09345654296875,5.392773151397705,-3.041987180709839,7.609232425689697
1700935704117447000,21.110447021484376,5.389062404632568,-3.039727210998535,7.61276388168335
1700935704134439400,21.127439453125,5.384068965911865,-3.042675018310547,7.615119457244873
1700935704151430000,21.144429931640627,5.3792314529418945,-3.048705577850342,7.616125583648682
1700935704168422700,21.161422607421876,5.373948097229004,-3.0523903369903564,7.618379592895508
1700935704185412900,21.178412841796874,5.368308067321777,-3.0525190830230713,7.6223039627075195
1700935704202405600,21.195405517578124,5.3651041984558105,-3.052478790283203,7.624574661254883
1700935704219395600,21.2123955078125,5.364024639129639,-3.055089235305786,7.624289035797119
1700935704236388900,21.229388916015626,5.361515045166016,-3.0589792728424072,7.6244940757751465
1700935704253379000,21.246379150390624,5.358913898468018,-3.0617096424102783,7.625227928161621
1700935704270371800,21.263371826171873,5.357280731201172,-3.0634264945983887,7.625686168670654
1700935704287362300,21.2803623046875,5.355944633483887,-3.0634713172912598,7.62660551071167
1700935704304354800,21.297354736328124,5.355226039886475,-3.063925266265869,7.626928329467773
1700935704321345300,21.31434521484375,5.35445499420166,-3.0649664402008057,7.627050399780273
1700935704338327600,21.33132763671875,5.352875232696533,-3.065253734588623,7.628044128417969
1700935704355328300,21.348328369140624,5.350679874420166,-3.064701795578003,7.629805088043213
1700935704372317000,21.36531689453125,5.348939418792725,-3.0617992877960205,7.632192134857178
1700935704389307400,21.382307373046874,5.349071025848389,-3.0584490299224854,7.6334428787231445
1700935704406302200,21.39930224609375,5.350618839263916,-3.055950403213501,7.633358955383301
1700935704423297000,21.416297119140626,5.350683212280273,-3.0543105602264404,7.633970260620117
1700935704440287500,21.43328759765625,5.348953723907471,-3.0516397953033447,7.636250019073486
1700935704457277700,21.450277587890625,5.347951889038086,-3.0486793518066406,7.638134002685547
1700935704474270700,21.467270751953127,5.348234176635742,-3.0470621585845947,7.638579845428467
1700935704491260700,21.4842607421875,5.348803997039795,-3.0448756217956543,7.6390533447265625
1700935704508253700,21.501253662109374,5.349417686462402,-3.041029691696167,7.640155792236328
1700935704525244200,21.518244140625,5.350147724151611,-3.037764549255371,7.64094352722168
1700935704542237000,21.53523681640625,5.349791526794434,-3.036574363708496,7.641666889190674
1700935704559227100,21.55222705078125,5.3477935791015625,-3.0381038188934326,7.642457008361816
1700935704576220000,21.569219970703124,5.344879627227783,-3.04079532623291,7.6434245109558105
1700935704593215200,21.58621533203125,5.342548370361328,-3.0428783893585205,7.644225597381592
1700935704610203100,21.603203125,5.341028213500977,-3.0435478687286377,7.645021915435791
1700935704627193300,21.620193359375,5.341890335083008,-3.042365550994873,7.644888401031494
1700935704644186000,21.63718603515625,5.347400665283203,-3.0396692752838135,7.642108917236328
1700935704661184800,21.654184814453124,5.353752613067627,-3.037627696990967,7.638473033905029
1700935704678165800,21.671165771484375,5.357200622558594,-3.0378315448760986,7.635973930358887
1700935704695159300,21.6881591796875,5.358028411865234,-3.0401058197021484,7.634487628936768
1700935704712152000,21.705152099609375,5.358956813812256,-3.0431180000305176,7.632635116577148
1700935704729127400,21.72212744140625,5.36047887802124,-3.0467607975006104,7.630112648010254
1700935704746135800,21.7391357421875,5.360726356506348,-3.0498836040496826,7.628691673278809
1700935704763125500,21.75612548828125,5.36031436920166,-3.0511298179626465,7.628482341766357
1700935704780115700,21.77311572265625,5.361112117767334,-3.0508899688720703,7.628018379211426
1700935704797121000,21.79012109375,5.362825870513916,-3.051198959350586,7.6266889572143555
1700935704814087000,21.8070869140625,5.363515377044678,-3.0522537231445312,7.625782489776611
1700935704831091700,21.824091796875,5.3617448806762695,-3.052652597427368,7.626867294311523
1700935704848084500,21.84108447265625,5.359436511993408,-3.052461624145508,7.628566741943359
1700935704865075500,21.858075439453124,5.358787536621094,-3.0519344806671143,7.629233360290527
1700935704882068200,21.875068115234374,5.3605265617370605,-3.0509135723114014,7.628420352935791
1700935704899058200,21.89205810546875,5.361689567565918,-3.0487358570098877,7.628474235534668
1700935704916051000,21.909051025390625,5.361902236938477,-3.0467445850372314,7.629119873046875
1700935704933041400,21.92604150390625,5.361702919006348,-3.0459067821502686,7.629594802856445
1700935704950034200,21.9430341796875,5.361184120178223,-3.0460855960845947,7.62988805770874
1700935704967024400,21.9600244140625,5.361043930053711,-3.046741008758545,7.629724502563477
1700935704984017000,21.977016845703126,5.361846923828125,-3.0460307598114014,7.629444599151611
1700935705001007600,21.994007568359375,5.365237712860107,-3.0434679985046387,7.628082752227783
1700935705018000600,22.011000732421873,5.370215892791748,-3.0408637523651123,7.625617504119873
1700935705034990600,22.027990478515626,5.373631000518799,-3.038602828979492,7.624113082885742
1700935705051983400,22.0449833984375,5.37556791305542,-3.0363805294036865,7.623632907867432
