time,seconds_elapsed,z,y,x
1700852473973103900,0.103103759765625,-2.9925594329833984,-1.6221556663513184,-0.018259525299072266
1700852473990094800,0.1200947265625,-4.159423828125,-1.9567012786865234,-0.30274856090545654
1700852474007094300,0.13709423828125,-5.014076232910156,-2.544400215148926,-0.44774699211120605
1700852474024074000,0.154073974609375,-4.929438591003418,-3.0906219482421875,-0.5606346130371094
1700852474041067500,0.171067626953125,-3.6076197624206543,-3.957425832748413,-0.8421647548675537
1700852474058060300,0.188060302734375,-1.700676441192627,-4.866591930389404,-1.2107033729553223
1700852474075047000,0.205046875,-1.2635269165039062,-5.584379196166992,-1.9551787376403809
1700852474092041000,0.222041015625,-3.4700844287872314,-6.30544900894165,-2.1839847564697266
1700852474109031200,0.23903125,-5.76186466217041,-6.720110893249512,-2.167327880859375
1700852474126023700,0.256023681640625,-5.932070255279541,-7.2166619300842285,-2.367593288421631
1700852474143010300,0.27301025390625,-2.773717164993286,-7.651967525482178,-2.224888324737549
1700852474160003600,0.290003662109375,1.6490366458892822,-7.949753761291504,-1.1935749053955078
1700852474176996400,0.306996337890625,2.4925436973571777,-7.619466781616211,0.11679935455322266
1700852474193976000,0.32397607421875,-1.67695152759552,-7.322637557983398,1.8011465072631836
1700852474210966300,0.34096630859375,-3.640738010406494,-6.536351203918457,2.566061019897461
1700852474227963000,0.357962890625,-2.5588343143463135,-5.937551021575928,2.3121538162231445
1700852474244957700,0.374957763671875,1.18510103225708,-5.245420455932617,2.9398813247680664
1700852474261935900,0.391935791015625,4.624707221984863,-4.3245439529418945,5.001197814941406
1700852474278942000,0.40894189453125,5.574074745178223,-3.391997814178467,7.2962188720703125
1700852474295937000,0.42593701171875,4.0344719886779785,-2.3112640380859375,8.021554946899414
1700852474312920800,0.4429208984375,1.0922026634216309,-1.33395516872406,7.773032188415527
1700852474329912800,0.459912841796875,-1.32243013381958,-0.5317022800445557,7.8511152267456055
1700852474346905300,0.4769052734375,-2.051558494567871,0.13554716110229492,8.961132049560547
1700852474363892700,0.493892822265625,-1.3295152187347412,0.7399780750274658,8.53023910522461
1700852474380891100,0.51089111328125,-0.09789195656776428,1.603677749633789,7.092609405517578
1700852474397880000,0.527880126953125,0.8304947018623352,1.9847095012664795,6.344027519226074
1700852474414862600,0.544862548828125,1.2134044170379639,2.3277478218078613,6.294519424438477
1700852474431848200,0.56184814453125,1.3739612102508545,2.4722342491149902,8.397356033325195
1700852474448851700,0.578851806640625,0.5540931224822998,3.3657195568084717,10.27716064453125
1700852474465838600,0.595838623046875,-1.160449743270874,4.59552001953125,9.781560897827148
1700852474482828800,0.612828857421875,-2.846987247467041,5.4750566482543945,9.02015495300293
1700852474499821600,0.629821533203125,-3.41102933883667,6.173206806182861,8.608919143676758
1700852474516814300,0.646814453125,-2.975813865661621,6.530567646026611,8.683643341064453
1700852474533800700,0.66380078125,-2.1175618171691895,6.562086582183838,9.631635665893555
1700852474550778600,0.680778564453125,-1.3734955787658691,7.090579509735107,9.9591064453125
1700852474567786500,0.697786376953125,-1.6296579837799072,7.55564546585083,9.208026885986328
1700852474584767000,0.71476708984375,-2.4624063968658447,7.6812424659729,8.237287521362305
1700852474601754400,0.73175439453125,-3.51932430267334,7.640894412994385,7.558021068572998
1700852474618760200,0.74876025390625,-3.954951763153076,7.483831405639648,7.155745506286621
1700852474635750100,0.765750244140625,-3.4098925590515137,7.224674224853516,7.160693645477295
1700852474652737000,0.782737060546875,-2.4375052452087402,6.908951759338379,7.635372161865234
1700852474669730300,0.799730224609375,-2.065706729888916,6.6874260902404785,7.464755058288574
1700852474686720500,0.816720458984375,-2.5458788871765137,6.06142520904541,6.940004348754883
1700852474703705300,0.833705322265625,-3.21596622467041,5.259713172912598,6.616244792938232
1700852474720705000,0.850705078125,-2.7313241958618164,4.567086219787598,6.790471076965332
1700852474737692200,0.867692138671875,-1.792178988456726,4.186466693878174,7.370759963989258
1700852474754685000,0.884684814453125,-0.924831748008728,3.609992027282715,7.924544811248779
1700852474771665700,0.901665771484375,-0.503531813621521,2.921025276184082,8.011116027832031
1700852474788667400,0.91866748046875,-0.20740246772766113,2.097259998321533,7.663796424865723
1700852474805655600,0.935655517578125,0.35732781887054443,0.9662213325500488,7.884388446807861
1700852474822644500,0.95264453125,1.058274269104004,-0.22193527221679688,9.333307266235352
1700852474839639300,0.969639404296875,0.9527771472930908,-1.031327724456787,10.805269241333008
1700852474856624600,0.986624755859375,-0.04107499122619629,-1.1939544677734375,10.61626148223877
1700852474873622500,1.00362255859375,-0.933478832244873,-1.6855154037475586,9.277381896972656
1700852474890626300,1.020626220703125,-0.8047159314155579,-2.7235002517700195,7.913178443908691
1700852474907602200,1.037602294921875,0.8454244136810303,-4.160438537597656,6.889230728149414
1700852474924593700,1.05459375,2.4915127754211426,-5.396573543548584,6.242105484008789
1700852474941580800,1.071580810546875,3.4121646881103516,-5.816610336303711,5.600588798522949
1700852474958573600,1.088573486328125,3.3776583671569824,-5.525007247924805,3.90535831451416
1700852474975565000,1.10556494140625,2.810647964477539,-5.006505012512207,1.8359413146972656
1700852474992548900,1.122548828125,2.5316333770751953,-4.6673784255981445,0.17550277709960938
1700852475009546200,1.139546142578125,2.885667324066162,-4.348267555236816,-0.9999933242797852
1700852475026539800,1.156539794921875,3.280636787414551,-4.144131660461426,-2.00655460357666
1700852475043523000,1.173523193359375,3.5169639587402344,-3.9707565307617188,-2.9456467628479004
1700852475060520200,1.190520263671875,3.136174201965332,-3.9189701080322266,-3.754331588745117
1700852475077511000,1.207510986328125,3.392462730407715,-3.8053603172302246,-4.483487606048584
1700852475094502400,1.22450244140625,3.494166135787964,-3.8247311115264893,-5.18964147567749
1700852475111494700,1.24149462890625,3.6180131435394287,-3.8157012462615967,-5.827998161315918
1700852475128483800,1.25848388671875,3.8162550926208496,-3.7729992866516113,-6.145989418029785
1700852475145474800,1.275474853515625,4.304383277893066,-3.9185643196105957,-5.17094087600708
1700852475162465300,1.29246533203125,4.754754066467285,-3.957829236984253,-4.242908954620361
1700852475179456800,1.309456787109375,4.465037822723389,-4.1407270431518555,-4.528063774108887
1700852475196446500,1.326446533203125,3.9003725051879883,-4.343467712402344,-5.2913899421691895
1700852475213430800,1.3434306640625,3.9590158462524414,-4.4311203956604,-5.3256425857543945
1700852475230429200,1.36042919921875,3.944700241088867,-4.866240501403809,-4.871517658233643
1700852475247404300,1.377404296875,4.306977272033691,-5.094898223876953,-4.284705638885498
1700852475264404700,1.39440478515625,4.342376708984375,-5.3136701583862305,-3.7689342498779297
1700852475281405400,1.411405517578125,3.814265251159668,-5.322551727294922,-3.6520419120788574
1700852475298393300,1.428393310546875,2.885962724685669,-5.14640998840332,-3.8493733406066895
1700852475315381200,1.44538134765625,2.347928762435913,-5.186452865600586,-3.449598789215088
1700852475332376600,1.46237646484375,2.954573392868042,-5.3785481452941895,-2.13470458984375
1700852475349365500,1.479365478515625,3.0073189735412598,-5.930549144744873,-0.6933374404907227
1700852475366354000,1.49635400390625,2.360661029815674,-6.130394458770752,-0.7800636291503906
1700852475383339300,1.51333935546875,1.5621075630187988,-5.887388229370117,-1.6275148391723633
1700852475400338400,1.53033837890625,0.49451422691345215,-6.141747951507568,-1.7120661735534668
1700852475417330700,1.54733056640625,-0.11524367332458496,-6.516809463500977,-0.5990667343139648
1700852475434317300,1.5643173828125,0.30983906984329224,-6.22125768661499,0.8441495895385742
1700852475451307800,1.581307861328125,0.6274405121803284,-5.877241134643555,2.498046875
1700852475468305200,1.59830517578125,0.2623369097709656,-5.519291400909424,3.6319494247436523
1700852475485290200,1.615290283203125,-0.155514657497406,-5.113437175750732,4.666237831115723
1700852475502275000,1.632275146484375,-0.6631366610527039,-4.62973690032959,5.6690473556518555
1700852475519263700,1.649263671875,-1.0206090211868286,-4.137303829193115,6.411285400390625
1700852475536269000,1.66626904296875,-0.842018723487854,-3.222902536392212,7.240246772766113
1700852475553251600,1.68325146484375,-0.580912709236145,-1.9024872779846191,7.771677017211914
1700852475570247200,1.7002470703125,-0.7608451843261719,-0.1589517593383789,6.904665946960449
1700852475587239700,1.71723974609375,-1.2409191131591797,1.285921573638916,5.520936012268066
1700852475604226300,1.734226318359375,-1.3250924348831177,2.427309989929199,4.412923336029053
1700852475621219800,1.7512197265625,-1.5063037872314453,3.3288767337799072,3.5150647163391113
1700852475638212400,1.76821240234375,-1.4356772899627686,4.106869697570801,3.129436492919922
1700852475655198700,1.78519873046875,-1.2148905992507935,4.757319450378418,3.9977850914001465
1700852475672193000,1.802193115234375,-0.918278694152832,5.559284687042236,4.2403059005737305
1700852475689181700,1.819181640625,-1.2832566499710083,5.938416957855225,3.6853575706481934
1700852475706172400,1.83617236328125,-1.7746785879135132,6.07785701751709,3.282449245452881
1700852475723162600,1.85316259765625,-2.10337495803833,6.262999534606934,3.192526340484619
1700852475740156000,1.870156005859375,-2.4396770000457764,6.306221961975098,3.7300777435302734
1700852475757138200,1.88713818359375,-2.353999137878418,6.628118991851807,5.280311584472656
1700852475774135000,1.904135009765625,-2.1428966522216797,7.340625286102295,6.25364875793457
1700852475791128800,1.92112890625,-2.6772024631500244,7.626796722412109,6.345171928405762
1700852475808127500,1.93812744140625,-2.9072508811950684,7.749523162841797,6.211681365966797
1700852475825108000,1.95510791015625,-2.5131049156188965,7.781948089599609,6.090043544769287
1700852475842102000,1.97210205078125,-1.7442888021469116,7.430426597595215,6.451294422149658
1700852475859092000,1.989092041015625,-0.7171584963798523,7.083125591278076,7.845809459686279
1700852475876082200,2.006082275390625,-0.19995445013046265,7.323432445526123,8.217639923095703
1700852475893074000,2.023073974609375,-0.6883882284164429,7.094292163848877,8.286741256713867
1700852475910064600,2.040064697265625,-1.6770821809768677,7.01533842086792,7.8208723068237305
1700852475927057400,2.057057373046875,-2.499701976776123,6.295888423919678,7.573703289031982
1700852475944043800,2.074043701171875,-2.0478315353393555,4.409743309020996,8.063234329223633
1700852475961026800,2.09102685546875,-1.0977026224136353,2.1507568359375,8.882951736450195
1700852475978027800,2.10802783203125,-0.24711507558822632,0.9050097465515137,9.584854125976562
1700852475995004400,2.12500439453125,-0.5418517589569092,0.8617992401123047,10.039604187011719
1700852476012000000,2.142,-1.5793817043304443,0.9351158142089844,9.844734191894531
1700852476029000000,2.159,-1.7252918481826782,0.29544878005981445,9.764093399047852
1700852476045994200,2.175994140625,-0.776168704032898,-1.3226251602172852,9.829662322998047
1700852476062980000,2.19297998046875,0.7208784222602844,-3.6156792640686035,9.817010879516602
1700852476079973400,2.209973388671875,1.7757631540298462,-5.685070514678955,10.095773696899414
1700852476096962300,2.22696240234375,1.9618157148361206,-6.579472541809082,9.949949264526367
1700852476113957600,2.24395751953125,1.6744436025619507,-6.304590225219727,8.406299591064453
1700852476130937900,2.260937744140625,1.6054885387420654,-5.536768436431885,6.406248092651367
1700852476147938000,2.27793798828125,1.947650671005249,-4.782219886779785,4.0567426681518555
1700852476164928000,2.294927978515625,2.518096446990967,-4.543576240539551,1.9966230392456055
1700852476181922600,2.311922607421875,2.70037579536438,-4.639367580413818,0.18314075469970703
1700852476198922200,2.328922119140625,2.9086861610412598,-4.7364091873168945,-1.1799507141113281
1700852476215902000,2.34590185546875,3.311450242996216,-4.460329532623291,-2.2568631172180176
1700852476232888800,2.362888916015625,3.456660747528076,-4.081625461578369,-3.641374111175537
1700852476249882000,2.379882080078125,3.0767500400543213,-3.865029811859131,-4.852136135101318
1700852476266874600,2.39687451171875,2.8853919506073,-3.582976818084717,-5.843997955322266
1700852476283861500,2.413861572265625,3.058802604675293,-3.3993237018585205,-6.344413757324219
1700852476300848600,2.4308486328125,3.1992695331573486,-3.447214365005493,-6.524709701538086
1700852476317847300,2.447847412109375,3.1557774543762207,-3.4713189601898193,-6.392789840698242
1700852476334834200,2.464834228515625,3.2444207668304443,-3.3571970462799072,-6.227509498596191
1700852476351817000,2.48181689453125,3.2544736862182617,-3.3817150592803955,-6.137958526611328
1700852476368817000,2.49881689453125,3.122103452682495,-3.61273455619812,-6.091467380523682
1700852476385812700,2.515812744140625,3.0496621131896973,-3.751072883605957,-6.3890557289123535
1700852476402797800,2.5327978515625,3.12776517868042,-3.948345184326172,-6.644935607910156
1700852476419790800,2.549790771484375,3.2888669967651367,-4.316627502441406,-6.311990737915039
1700852476436780800,2.56678076171875,3.7110934257507324,-4.908857822418213,-5.275852680206299
1700852476453773000,2.58377294921875,4.303334712982178,-5.38691520690918,-4.24173641204834
1700852476470762500,2.600762451171875,4.2487287521362305,-5.707606315612793,-3.9468955993652344
1700852476487756000,2.617756103515625,4.031925678253174,-5.673974990844727,-4.187422752380371
1700852476504743000,2.634742919921875,3.6820640563964844,-6.059689044952393,-3.8951034545898438
1700852476521719000,2.651718994140625,2.9257454872131348,-6.644855976104736,-3.208604335784912
1700852476538717700,2.6687177734375,2.4243438243865967,-6.853095054626465,-2.258349895477295
1700852476555715800,2.6857158203125,1.9373583793640137,-6.530663967132568,-1.7376632690429688
1700852476572712400,2.70271240234375,1.0757144689559937,-6.593252182006836,-0.9036340713500977
1700852476589702000,2.719701904296875,-0.223738431930542,-6.48527193069458,-0.6586990356445312
1700852476606686700,2.736686767578125,-1.1365002393722534,-6.595974922180176,-0.8353052139282227
1700852476623675400,2.75367529296875,-1.1228079795837402,-7.369945526123047,0.017014503479003906
1700852476640661500,2.77066162109375,-0.0016908347606658936,-8.087458610534668,2.0426034927368164
1700852476657667300,2.787667236328125,1.0953909158706665,-8.157219886779785,4.334420204162598
1700852476674659300,2.804659423828125,1.1395395994186401,-7.031116962432861,5.285250663757324
1700852476691637000,2.821636962890625,0.7981298565864563,-5.183901786804199,5.1717329025268555
1700852476708624400,2.838624267578125,0.434270977973938,-3.1897671222686768,4.732308387756348
1700852476725621000,2.85562109375,0.1057116687297821,-1.1823234558105469,4.075056076049805
1700852476742606800,2.87260693359375,-0.21655631065368652,0.5535445213317871,3.6679601669311523
1700852476759601200,2.88960107421875,-0.5820389986038208,2.0772297382354736,3.050971031188965
1700852476776601300,2.906601318359375,-0.6304004192352295,2.98923397064209,3.2862048149108887
1700852476793587500,2.92358740234375,-0.3941935896873474,3.82448148727417,4.3270263671875
1700852476810573000,2.940572998046875,-0.1497422456741333,4.187431812286377,4.244540214538574
1700852476827564500,2.957564453125,-0.27799201011657715,3.809403896331787,3.791679859161377
1700852476844563000,2.97456298828125,0.037423551082611084,3.358880043029785,3.6610326766967773
1700852476861544000,2.9915439453125,0.33557671308517456,3.7894339561462402,4.206607341766357
1700852476878544400,3.00854443359375,-0.5382295846939087,4.6163177490234375,5.779455184936523
1700852476895533800,3.025533935546875,-1.8095619678497314,5.769000053405762,7.0890326499938965
1700852476912527000,3.042527099609375,-2.9018282890319824,6.557514190673828,7.714428901672363
1700852476929517000,3.05951708984375,-3.3244194984436035,6.47309684753418,7.807446002960205
1700852476946509600,3.076509521484375,-2.6467056274414062,6.198692321777344,7.482540130615234
1700852476963486000,3.09348583984375,-1.7524898052215576,6.171367168426514,7.342668533325195
1700852476980479000,3.11047900390625,-1.9165070056915283,6.4210309982299805,7.664906978607178
1700852476997479700,3.127479736328125,-1.9705615043640137,6.885231971740723,8.358938217163086
1700852477014467800,3.1444677734375,-1.2320410013198853,7.329736232757568,8.443405151367188
1700852477031455200,3.161455322265625,-0.8490054607391357,7.143949508666992,8.04360580444336
1700852477048455400,3.178455322265625,-1.0704857110977173,6.633367538452148,7.275008201599121
1700852477065445000,3.195445068359375,-1.6879373788833618,5.445199012756348,7.4049458503723145
1700852477082435800,3.212435791015625,-1.85325288772583,3.707054615020752,8.473289489746094
1700852477099426600,3.229426513671875,-0.6652107238769531,2.965407371520996,9.296865463256836
1700852477116415500,3.24641552734375,0.1318269968032837,2.523678779602051,10.623185157775879
1700852477133413400,3.263413330078125,-0.2847181558609009,1.8982667922973633,11.316368103027344
1700852477150403600,3.280403564453125,-0.3956655263900757,0.830411434173584,11.171323776245117
1700852477167387600,3.2973876953125,0.7243298292160034,-1.129045009613037,11.244123458862305
1700852477184374300,3.314374267578125,2.726367473602295,-3.059401512145996,11.528277397155762
1700852477201372000,3.331371826171875,3.3411636352539062,-4.3510589599609375,11.458465576171875
1700852477218363000,3.34836279296875,3.1688175201416016,-4.630670070648193,10.18562126159668
1700852477235353900,3.365353759765625,2.68581485748291,-4.389829158782959,8.063576698303223
1700852477252344600,3.382344482421875,2.890381336212158,-4.2982354164123535,5.71175479888916
1700852477269335300,3.399335205078125,3.5827155113220215,-4.8301286697387695,4.018054962158203
1700852477286326300,3.416326171875,4.032474517822266,-5.168764114379883,2.525663375854492
1700852477303307300,3.433307373046875,3.5246360301971436,-4.9636945724487305,0.7366704940795898
1700852477320308200,3.45030810546875,2.3608644008636475,-4.522239685058594,-0.9788360595703125
1700852477337299200,3.46729931640625,1.7577563524246216,-3.776212215423584,-2.5199289321899414
1700852477354289200,3.4842890625,1.6848968267440796,-3.2794158458709717,-3.701584815979004
1700852477371281400,3.501281494140625,1.718611478805542,-3.427219867706299,-4.102813720703125
1700852477388271400,3.518271240234375,1.7831599712371826,-3.763892650604248,-4.556000709533691
1700852477405262300,3.535262451171875,2.014993906021118,-3.7098445892333984,-5.744983673095703
1700852477422253000,3.552253173828125,2.2310853004455566,-3.5416221618652344,-6.700956344604492
1700852477439238000,3.56923779296875,2.443016290664673,-3.31020450592041,-7.111474990844727
1700852477456224000,3.58622412109375,2.5780632495880127,-3.2311325073242188,-7.331511497497559
1700852477473216000,3.603216064453125,2.735125780105591,-3.3518106937408447,-7.581646919250488
1700852477490215400,3.62021533203125,2.972947120666504,-3.5371222496032715,-7.863317012786865
1700852477507199500,3.637199462890625,3.327575206756592,-3.800544023513794,-7.949026584625244
1700852477524198400,3.654198486328125,3.802536725997925,-3.9567723274230957,-7.99346399307251
1700852477541178400,3.671178466796875,4.295921325683594,-4.032827377319336,-6.953885555267334
1700852477558173000,3.6881728515625,4.161482810974121,-3.970231533050537,-5.380248069763184
1700852477575162400,3.705162353515625,3.576169967651367,-4.135440349578857,-3.9159021377563477
1700852477592154000,3.722154052734375,2.9603374004364014,-4.598160743713379,-3.6854424476623535
1700852477609145900,3.739145751953125,2.537477731704712,-5.241963863372803,-4.397818565368652
1700852477626135800,3.7561357421875,3.142491340637207,-5.499477863311768,-5.034671783447266
1700852477643124500,3.77312451171875,4.151337623596191,-6.2707719802856445,-3.4820494651794434
1700852477660120800,3.790120849609375,4.543931007385254,-6.938079833984375,-1.0165519714355469
1700852477677106200,3.807106201171875,3.748133659362793,-6.531712055206299,-0.5237016677856445
1700852477694099000,3.824098876953125,1.5545258522033691,-6.688472270965576,-0.10509681701660156
1700852477711088400,3.84108837890625,0.09407222270965576,-7.135693073272705,0.15188026428222656
1700852477728077800,3.858077880859375,-0.05994772911071777,-6.594803810119629,0.6190204620361328
1700852477745071600,3.875071533203125,0.33151769638061523,-6.3973493576049805,1.7887811660766602
1700852477762060500,3.892060546875,0.5532940626144409,-6.351657867431641,3.8629045486450195
1700852477779053300,3.90905322265625,0.6375632286071777,-5.875377655029297,4.765145301818848
1700852477796043800,3.926043701171875,0.382300466299057,-5.453742980957031,4.589822769165039
1700852477813033000,3.943032958984375,0.20906051993370056,-4.802326202392578,3.5960464477539062
1700852477830026000,3.96002587890625,0.3513745963573456,-3.7695631980895996,3.060009002685547
1700852477847022300,3.977022216796875,1.0856531858444214,-2.1889572143554688,2.4924068450927734
1700852477864018400,3.994018310546875,1.4322631359100342,-0.7868056297302246,2.0606765747070312
1700852477880996400,4.010996337890625,1.2860312461853027,0.3657851219177246,2.1158933639526367
1700852477897997600,4.02799755859375,0.9418631792068481,1.3597211837768555,2.167546272277832
1700852477914977800,4.044977783203125,0.47343531250953674,1.9331302642822266,2.1228489875793457
1700852477931977500,4.0619775390625,0.06380155682563782,2.2072153091430664,2.2176713943481445
1700852477948963800,4.0789638671875,-0.058845579624176025,2.496457099914551,2.3609604835510254
1700852477965961200,4.095961181640625,0.07318341732025146,2.765113353729248,3.078369617462158
1700852477982952000,4.112951904296875,-0.026297688484191895,3.2641725540161133,3.9225449562072754
1700852477999942700,4.129942626953125,-0.45659005641937256,3.903212785720825,4.414886951446533
1700852478016931000,4.14693115234375,-1.1494964361190796,4.335198402404785,4.8426737785339355
1700852478033927200,4.16392724609375,-1.7956931591033936,4.630912780761719,5.124104022979736
1700852478050904800,4.18090478515625,-2.192823648452759,4.994688034057617,5.411062717437744
1700852478067904300,4.197904296875,-2.3792083263397217,5.29237174987793,6.3290557861328125
1700852478084899000,4.214899169921875,-2.3309597969055176,5.513246536254883,7.5242180824279785
1700852478101881000,4.231881103515625,-2.403872489929199,5.879548072814941,8.292179107666016
1700852478118876400,4.24887646484375,-3.1195497512817383,6.386327266693115,8.70173454284668
1700852478135872300,4.265872314453125,-4.1977972984313965,6.580312728881836,9.229301452636719
1700852478152860700,4.282860595703125,-4.323185443878174,6.78582239151001,9.789362907409668
1700852478169851400,4.299851318359375,-3.848653793334961,6.837181091308594,10.059209823608398
1700852478186852000,4.31685205078125,-3.3087873458862305,6.773933410644531,9.585758209228516
1700852478203833300,4.333833251953125,-2.8881070613861084,6.222779750823975,9.208929061889648
1700852478220816600,4.350816650390625,-2.4403529167175293,4.276106357574463,9.258462905883789
1700852478237817300,4.3678173828125,-1.2750895023345947,2.802992343902588,9.187759399414062
1700852478254805800,4.3848056640625,0.10930085182189941,1.8266549110412598,10.492303848266602
1700852478271788000,4.4017880859375,0.7165027856826782,0.8863463401794434,11.432960510253906
1700852478288775200,4.418775146484375,0.7756807804107666,0.3647165298461914,11.299257278442383
1700852478305778200,4.435778076171875,0.8154993057250977,-0.12546443939208984,11.515289306640625
1700852478322782000,4.452781982421875,1.1436591148376465,-0.5738177299499512,11.752459526062012
1700852478339749600,4.46974951171875,1.6102800369262695,-1.2343602180480957,11.824853897094727
1700852478356748300,4.486748291015625,1.7921521663665771,-2.390815258026123,11.652496337890625
1700852478373744400,4.503744384765625,1.7510442733764648,-3.6623010635375977,10.391807556152344
1700852478390728400,4.520728515625,1.1338332891464233,-4.6844892501831055,8.702329635620117
1700852478407723500,4.5377236328125,0.18939954042434692,-4.9926533699035645,6.490292549133301
1700852478424717000,4.554717041015625,-0.3304694890975952,-4.697453022003174,4.159923553466797
1700852478441714700,4.571714599609375,0.15654388070106506,-4.231256008148193,2.3501815795898438
1700852478458696000,4.588696044921875,1.159875750541687,-3.8195700645446777,1.0184030532836914
1700852478475687000,4.60568701171875,2.3279941082000732,-3.65848970413208,0.1551513671875
1700852478492678000,4.622677978515625,3.2562170028686523,-3.5880682468414307,-0.8104267120361328
1700852478509668900,4.6396689453125,3.494781732559204,-3.903592109680176,-1.7094368934631348
1700852478526656800,4.65665673828125,3.848605155944824,-4.182167053222656,-2.266277313232422
1700852478543653000,4.673653076171875,4.236537456512451,-4.351931571960449,-3.1835694313049316
1700852478560630800,4.690630859375,4.305301189422607,-4.510058403015137,-4.08491325378418
1700852478577629400,4.70762939453125,4.352748394012451,-4.557526111602783,-4.747742652893066
1700852478594625800,4.724625732421875,4.548932075500488,-4.42753267288208,-5.197633266448975
1700852478611613200,4.74161328125,4.866601943969727,-4.350066184997559,-5.408504962921143
1700852478628605000,4.75860498046875,5.135199546813965,-4.703183650970459,-5.380710124969482
1700852478645593000,4.775593017578125,5.154768943786621,-5.1322150230407715,-5.46523380279541
1700852478662578400,4.792578369140625,4.935315132141113,-5.448801517486572,-6.023351669311523
1700852478679577300,4.809577392578125,4.715730667114258,-5.865605354309082,-6.683104515075684
1700852478696562200,4.826562255859375,4.316432476043701,-6.167319297790527,-7.30775260925293
1700852478713558300,4.843558349609375,4.545960903167725,-6.366570949554443,-7.254511833190918
1700852478730550000,4.860550048828125,4.694663047790527,-6.665114879608154,-6.919832229614258
1700852478747538200,4.8775380859375,4.84671688079834,-6.833406448364258,-6.67957878112793
1700852478764539400,4.894539306640625,4.686554908752441,-7.012828826904297,-6.533361434936523
1700852478781520000,4.911519775390625,4.163023948669434,-7.78701114654541,-5.857211112976074
1700852478798515700,4.928515625,3.141533613204956,-8.668091773986816,-4.950321674346924
1700852478815504400,4.94550439453125,2.4599156379699707,-8.501988410949707,-4.591081619262695
1700852478832495000,4.9624951171875,1.9500776529312134,-8.69857120513916,-3.971889019012451
1700852478849489400,4.979489501953125,1.4347131252288818,-9.19980239868164,-2.8516883850097656
1700852478866476800,4.996476806640625,0.8627102971076965,-9.18407154083252,-2.2046194076538086
1700852478883467500,5.013467529296875,0.5768914222717285,-9.249700546264648,-1.4361152648925781
1700852478900458500,5.03045849609375,0.21715112030506134,-9.763087272644043,0.2658195495605469
1700852478917446700,5.04744677734375,0.36911413073539734,-9.664567947387695,2.402914047241211
1700852478934442800,5.06444287109375,0.5225783586502075,-9.18101978302002,3.723879814147949
1700852478951420400,5.08142041015625,0.5431894063949585,-8.58505916595459,4.125338554382324
1700852478968418800,5.098418701171875,0.8627467751502991,-7.919721603393555,4.262921333312988
1700852478985416000,5.115416015625,1.4889880418777466,-7.162238121032715,4.627408027648926
1700852479002399200,5.132399169921875,1.5344023704528809,-5.964503288269043,5.408637046813965
1700852479019391700,5.149391845703125,0.7018330097198486,-4.578094959259033,6.801120758056641
1700852479036385300,5.16638525390625,0.01583486795425415,-2.6300477981567383,8.195079803466797
1700852479053378800,5.18337890625,-0.9713093042373657,-0.5822176933288574,8.744325637817383
1700852479070374000,5.200373779296875,-1.6679787635803223,1.2126574516296387,8.406990051269531
1700852479087359500,5.217359375,-1.634727954864502,2.1593079566955566,8.055975914001465
1700852479104347100,5.23434716796875,-0.9625705480575562,2.5829763412475586,7.892396926879883
1700852479121339600,5.251339599609375,-0.5873308181762695,2.99422025680542,7.751720905303955
1700852479138330600,5.26833056640625,-0.21441489458084106,3.5620031356811523,8.34913444519043
1700852479155321300,5.2853212890625,-0.08950883150100708,4.464913845062256,8.757245063781738
1700852479172309500,5.3023095703125,-0.1849239468574524,5.302979469299316,8.33353042602539
1700852479189305600,5.3193056640625,-0.15376323461532593,5.7976250648498535,7.969337463378906
1700852479206293800,5.336293701171875,0.10555720329284668,6.042932987213135,8.083887100219727
1700852479223284700,5.35328466796875,0.09266239404678345,6.248769760131836,8.326601028442383
1700852479240269300,5.370269287109375,0.02457982301712036,6.585054397583008,8.999086380004883
1700852479257262800,5.387262939453125,-0.2823881506919861,6.909132957458496,10.072145462036133
1700852479274261500,5.404261474609375,-0.6298081874847412,7.453976631164551,10.914588928222656
1700852479291248000,5.421248046875,-1.0239861011505127,7.746396064758301,11.06827449798584
1700852479308239400,5.4382392578125,-0.8973110914230347,7.83710241317749,10.931591987609863
1700852479325214200,5.455214111328125,-0.2642657458782196,7.695829391479492,10.782222747802734
1700852479342220800,5.472220703125,-0.0882379412651062,7.529365062713623,10.169849395751953
1700852479359211500,5.48921142578125,-0.3289986550807953,6.784570693969727,9.78889274597168
1700852479376202500,5.506202392578125,-0.20799490809440613,4.889176845550537,10.183815956115723
1700852479393193200,5.523193115234375,0.6941334009170532,3.499678134918213,10.410320281982422
1700852479410184200,5.54018408203125,1.2037627696990967,2.574333667755127,11.486141204833984
1700852479427168000,5.55716796875,0.9111198782920837,1.9631481170654297,12.134511947631836
1700852479444163300,5.574163330078125,0.36914825439453125,1.4624600410461426,12.069084167480469
1700852479461159400,5.591159423828125,0.2556685209274292,0.30127811431884766,11.97828197479248
1700852479478147600,5.608147705078125,1.129431962966919,-1.306173324584961,11.772590637207031
1700852479495135500,5.625135498046875,2.425978899002075,-3.2151894569396973,11.751694679260254
1700852479512132400,5.64213232421875,3.4172513484954834,-4.8117756843566895,11.38730239868164
1700852479529120500,5.65912060546875,3.8938636779785156,-6.117453575134277,10.626678466796875
1700852479546111200,5.676111328125,3.745452404022217,-6.833317756652832,9.865904808044434
1700852479563094500,5.693094482421875,3.0626118183135986,-6.694772243499756,8.193557739257812
1700852479580076500,5.71007666015625,2.278897762298584,-6.083559036254883,5.9527482986450195
1700852479597085700,5.727085693359375,2.029601573944092,-5.433200836181641,3.7132673263549805
1700852479614072800,5.74407275390625,2.0581905841827393,-5.1713547706604,1.8394384384155273
1700852479631054600,5.7610546875,2.648993492126465,-5.218166351318359,0.6539144515991211
1700852479648056000,5.77805615234375,2.9842958450317383,-5.3030781745910645,-0.49936389923095703
1700852479665034200,5.7950341796875,3.073244571685791,-5.341326713562012,-2.0775976181030273
1700852479682040600,5.81204052734375,2.6421308517456055,-5.320796966552734,-3.670001983642578
1700852479699028700,5.82902880859375,2.3206963539123535,-5.1613287925720215,-5.127682685852051
1700852479716019700,5.846019775390625,2.3942313194274902,-4.817269325256348,-6.21841287612915
1700852479733010400,5.863010498046875,2.9748377799987793,-4.322942733764648,-6.649806976318359
1700852479750001200,5.880001220703125,3.418193817138672,-4.093736171722412,-6.529967784881592
1700852479766992100,5.8969921875,3.738149881362915,-4.093695163726807,-6.33242654800415
1700852479783983000,5.913983154296875,3.6477866172790527,-4.44523286819458,-6.355310916900635
1700852479800963300,5.93096337890625,3.5368127822875977,-4.972599983215332,-6.674481391906738
1700852479817964800,5.94796484375,3.524277687072754,-5.440211296081543,-6.731445789337158
1700852479834955500,5.96495556640625,3.6304736137390137,-5.897078037261963,-6.491530418395996
1700852479851946200,5.9819462890625,3.671152353286743,-6.206018447875977,-6.11138916015625
1700852479868936700,5.998936767578125,3.7571206092834473,-6.396280765533447,-5.865810394287109
1700852479885928400,6.015928466796875,3.6867220401763916,-6.705379486083984,-5.73264217376709
1700852479902919000,6.0329189453125,3.812739133834839,-6.947181701660156,-6.000046730041504
1700852479919906300,6.04990625,4.322671890258789,-7.206510543823242,-6.23264741897583
1700852479936889900,6.066889892578125,4.901442527770996,-7.658638000488281,-5.459299087524414
1700852479953891600,6.0838916015625,4.926864147186279,-8.43772029876709,-3.619431495666504
1700852479970883600,6.100883544921875,3.8106935024261475,-8.536304473876953,-3.245781421661377
1700852479987873000,6.117873046875,2.5246400833129883,-8.147696495056152,-3.890373706817627
1700852480004864000,6.134864013671875,1.6963356733322144,-8.627689361572266,-3.475583553314209
1700852480021844500,6.151844482421875,1.6241108179092407,-9.088144302368164,-2.920807361602783
1700852480038845700,6.168845703125,1.8123409748077393,-9.356375694274902,-1.7674784660339355
1700852480055836700,6.185836669921875,1.6834015846252441,-9.555459022521973,0.3846702575683594
1700852480072829000,6.202828857421875,1.274819016456604,-9.93111801147461,2.802001953125
1700852480089818400,6.219818359375,1.3180334568023682,-9.770140647888184,4.574402809143066
1700852480106809300,6.236809326171875,1.456827998161316,-9.162016868591309,5.235678672790527
1700852480123800000,6.253800048828125,1.9274752140045166,-8.017992973327637,5.58343505859375
1700852480140784400,6.270784423828125,2.363971471786499,-6.4842424392700195,5.789923667907715
1700852480157785300,6.287785400390625,1.9797369241714478,-5.152256488800049,6.324777603149414
1700852480174769200,6.30476904296875,1.623827338218689,-3.7956619262695312,7.199488639831543
1700852480191752700,6.321752685546875,1.1125574111938477,-2.4903554916381836,8.187784194946289
1700852480208757500,6.338757568359375,0.37537920475006104,-1.2535476684570312,8.442404747009277
1700852480225731000,6.35573095703125,-0.6046121120452881,-0.2844362258911133,8.058475494384766
1700852480242723800,6.372723876953125,-1.1018433570861816,0.5616207122802734,7.532497406005859
1700852480259723000,6.389722900390625,-1.274599313735962,1.1811656951904297,7.486265659332275
1700852480276707300,6.406707275390625,-0.8483285307884216,1.9257807731628418,8.454654693603516
1700852480293705200,6.423705322265625,-0.9987510442733765,3.031141757965088,9.136690139770508
1700852480310690800,6.44069091796875,-2.284423589706421,4.0594964027404785,8.947582244873047
1700852480327677400,6.457677490234375,-3.6505260467529297,4.821476936340332,8.608131408691406
1700852480344686300,6.474686279296875,-4.372418403625488,5.183520317077637,9.019185066223145
1700852480361673500,6.491673583984375,-4.273475646972656,5.578285217285156,9.466567039489746
1700852480378662700,6.50866259765625,-4.155950546264648,6.02708101272583,9.925134658813477
1700852480395653600,6.525653564453125,-4.19019889831543,6.547126770019531,10.230359077453613
1700852480412644400,6.542644287109375,-4.462985992431641,6.804074287414551,10.43593978881836
1700852480429635600,6.559635498046875,-4.726609230041504,7.054543495178223,10.417814254760742
1700852480446625300,6.576625244140625,-4.855483055114746,7.082917213439941,10.275174140930176
1700852480463617800,6.59361767578125,-4.687473773956299,6.8282270431518555,10.69688606262207
1700852480480590800,6.6105908203125,-3.971914768218994,7.015659809112549,10.883666038513184
1700852480497596200,6.62759619140625,-3.5001394748687744,6.610658645629883,10.898860931396484
1700852480514592000,6.644592041015625,-2.410036325454712,5.147109031677246,11.354085922241211
1700852480531580200,6.661580078125,-0.4276418089866638,3.2597098350524902,12.254280090332031
1700852480548571400,6.6785712890625,0.6821167469024658,1.976393699645996,13.007929801940918
1700852480565563400,6.6955634765625,0.5467802286148071,0.6579418182373047,13.182365417480469
1700852480582548500,6.712548583984375,0.6282891035079956,-0.3212909698486328,13.0299072265625
1700852480599548000,6.7295478515625,0.7434278726577759,-1.252248764038086,12.734575271606445
1700852480616532700,6.74653271484375,0.8402887582778931,-1.8351202011108398,11.944186210632324
1700852480633527300,6.76352734375,0.9311853647232056,-2.7561159133911133,11.28041934967041
1700852480650516200,6.78051611328125,1.0658235549926758,-4.505465507507324,11.242948532104492
1700852480667513300,6.797513427734375,1.3943583965301514,-5.856436252593994,10.562036514282227
1700852480684500700,6.814500732421875,2.097694158554077,-6.0759501457214355,8.899816513061523
1700852480701478100,6.83147802734375,2.92861008644104,-5.299335956573486,6.513491153717041
1700852480718480000,6.84847998046875,4.050007343292236,-4.255565643310547,3.9927010536193848
1700852480735460000,6.865460205078125,4.917654514312744,-3.91634464263916,2.472823143005371
1700852480752461300,6.88246142578125,5.002053737640381,-4.211441993713379,1.284998893737793
1700852480769452000,6.8994521484375,4.906505584716797,-4.443676948547363,0.1395740509033203
1700852480786443000,6.916443115234375,4.573441505432129,-4.60258674621582,-1.0558934211730957
1700852480803424000,6.933424072265625,4.281350612640381,-4.619352340698242,-2.25146484375
1700852480820424400,6.950424560546875,4.109816551208496,-4.636849403381348,-3.1900453567504883
1700852480837415700,6.967415771484375,4.026968002319336,-4.628828048706055,-3.91424560546875
1700852480854406400,6.984406494140625,3.6529598236083984,-4.334193706512451,-4.755720138549805
1700852480871397000,7.001397216796875,3.492464542388916,-3.9936866760253906,-5.252126693725586
1700852480888388000,7.01838818359375,3.784252166748047,-3.6228291988372803,-5.319866180419922
1700852480905378800,7.03537890625,4.041414260864258,-3.6885862350463867,-5.458824634552002
1700852480922358300,7.052358154296875,4.415902614593506,-4.174254417419434,-5.490910530090332
1700852480939357000,7.06935693359375,4.5780768394470215,-4.6444315910339355,-5.944318771362305
1700852480956336000,7.086336181640625,4.770912170410156,-4.998557090759277,-6.394105911254883
1700852480973338600,7.103338623046875,4.787199020385742,-5.099371433258057,-6.737785339355469
1700852480990323200,7.1203232421875,4.789247512817383,-4.972855091094971,-6.470463752746582
1700852481007313700,7.137313720703125,4.455749034881592,-4.818714141845703,-6.10797119140625
1700852481024307700,7.1543076171875,4.217707633972168,-4.770771503448486,-6.100874900817871
1700852481041297000,7.171296875,4.141389846801758,-4.959103107452393,-6.446846961975098
1700852481058284500,7.188284423828125,4.511775970458984,-5.15162992477417,-7.096672058105469
1700852481075286000,7.2052861328125,4.785269737243652,-5.477377414703369,-7.493305206298828
1700852481092267500,7.222267578125,4.476593017578125,-6.143678665161133,-6.689234733581543
1700852481109257200,7.23925732421875,3.8458051681518555,-6.255007266998291,-5.808322906494141
1700852481126257000,7.2562568359375,2.8618147373199463,-6.191121578216553,-5.336062431335449
1700852481143243500,7.273243408203125,1.509453535079956,-6.24351692199707,-4.64016580581665
1700852481160232400,7.290232421875,0.48387661576271057,-6.542423725128174,-3.1011757850646973
1700852481177220900,7.307220947265625,1.3326735496520996,-6.379289627075195,-1.3900279998779297
1700852481194221800,7.324221923828125,2.6110904216766357,-6.4813008308410645,0.743809700012207
1700852481211205000,7.341205078125,3.2218093872070312,-6.290745735168457,2.642756462097168
1700852481228197400,7.358197265625,2.3518917560577393,-6.316217422485352,3.4344186782836914
1700852481245192200,7.375192138671875,1.2250328063964844,-6.0199174880981445,2.880608558654785
1700852481262183700,7.39218359375,-0.1661207675933838,-5.952855110168457,2.647726058959961
1700852481279174000,7.409173828125,-0.2024022340774536,-5.205007553100586,3.4301071166992188
1700852481296161500,7.42616162109375,0.45968008041381836,-3.933307647705078,4.777209281921387
1700852481313159200,7.4431591796875,1.0041790008544922,-2.2423720359802246,5.87797737121582
1700852481330150100,7.460150146484375,0.9296172857284546,-0.6557726860046387,6.074944019317627
1700852481347130000,7.477130126953125,0.4867267608642578,0.5640325546264648,5.66162633895874
1700852481364131300,7.49413134765625,-0.20574462413787842,1.2237696647644043,5.316720485687256
1700852481381122300,7.511122314453125,-0.5991698503494263,1.6338939666748047,5.310821533203125
1700852481398113300,7.52811328125,-0.6083382368087769,2.055084705352783,5.9197468757629395
1700852481415104000,7.54510400390625,-0.5371243953704834,2.714527130126953,6.8763747215271
1700852481432094700,7.5620947265625,-1.2912206649780273,3.2896347045898438,7.34977388381958
1700852481449077500,7.579077392578125,-2.3505640029907227,3.6233463287353516,7.599039554595947
1700852481466076400,7.596076416015625,-2.846196174621582,3.7383065223693848,8.056872367858887
1700852481483065300,7.6130654296875,-2.5171263217926025,3.73477840423584,8.416007041931152
1700852481500056300,7.630056396484375,-1.8433600664138794,3.5749683380126953,9.084756851196289
1700852481517048800,7.647048828125,-1.5829607248306274,3.70015811920166,10.01233959197998
1700852481534039800,7.664039794921875,-1.8726744651794434,4.267905235290527,10.461396217346191
1700852481551040300,7.681040283203125,-2.997701406478882,5.133063316345215,10.750439643859863
1700852481568023800,7.69802392578125,-3.8276970386505127,6.050950050354004,10.635650634765625
1700852481585012200,7.71501220703125,-4.085910320281982,6.556604385375977,10.160484313964844
1700852481602002000,7.732001953125,-4.185638904571533,6.414467811584473,9.790483474731445
1700852481618995200,7.7489951171875,-4.583765029907227,6.114240646362305,9.266111373901367
1700852481635985000,7.76598486328125,-5.081860542297363,5.812091827392578,8.446512222290039
1700852481652975600,7.7829755859375,-4.8546857833862305,4.715671539306641,8.294332504272461
1700852481669956000,7.7999560546875,-3.6897213459014893,2.6423892974853516,8.81666088104248
1700852481686957000,7.81695703125,-2.2120237350463867,1.4850106239318848,9.021522521972656
1700852481703948000,7.833947998046875,-1.4593095779418945,1.0556645393371582,9.676161766052246
1700852481720928800,7.8509287109375,-1.557201862335205,0.6185293197631836,10.554129600524902
1700852481737929700,7.8679296875,-1.3950304985046387,-0.21339035034179688,11.237834930419922
1700852481754920700,7.884920654296875,-0.5295013189315796,-1.8024139404296875,11.960714340209961
1700852481771901000,7.90190087890625,0.7154804468154907,-2.9915218353271484,11.977386474609375
1700852481788902400,7.91890234375,2.0886995792388916,-3.6580705642700195,11.334931373596191
1700852481805892900,7.935892822265625,3.428386688232422,-4.285740852355957,10.664000511169434
1700852481822883800,7.9528837890625,4.537145614624023,-4.82817268371582,10.048091888427734
1700852481839874600,7.96987451171875,4.880005359649658,-4.841220378875732,8.454143524169922
1700852481856863200,7.98686328125,4.79395055770874,-4.285768508911133,6.151375770568848
1700852481873856800,8.003856689453125,4.245224475860596,-3.557002544403076,3.7650561332702637
1700852481890839000,8.020839111328126,4.216784477233887,-3.0262084007263184,1.6703276634216309
1700852481907838200,8.037838134765625,4.203741550445557,-2.648383140563965,-0.05835676193237305
1700852481924829000,8.054828857421874,3.6328725814819336,-2.284634590148926,-1.6376557350158691
1700852481941809700,8.0718095703125,3.0011768341064453,-1.7984795570373535,-3.097317695617676
1700852481958810400,8.088810302734375,2.494736671447754,-1.843836784362793,-3.9379658699035645
1700852481975797500,8.105797607421875,2.7755041122436523,-2.5516180992126465,-4.60222053527832
1700852481992792800,8.122792724609376,3.309140205383301,-3.1104931831359863,-5.578045845031738
1700852482009782300,8.1397822265625,4.1424150466918945,-3.483020544052124,-6.194212436676025
1700852482026776000,8.156776123046875,4.39896297454834,-3.6298775672912598,-6.388587951660156
1700852482043763000,8.173762939453125,4.058954238891602,-3.555619239807129,-6.85339879989624
1700852482060755500,8.19075537109375,3.42470121383667,-3.6261019706726074,-6.997989177703857
1700852482077746400,8.207746337890624,3.3340911865234375,-3.7411680221557617,-6.63569974899292
1700852482094742500,8.224742431640625,3.624028205871582,-3.9685723781585693,-6.526215553283691
1700852482111714300,8.24171435546875,3.7707481384277344,-4.418361186981201,-6.635688781738281
1700852482128718800,8.25871875,3.678140640258789,-5.017500877380371,-7.165811538696289
1700852482145709600,8.27570947265625,3.6719810962677,-5.3299946784973145,-7.439188003540039
1700852482162700300,8.2927001953125,3.9513959884643555,-5.471243858337402,-7.250353813171387
1700852482179691300,8.309691162109376,4.226719856262207,-5.680340766906738,-6.607367515563965
1700852482196679200,8.32667919921875,4.535358428955078,-5.698156356811523,-6.1641740798950195
1700852482213674800,8.3436748046875,3.9155077934265137,-6.422922611236572,-6.293783187866211
1700852482230653400,8.3606533203125,2.7508742809295654,-6.958037376403809,-6.715002059936523
1700852482247654100,8.377654052734375,1.6575236320495605,-6.776041030883789,-6.695549964904785
1700852482264645600,8.394645751953124,0.8372565507888794,-7.2286272048950195,-5.170351028442383
1700852482281623800,8.411623779296875,0.12761527299880981,-8.141270637512207,-2.591735363006592
1700852482298624300,8.428624267578124,-0.6173685789108276,-7.933067321777344,-1.845064640045166
1700852482315620400,8.445620361328125,-1.2568202018737793,-8.115650177001953,-1.8677806854248047
1700852482332608500,8.4626083984375,-0.2628452479839325,-8.71133041381836,-0.7707939147949219
1700852482349599200,8.47959912109375,0.9995051026344299,-9.3521146774292,1.9124069213867188
1700852482366589200,8.496589111328126,1.9943532943725586,-9.348523139953613,4.750389099121094
1700852482383582000,8.51358203125,1.9579682350158691,-8.420469284057617,6.939335823059082
1700852482400572000,8.530572021484375,1.0206013917922974,-6.710318088531494,7.600124835968018
1700852482417555200,8.54755517578125,-0.216737762093544,-4.538633346557617,7.50538444519043
1700852482434556200,8.56455615234375,-1.1786473989486694,-2.2171549797058105,7.2271647453308105
1700852482451544300,8.58154443359375,-1.8810697793960571,-0.18861770629882812,7.1077351570129395
1700852482468520000,8.59852001953125,-2.2042236328125,1.5162925720214844,7.044623374938965
1700852482485523200,8.615523193359374,-2.557197093963623,2.5932722091674805,6.698087692260742
1700852482502519600,8.63251953125,-2.461390972137451,2.9394936561584473,6.261735439300537
1700852482519507700,8.6495078125,-1.7688729763031006,3.024944305419922,5.966574668884277
1700852482536498400,8.66649853515625,-0.8552200794219971,3.120790481567383,5.736006259918213
1700852482553489200,8.6834892578125,-0.41896432638168335,3.2599411010742188,5.619700908660889
1700852482570480000,8.700480224609375,-0.30345380306243896,3.756369113922119,5.611710548400879
1700852482587469300,8.71746923828125,-0.5712433457374573,4.1893205642700195,6.295157432556152
1700852482604462800,8.734462890625,-1.1567374467849731,4.67881441116333,6.680426597595215
1700852482621452500,8.75145263671875,-1.8805009126663208,4.844555854797363,7.140491485595703
1700852482638443300,8.768443359375,-2.115152597427368,4.945052146911621,7.674472808837891
1700852482655434000,8.78543408203125,-1.9556474685668945,5.370092868804932,8.609434127807617
1700852482672422400,8.80242236328125,-2.248018264770508,5.921697616577148,9.638113021850586
1700852482689418500,8.81941845703125,-2.909878730773926,6.287639617919922,10.223786354064941
1700852482706403800,8.83640380859375,-3.005934715270996,6.178150177001953,10.71953010559082
1700852482723400000,8.85339990234375,-2.821249008178711,5.365718364715576,11.77481746673584
1700852482740377600,8.870377685546876,-3.799581527709961,5.206270694732666,12.128897666931152
1700852482757376500,8.88737646484375,-4.89765739440918,4.981694221496582,12.703750610351562
1700852482774372400,8.904372314453125,-4.1457109451293945,2.918163776397705,14.819839477539062
1700852482791350000,8.92135009765625,-2.0930285453796387,2.2787675857543945,15.66220760345459
1700852482808352800,8.938352783203126,-0.5841827988624573,1.6821222305297852,16.04261589050293
1700852482825341200,8.955341064453124,0.8741227388381958,0.5823764801025391,15.720253944396973
1700852482842333200,8.972333251953126,2.371892213821411,-1.1358232498168945,14.832794189453125
1700852482859324000,8.989323974609375,3.0864815711975098,-2.9431257247924805,13.045503616333008
1700852482876309000,9.00630908203125,3.2034478187561035,-4.756589889526367,11.275105476379395
1700852482893305600,9.0233056640625,3.7131049633026123,-6.485414505004883,10.138713836669922
1700852482910296300,9.04029638671875,4.355284690856934,-7.83545446395874,9.032852172851562
1700852482927276800,9.05727685546875,4.842000484466553,-8.065390586853027,6.845902442932129
1700852482944276000,9.07427587890625,5.085772514343262,-7.199770927429199,4.1643900871276855
1700852482961270800,9.091270751953125,4.605116844177246,-5.640469074249268,1.8241901397705078
1700852482978259500,9.108259521484374,3.7152090072631836,-4.012555122375488,0.11561727523803711
1700852482995250400,9.12525048828125,2.488708257675171,-3.0580544471740723,-1.06132173538208
1700852483012231000,9.14223095703125,1.7692114114761353,-2.4882683753967285,-1.9670915603637695
1700852483029232400,9.159232421875,1.631000280380249,-2.210031509399414,-2.4641852378845215
1700852483046222800,9.176222900390625,1.872511625289917,-2.18052339553833,-3.0497403144836426
1700852483063213800,9.1932138671875,2.296750068664551,-2.130056858062744,-3.9608402252197266
1700852483080204500,9.21020458984375,2.5323476791381836,-1.9908561706542969,-4.843138694763184
1700852483097195300,9.2271953125,2.5728394985198975,-1.8853709697723389,-5.342930316925049
1700852483114186000,9.24418603515625,2.560378074645996,-1.8631386756896973,-5.5042524337768555
1700852483131168800,9.261168701171876,2.2666149139404297,-1.8801639080047607,-5.6939849853515625
1700852483148165000,9.2781650390625,2.3254523277282715,-1.9193100929260254,-5.68902587890625
1700852483165158700,9.29515869140625,2.6006674766540527,-2.0618152618408203,-5.3296308517456055
1700852483182149400,9.3121494140625,3.3640544414520264,-2.242875337600708,-5.1857008934021
1700852483199137800,9.3291376953125,4.003574371337891,-2.7688841819763184,-5.269275665283203
1700852483216133000,9.346133056640625,4.699988842010498,-3.479722023010254,-5.478801727294922
1700852483233121800,9.363121826171875,5.209009170532227,-4.2408599853515625,-5.503597736358643
1700852483250112500,9.380112548828125,5.585444927215576,-4.727437973022461,-5.424681663513184
1700852483267105300,9.397105224609374,5.866283893585205,-5.008077144622803,-5.15235710144043
1700852483284094200,9.41409423828125,5.607892036437988,-5.246860980987549,-5.291382312774658
1700852483301085200,9.431085205078125,5.547322750091553,-5.592526435852051,-5.390140056610107
1700852483318062600,9.4480625,4.835143089294434,-6.462104797363281,-4.858006000518799
1700852483335069200,9.465069091796876,3.8953943252563477,-6.619803428649902,-4.902353286743164
1700852483352057300,9.482057373046874,2.936861038208008,-6.683412551879883,-4.875946521759033
1700852483369048300,9.49904833984375,2.6226749420166016,-6.93634557723999,-4.46002721786499
1700852483386039000,9.5160390625,2.5059428215026855,-7.098438739776611,-3.4322385787963867
1700852483403021000,9.53302099609375,2.0721282958984375,-6.982609748840332,-2.4052538871765137
1700852483420020700,9.550020751953125,1.3990907669067383,-6.726165771484375,-1.3343257904052734
1700852483437011700,9.56701171875,0.27468064427375793,-6.492912292480469,0.10817146301269531
1700852483454002200,9.584002197265624,-0.6888977289199829,-6.318119525909424,1.277470588684082
1700852483470982400,9.600982421875,-0.7392101287841797,-6.234078407287598,2.0619192123413086
1700852483487983900,9.61798388671875,0.44793203473091125,-5.876025199890137,2.5804996490478516
1700852483504983300,9.6349833984375,1.721998929977417,-5.235408782958984,2.832707405090332
1700852483521964300,9.65196435546875,2.426764488220215,-3.9628829956054688,3.0585289001464844
1700852483538957300,9.668957275390625,1.9146066904067993,-2.3615031242370605,3.403425693511963
1700852483555947000,9.685947021484376,0.398232102394104,-0.8807001113891602,3.869706153869629
1700852483572938200,9.702938232421875,-1.075068712234497,0.30689239501953125,4.67252254486084
1700852483589915400,9.719915283203125,-1.6875190734863281,1.1847004890441895,5.604941368103027
1700852483606916900,9.736916748046875,-1.5679211616516113,1.7401189804077148,6.153448104858398
1700852483623913200,9.753913330078126,-0.9590161442756653,2.0864381790161133,6.262801647186279
1700852483640890600,9.770890625,-0.0997697114944458,2.3596324920654297,6.296377182006836
1700852483657892400,9.787892333984376,0.5444326400756836,2.7263193130493164,6.7076287269592285
1700852483674886700,9.80488671875,0.5932065844535828,3.362832546234131,7.37299919128418
1700852483691862500,9.821862548828125,0.17197579145431519,4.167708396911621,8.00500202178955
1700852483708867000,9.8388671875,-0.6168482303619385,4.9458208084106445,8.359909057617188
1700852483725852400,9.855852294921876,-1.358614444732666,5.343411445617676,8.443819046020508
1700852483742835700,9.872835693359375,-1.2483187913894653,5.549626350402832,8.826473236083984
1700852483759828200,9.889828125,-0.8757115602493286,5.754050254821777,9.287160873413086
1700852483776816400,9.90681640625,-0.7711527347564697,6.027288436889648,10.032938003540039
1700852483793811200,9.923811279296874,-1.35160231590271,6.191747665405273,10.597795486450195
1700852483810794500,9.94079443359375,-2.2679522037506104,6.285130500793457,10.725600242614746
1700852483827789000,9.9577890625,-3.38442325592041,6.318188190460205,10.53309154510498
1700852483844790800,9.974790771484376,-3.8327789306640625,6.618727684020996,10.184785842895508
1700852483861773600,9.991773681640625,-3.2913222312927246,5.656452178955078,10.830779075622559
1700852483878772200,10.008772216796874,-2.2678322792053223,3.258042335510254,11.917167663574219
1700852483895763000,10.025762939453125,-0.9657801389694214,2.549964427947998,10.653987884521484
1700852483912754000,10.04275390625,0.1786801815032959,2.228440761566162,10.17068099975586
1700852483929745000,10.059744873046874,1.0107290744781494,2.548760414123535,9.718080520629883
1700852483946732800,10.07673291015625,2.1249845027923584,2.3137450218200684,9.890344619750977
1700852483963729000,10.09372900390625,2.2499592304229736,0.6069850921630859,11.054818153381348
1700852483980714500,10.110714599609375,1.8086875677108765,-1.4607810974121094,11.684760093688965
1700852483997705500,10.12770556640625,0.9583936929702759,-3.0288047790527344,11.907896041870117
1700852484014701000,10.144701171875,0.2790611982345581,-3.5198917388916016,11.271768569946289
1700852484031686100,10.16168603515625,0.4741387367248535,-3.535895824432373,10.358572959899902
1700852484048680400,10.178680419921875,0.8335610628128052,-3.863593578338623,9.889034271240234
1700852484065671000,10.1956708984375,0.6864062547683716,-3.8137941360473633,8.149662017822266
1700852484082662000,10.212661865234375,0.7174139022827148,-3.7342796325683594,5.944154262542725
1700852484099652900,10.22965283203125,1.3610162734985352,-3.576504707336426,3.7390475273132324
1700852484116641000,10.24664111328125,2.4218554496765137,-3.498044967651367,1.602982521057129
1700852484133636900,10.263636962890626,3.304633140563965,-3.903365135192871,0.11253833770751953
1700852484150622500,10.28062255859375,3.7498345375061035,-4.270552158355713,-0.7954220771789551
1700852484167613200,10.29761328125,3.905313491821289,-4.0897626876831055,-1.9644227027893066
1700852484184609300,10.314609375,3.491356611251831,-3.8921456336975098,-3.293741226196289
1700852484201579500,10.33157958984375,2.8680312633514404,-3.75146222114563,-4.64109468460083
1700852484218588200,10.348588134765626,2.385463237762451,-3.6960222721099854,-5.80754280090332
1700852484235574500,10.365574462890624,2.2329142093658447,-3.842806816101074,-6.667232036590576
1700852484252571000,10.38257080078125,2.3532354831695557,-4.166547775268555,-6.897152900695801
1700852484269560300,10.399560302734375,2.816354513168335,-4.303516864776611,-6.9026594161987305
1700852484286553300,10.41655322265625,3.2208778858184814,-4.218419075012207,-7.107712268829346
1700852484303540500,10.43354052734375,3.0905280113220215,-4.3000640869140625,-7.664010047912598
1700852484320533200,10.450533203125,3.0043697357177734,-4.637058258056641,-8.064741134643555
1700852484337521400,10.467521484375,3.0679712295532227,-5.239010334014893,-8.397513389587402
1700852484354517200,10.484517333984375,3.4338769912719727,-5.526442050933838,-8.386539459228516
1700852484371505400,10.50150537109375,3.790945053100586,-5.4421257972717285,-7.659642219543457
1700852484388493600,10.51849365234375,4.022966384887695,-5.045317649841309,-7.213616371154785
1700852484405489700,10.53548974609375,4.177472114562988,-4.867456912994385,-6.829371452331543
1700852484422466800,10.552466796875,4.15822696685791,-5.352570056915283,-5.813655853271484
1700852484439463000,10.569462890625,3.030148506164551,-6.344107627868652,-5.352255821228027
1700852484456456000,10.5864560546875,2.153782844543457,-6.88446569442749,-5.574557304382324
1700852484473444400,10.6034443359375,2.480637550354004,-7.136618137359619,-5.001209735870361
1700852484490434600,10.6204345703125,3.1434013843536377,-7.53249454498291,-3.15177583694458
1700852484507421700,10.637421630859375,3.050389289855957,-7.407519340515137,-1.4809541702270508
1700852484524416800,10.654416748046875,1.472994327545166,-7.403043746948242,-0.6623306274414062
1700852484541406000,10.671406005859374,-0.3951919376850128,-7.847857475280762,0.099578857421875
1700852484558392600,10.688392578125,-0.5775408744812012,-8.341107368469238,1.4338741302490234
1700852484575390200,10.70539013671875,0.6203109622001648,-8.535765647888184,3.283712387084961
1700852484592376000,10.7223759765625,2.0552754402160645,-7.873387336730957,4.8268280029296875
1700852484609365800,10.73936572265625,2.3590762615203857,-6.330090522766113,5.620185852050781
1700852484626365200,10.756365234375,1.6247243881225586,-4.485482215881348,5.764738082885742
1700852484643353000,10.77335302734375,1.0346269607543945,-2.509845733642578,6.01301383972168
1700852484660338000,10.790337890625,0.5845762491226196,-0.7989063262939453,6.399023056030273
1700852484677336800,10.8073369140625,0.279676616191864,0.7539076805114746,6.439975738525391
1700852484694315300,10.824315185546874,-0.20408350229263306,2.0010757446289062,6.079959392547607
1700852484711310800,10.841310791015625,-0.6092950105667114,2.925363063812256,5.822178840637207
1700852484728306000,10.858305908203125,-0.6723132133483887,3.478240489959717,5.942913055419922
1700852484745293000,10.87529296875,-0.6327956914901733,3.59130859375,5.993711471557617
1700852484762285300,10.892285400390625,-0.8416367173194885,3.567300319671631,5.806509494781494
1700852484779283500,10.909283447265626,-1.424378752708435,3.6197357177734375,5.649604320526123
1700852484796276200,10.926276123046875,-1.8728712797164917,4.065625190734863,5.678097248077393
1700852484813273600,10.943273681640624,-2.1710517406463623,4.573577880859375,6.13637638092041
1700852484830259000,10.960259033203124,-2.428504228591919,4.710119724273682,6.853958606719971
1700852484847248400,10.977248291015625,-2.6012215614318848,4.4338698387146,7.998110771179199
1700852484864238600,10.994238525390625,-2.3770389556884766,4.221428871154785,9.411664962768555
1700852484881229300,11.011229248046876,-2.591369152069092,4.379942417144775,10.248268127441406
1700852484898219800,11.0282197265625,-2.663816452026367,5.007695198059082,11.027536392211914
1700852484915212500,11.045212646484375,-2.4188737869262695,5.65727424621582,11.540814399719238
1700852484932200200,11.0622001953125,-1.9527151584625244,5.954848766326904,12.072782516479492
1700852484949192400,11.0791923828125,-1.612676978111267,5.9700446128845215,11.972624778747559
1700852484966183400,11.096183349609374,-1.838428020477295,5.676321029663086,11.048588752746582
1700852484983185200,11.11318505859375,-1.9604138135910034,4.520516872406006,10.373369216918945
1700852485000164900,11.130164794921875,-1.3950881958007812,2.63319730758667,10.301716804504395
1700852485017156900,11.147156982421874,-0.720100998878479,1.1051106452941895,10.468466758728027
1700852485034145000,11.16414501953125,-0.37097346782684326,0.3497886657714844,10.936882972717285
1700852485051137300,11.18113720703125,-0.9152175784111023,0.7908201217651367,10.374665260314941
1700852485068124200,11.198124267578125,-1.3356467485427856,1.3773508071899414,9.704757690429688
1700852485085119200,11.215119140625,-0.77977454662323,1.3938345909118652,8.925674438476562
1700852485102108700,11.232108642578124,0.45381617546081543,0.11222171783447266,8.628658294677734
1700852485119101000,11.249100830078126,1.586911916732788,-2.2345876693725586,8.732709884643555
1700852485136091100,11.266091064453125,2.237239360809326,-4.1801934242248535,7.875650405883789
1700852485153081900,11.283081787109374,2.7084102630615234,-4.767944812774658,6.580541610717773
1700852485170063000,11.30006298828125,2.8631503582000732,-3.9123167991638184,4.757509231567383
1700852485187062000,11.31706201171875,2.4667487144470215,-2.446516513824463,2.831031322479248
1700852485204055600,11.3340556640625,1.763184905052185,-1.242171287536621,1.4445104598999023
1700852485221041400,11.35104150390625,0.9968479871749878,-0.6580257415771484,0.5454878807067871
1700852485238036000,11.368035888671875,0.602424681186676,-0.47035741806030273,-0.14214181900024414
1700852485255026700,11.385026611328126,0.7699256539344788,-0.6425409317016602,-0.694373607635498
1700852485272017200,11.40201708984375,1.1635420322418213,-0.9220900535583496,-1.2919926643371582
1700852485289008000,11.419008056640624,1.8574434518814087,-1.0202741622924805,-2.0588459968566895
1700852485306001000,11.4360009765625,2.254197597503662,-1.1699213981628418,-2.7233376502990723
1700852485322988000,11.452988037109375,2.320573329925537,-1.232945442199707,-3.295520305633545
1700852485339977700,11.469977783203126,2.3389933109283447,-1.1301331520080566,-3.7886486053466797
1700852485356974000,11.48697412109375,2.3439314365386963,-1.1259009838104248,-4.17354154586792
1700852485373953000,11.503953125,2.596047878265381,-1.1777527332305908,-4.373603343963623
1700852485390942200,11.520942138671876,2.9238531589508057,-1.503566026687622,-4.364737033843994
1700852485407943700,11.537943603515625,3.4849677085876465,-1.9721240997314453,-4.500983715057373
1700852485424924200,11.554924072265624,4.1306610107421875,-2.5485196113586426,-4.843719482421875
1700852485441914600,11.57191455078125,4.478885650634766,-3.2100157737731934,-5.0306267738342285
1700852485458915000,11.5889150390625,4.395691394805908,-3.6654863357543945,-5.226619243621826
1700852485475910400,11.605910400390625,4.172637462615967,-4.024298667907715,-5.256498336791992
1700852485492897500,11.6228974609375,4.295348644256592,-4.142284870147705,-5.185095310211182
1700852485509888500,11.639888427734375,4.604727745056152,-4.524289608001709,-4.847828388214111
1700852485526879200,11.656879150390624,4.866710662841797,-5.142845153808594,-4.440019130706787
1700852485543869700,11.67386962890625,4.21661901473999,-6.205648899078369,-3.5685243606567383
1700852485560861400,11.690861328125,2.7663509845733643,-6.398856163024902,-3.7594499588012695
1700852485577851400,11.707851318359374,2.0666627883911133,-6.124506950378418,-4.129424571990967
1700852485594842000,11.724842041015625,1.7257637977600098,-6.561525344848633,-3.095425605773926
1700852485611823900,11.741823974609375,0.8965230584144592,-6.723958969116211,-2.0293092727661133
1700852485628824000,11.758823974609374,0.023258119821548462,-6.403592586517334,-1.6817340850830078
1700852485645814500,11.775814453125,-0.6010528206825256,-6.312472343444824,-1.1969985961914062
1700852485662805500,11.792805419921875,-0.6927884817123413,-6.293492317199707,-0.5352506637573242
1700852485679796000,11.8097958984375,-0.010656654834747314,-6.2550368309021,0.2874612808227539
1700852485696784000,11.826783935546874,0.9868468046188354,-5.890035629272461,1.1405410766601562
1700852485713775400,11.843775390625,1.5391833782196045,-5.219551086425781,1.615952491760254
1700852485730769200,11.86076904296875,1.7658207416534424,-4.011889934539795,1.9464588165283203
1700852485747759400,11.87775927734375,1.3082603216171265,-2.505225658416748,2.0996646881103516
1700852485764750000,11.89475,0.4184528589248657,-1.1242527961730957,2.3691511154174805
1700852485781731600,11.911731689453125,-0.3862200081348419,0.06884479522705078,2.703213691711426
1700852485798727700,11.928727783203126,-0.9253759384155273,1.0433473587036133,2.8400368690490723
1700852485815726300,11.945726318359375,-1.323498249053955,1.5574884414672852,3.013376235961914
1700852485832713200,11.962713134765625,-1.2430163621902466,1.884171962738037,3.3455777168273926
1700852485849703700,11.97970361328125,-1.3157680034637451,2.0001320838928223,3.9913125038146973
1700852485866692000,11.996692138671875,-1.6886636018753052,2.387718677520752,4.463232040405273
1700852485883688200,12.013688232421876,-2.3459763526916504,2.923388957977295,4.663394927978516
1700852485900683000,12.03068310546875,-2.7226266860961914,3.3215975761413574,5.2648491859436035
1700852485917667300,12.047667236328126,-2.920785903930664,3.534801483154297,6.134566783905029
1700852485934657800,12.06465771484375,-3.0255355834960938,3.694979190826416,7.005425453186035
1700852485951661600,12.08166162109375,-3.0283637046813965,3.7501473426818848,7.727789878845215
1700852485968629000,12.09862890625,-2.6341733932495117,4.033754825592041,8.438820838928223
1700852485985630000,12.1156298828125,-2.297236442565918,4.521189212799072,9.02062702178955
1700852486002621000,12.132620849609374,-1.7714787721633911,5.024191379547119,10.141412734985352
1700852486019611600,12.149611572265625,-1.3159663677215576,5.653682708740234,11.20407772064209
1700852486036605200,12.166605224609375,-1.5691455602645874,5.997311592102051,11.5118989944458
1700852486053596700,12.1835966796875,-2.1977782249450684,6.0158185958862305,11.086654663085938
1700852486070584000,12.200583984375,-2.2993829250335693,5.923122406005859,10.26365852355957
1700852486087572500,12.217572509765626,-1.754631757736206,5.4600043296813965,10.114837646484375
1700852486104568300,12.234568359375,-1.2216362953186035,3.4297876358032227,11.158312797546387
1700852486121556200,12.25155615234375,-0.5739484429359436,1.6702065467834473,11.644651412963867
1700852486138547000,12.268546875,-0.12967491149902344,0.7058467864990234,11.958579063415527
1700852486155530500,12.285530517578126,-0.6068977117538452,0.6857147216796875,11.767472267150879
1700852486172529700,12.30252978515625,-0.5659674406051636,1.0025434494018555,11.040824890136719
1700852486189518600,12.3195185546875,0.8407621383666992,0.45041751861572266,10.865978240966797
1700852486206509800,12.336509765625,2.2618751525878906,-0.8024425506591797,10.659954071044922
1700852486223501600,12.35350146484375,3.0982632637023926,-2.252084732055664,10.030593872070312
1700852486240478500,12.370478515625,3.0977420806884766,-3.414642810821533,9.583057403564453
1700852486257481000,12.38748095703125,2.3068535327911377,-3.5461373329162598,8.282869338989258
1700852486274475000,12.40447509765625,1.675577163696289,-3.1710205078125,6.455212116241455
1700852486291464200,12.421464111328126,1.618788719177246,-2.5729594230651855,4.242420673370361
1700852486308455000,12.438454833984375,2.031428575515747,-2.350532054901123,2.4610939025878906
1700852486325445600,12.455445556640624,2.5087337493896484,-2.504331588745117,1.0133261680603027
1700852486342436000,12.47243603515625,2.772664785385132,-2.826958656311035,-0.13090229034423828
1700852486359424300,12.48942431640625,2.543431282043457,-2.9106526374816895,-1.3524293899536133
1700852486376418000,12.50641796875,1.9427671432495117,-2.703460693359375,-2.6646203994750977
1700852486393411300,12.523411376953124,1.2808414697647095,-2.595597267150879,-3.7618374824523926
1700852486410399500,12.5403994140625,1.0787009000778198,-2.511915445327759,-4.741672039031982
1700852486427397600,12.557397705078126,1.2183969020843506,-2.497467279434204,-5.595046520233154
1700852486444383500,12.574383544921876,1.4269146919250488,-2.5230872631073,-6.177309989929199
1700852486461372000,12.591371826171875,1.5658329725265503,-2.6348776817321777,-6.478977203369141
1700852486478362400,12.6083623046875,1.9687752723693848,-2.603029489517212,-6.767858028411865
1700852486495353000,12.62535302734375,2.366039991378784,-2.614549398422241,-6.727046012878418
1700852486512333800,12.642333740234376,2.482637405395508,-2.7340304851531982,-6.616307735443115
1700852486529335000,12.6593349609375,2.4479618072509766,-2.98447585105896,-6.310925483703613
1700852486546325500,12.676325439453125,2.6649527549743652,-3.4089457988739014,-5.870750427246094
1700852486563316700,12.693316650390624,3.062568187713623,-3.949542284011841,-5.5468292236328125
1700852486580307500,12.710307373046875,3.4749841690063477,-4.60156774520874,-5.460975170135498
1700852486597298000,12.7272978515625,3.926971435546875,-4.945761680603027,-5.565202236175537
1700852486614272300,12.744272216796874,4.2165398597717285,-5.196843147277832,-5.443338394165039
1700852486631278300,12.7612783203125,4.154108047485352,-5.861084938049316,-4.805755615234375
1700852486648269600,12.77826953125,3.5662293434143066,-6.770295143127441,-4.083795070648193
1700852486665262800,12.795262939453124,3.0535006523132324,-7.115908622741699,-3.8563952445983887
1700852486682239700,12.81223974609375,3.0959970951080322,-7.2032294273376465,-4.008482456207275
1700852486699231000,12.82923095703125,3.0932741165161133,-7.528969764709473,-3.2213897705078125
1700852486716227600,12.8462275390625,2.945319652557373,-7.223594665527344,-2.105198860168457
1700852486733224200,12.86322412109375,2.0772855281829834,-6.902439117431641,-0.4905519485473633
1700852486750214700,12.880214599609374,0.8453515768051147,-6.517981052398682,0.767939567565918
1700852486767208400,12.89720849609375,-0.3820877969264984,-6.1492462158203125,1.4340505599975586
1700852486784193800,12.91419384765625,-0.7916626930236816,-5.715665817260742,1.7089357376098633
1700852486801187000,12.93118701171875,-0.32006195187568665,-5.206888198852539,1.6520538330078125
1700852486818177800,12.948177734375,0.8278047442436218,-4.565290927886963,1.8991775512695312
1700852486835167000,12.9651669921875,1.5571887493133545,-3.457583427429199,2.4000797271728516
1700852486852151000,12.982151123046876,1.4009134769439697,-2.1393890380859375,2.8537211418151855
1700852486869148000,12.99914794921875,0.4449087977409363,-0.670443058013916,3.1057653427124023
1700852486886143700,13.016143798828125,-1.1407513618469238,0.4476494789123535,3.6686792373657227
1700852486903131600,13.033131591796876,-2.29463529586792,1.3816041946411133,4.190948486328125
1700852486920121600,13.05012158203125,-2.313933849334717,2.0144567489624023,4.7216362953186035
1700852486937111600,13.067111572265626,-1.4779415130615234,2.4164981842041016,5.234604835510254
1700852486954106600,13.084106689453124,-0.433519184589386,2.8230414390563965,5.697719097137451
1700852486971092200,13.10109228515625,0.30645108222961426,3.314883232116699,6.082006454467773
1700852486988077800,13.118077880859374,0.32078903913497925,3.9348864555358887,6.317809104919434
1700852487005076200,13.135076171875,0.014810621738433838,4.454121112823486,6.374499797821045
1700852487022067200,13.152067138671875,0.009120583534240723,4.775649547576904,6.79412841796875
1700852487039054000,13.16905419921875,0.1671631932258606,4.9838457107543945,7.4880547523498535
1700852487056046000,13.186046142578125,0.1715761423110962,4.996500492095947,8.090551376342773
1700852487073042200,13.203042236328125,0.2800305485725403,5.019984245300293,8.656330108642578
1700852487090030300,13.2200302734375,0.21670740842819214,5.1549072265625,9.165395736694336
1700852487107021000,13.23702099609375,-0.14242249727249146,5.421944618225098,9.670045852661133
1700852487124011800,13.25401171875,-0.7442963719367981,5.775162220001221,10.070531845092773
1700852487140991700,13.27099169921875,-1.470116138458252,6.027100563049316,10.130056381225586
1700852487157993200,13.2879931640625,-1.7824327945709229,5.931659698486328,9.751191139221191
1700852487174984000,13.30498388671875,-1.568771243095398,5.76395320892334,8.986926078796387
1700852487191974700,13.321974609375,-1.0216732025146484,5.505698204040527,8.343212127685547
1700852487208965400,13.33896533203125,-0.1911485493183136,4.3054633140563965,8.903295516967773
1700852487225953300,13.355953369140625,0.6677986979484558,2.641874313354492,9.6535005569458
1700852487242934300,13.372934326171874,0.9919260740280151,1.5228919982910156,10.020139694213867
1700852487259927600,13.389927490234374,0.6642581820487976,0.565068244934082,10.943845748901367
1700852487276918300,13.406918212890625,0.7689523100852966,0.27687549591064453,11.604507446289062
1700852487293911000,13.4239111328125,1.1654598712921143,0.15797710418701172,11.660903930664062
1700852487310909400,13.440909423828124,1.5937596559524536,-0.4614734649658203,11.274641036987305
1700852487327896000,13.45789599609375,2.3204851150512695,-1.426243782043457,10.797908782958984
1700852487344886000,13.474885986328125,2.7464168071746826,-2.5755066871643066,10.33466911315918
1700852487361874700,13.491874755859374,2.6398167610168457,-3.450410842895508,9.27363109588623
1700852487378873000,13.508873046875,2.347362995147705,-3.845651626586914,7.569855690002441
1700852487395863800,13.52586376953125,2.2257328033447266,-3.910693645477295,5.6242356300354
1700852487412854800,13.542854736328126,2.364616870880127,-3.756507396697998,3.674513816833496
1700852487429845500,13.559845458984375,2.125473976135254,-3.5561976432800293,1.8072218894958496
1700852487446825200,13.5768251953125,1.7226359844207764,-3.271120548248291,-0.1667032241821289
1700852487463827000,13.593826904296876,1.4885993003845215,-3.125062942504883,-1.7912492752075195
1700852487480816600,13.610816650390625,1.6272310018539429,-3.2001442909240723,-2.755739688873291
1700852487497797600,13.627797607421876,1.700419306755066,-3.1839969158172607,-3.663362503051758
1700852487514797800,13.6447978515625,1.5699973106384277,-3.1094887256622314,-4.582658767700195
1700852487531781000,13.661781005859375,1.51883065700531,-2.9724085330963135,-5.328869342803955
1700852487548780800,13.67878076171875,1.575265645980835,-2.8730502128601074,-6.031574726104736
1700852487565771300,13.695771240234375,1.7519490718841553,-2.7492177486419678,-6.7612762451171875
1700852487582760000,13.712760009765624,1.8732187747955322,-2.799865245819092,-7.301847457885742
1700852487599753000,13.7297529296875,2.074496269226074,-2.879937171936035,-7.671377182006836
1700852487616741400,13.746741455078125,2.1766254901885986,-3.023805618286133,-7.816164970397949
1700852487633737000,13.763737060546875,2.7374560832977295,-3.0543887615203857,-7.5038652420043945
1700852487650724000,13.78072412109375,3.265036106109619,-3.074305772781372,-7.039124488830566
1700852487667716900,13.797716796875,3.3505520820617676,-3.3006229400634766,-6.655165672302246
1700852487684712400,13.81471240234375,3.2587177753448486,-3.6421735286712646,-6.325012683868408
1700852487701686000,13.83168603515625,3.2517080307006836,-4.11393928527832,-5.887180328369141
1700852487718690800,13.84869091796875,3.375833034515381,-4.636029243469238,-5.619065284729004
1700852487735679000,13.865678955078126,4.09005069732666,-5.0350751876831055,-4.764852523803711
1700852487752669700,13.882669677734375,4.827157974243164,-5.811293125152588,-2.5304460525512695
1700852487769660400,13.899660400390625,3.8792171478271484,-6.366221904754639,-1.4720020294189453
1700852487786648600,13.916648681640625,2.33614444732666,-6.320630073547363,-1.7119140625
1700852487803644700,13.933644775390626,1.156149983406067,-6.442173480987549,-1.8946118354797363
1700852487820622300,13.950622314453126,0.7912453413009644,-6.766800880432129,-1.4213647842407227
1700852487837621000,13.96762109375,0.7411713600158691,-6.752320289611816,-0.6615161895751953
1700852487854609400,13.984609375,0.7248766422271729,-6.506943225860596,0.21329498291015625
1700852487871608000,14.001608154296875,0.4136188328266144,-6.369355201721191,1.1481742858886719
1700852487888594000,14.018593994140625,-0.16659671068191528,-6.111815452575684,1.7266101837158203
1700852487905580500,14.03558056640625,-0.4892946481704712,-5.814645767211914,2.128366470336914
1700852487922570000,14.052570068359374,-0.07978004217147827,-5.292037010192871,2.4052295684814453
1700852487939556400,14.069556396484375,0.5199517011642456,-4.516360759735107,2.619049072265625
1700852487956545800,14.0865458984375,0.8079438209533691,-3.2705745697021484,2.842721939086914
1700852487973547800,14.1035478515625,0.46097519993782043,-1.6994142532348633,2.975862503051758
1700852487990537500,14.120537353515624,-0.14480924606323242,-0.10477590560913086,3.0608863830566406
1700852488007521500,14.137521484375,-0.7128249406814575,1.199730396270752,3.001121997833252
1700852488024520200,14.154520263671875,-1.1009352207183838,2.107792377471924,2.7750391960144043
1700852488041502200,14.171502197265625,-1.3891422748565674,2.555253505706787,2.5729994773864746
1700852488058493200,14.1884931640625,-1.0200834274291992,2.638643741607666,2.6141467094421387
1700852488075489500,14.205489501953124,-0.4875682592391968,2.543811798095703,2.922473430633545
1700852488092477200,14.222477294921875,0.05749249458312988,2.632734775543213,3.816192626953125
1700852488109464600,14.239464599609375,-0.30361247062683105,3.094635486602783,4.638836860656738
1700852488126461400,14.25646142578125,-1.0502500534057617,3.6150522232055664,4.9671630859375
1700852488143448000,14.273447998046874,-1.489742636680603,3.856029510498047,5.559482574462891
1700852488160445400,14.290445556640625,-1.4694850444793701,4.051987648010254,6.349626064300537
1700852488177432600,14.3074326171875,-1.18780517578125,4.299563884735107,7.404898643493652
1700852488194422000,14.324422119140625,-1.059943437576294,4.701440811157227,8.267204284667969
1700852488211408000,14.341407958984375,-0.9890773296356201,5.184970855712891,9.026398658752441
1700852488228405200,14.3584052734375,-0.6929695010185242,5.660785675048828,9.557276725769043
1700852488245400000,14.375400146484376,-0.25310468673706055,6.036269187927246,10.070979118347168
1700852488262395000,14.392394775390626,-0.13972264528274536,6.122958183288574,10.64851188659668
1700852488279383000,14.409383056640625,-0.6222866773605347,6.136536598205566,10.538658142089844
1700852488296362800,14.42636279296875,-0.9583298563957214,6.014041900634766,9.858732223510742
1700852488313365000,14.443364990234375,-0.8566721677780151,5.322907447814941,9.639328956604004
1700852488330345200,14.46034521484375,-0.6570370197296143,3.651580810546875,9.935952186584473
1700852488347342000,14.477342041015625,-0.07426702976226807,2.4292922019958496,9.887113571166992
1700852488364341000,14.494341064453126,0.4219997525215149,2.0554566383361816,10.378085136413574
1700852488381327600,14.51132763671875,0.12583643198013306,1.5436644554138184,11.474800109863281
1700852488398318300,14.528318359375,0.33693939447402954,1.3984451293945312,11.997325897216797
1700852488415309300,14.545309326171875,0.26173079013824463,0.7274971008300781,12.17490005493164
1700852488432306700,14.562306640625,0.8270963430404663,0.04448699951171875,11.435884475708008
1700852488449288000,14.579287841796875,1.916835904121399,-1.2243118286132812,10.82571792602539
1700852488466284300,14.5962841796875,2.9048566818237305,-2.5327086448669434,9.922346115112305
1700852488483272200,14.613272216796876,3.132530927658081,-3.449239730834961,8.415756225585938
1700852488500263000,14.630262939453125,2.9628686904907227,-3.7106127738952637,6.504171371459961
1700852488517253400,14.64725341796875,2.7247726917266846,-3.3724379539489746,4.35560417175293
1700852488534244000,14.664244140625,2.2826600074768066,-2.703157424926758,2.191554546356201
1700852488551224600,14.681224609375,2.1445436477661133,-2.047389507293701,0.8402471542358398
1700852488568216600,14.698216552734374,2.2410941123962402,-1.8044319152832031,0.13399791717529297
1700852488585206000,14.7152060546875,2.9218432903289795,-2.194863796234131,-0.04677391052246094
1700852488602207200,14.732207275390625,3.549269914627075,-2.5152764320373535,-0.5351066589355469
1700852488619198200,14.7491982421875,3.3728013038635254,-2.7389001846313477,-2.1560983657836914
1700852488636189000,14.76618896484375,2.3093230724334717,-2.8339083194732666,-4.150150299072266
1700852488653176800,14.7831767578125,1.3331544399261475,-2.65651273727417,-5.798951148986816
1700852488670162400,14.800162353515624,0.8120849132537842,-2.386814832687378,-6.865718841552734
1700852488687159600,14.81715966796875,0.6188938021659851,-2.107910394668579,-7.498738765716553
1700852488704152800,14.83415283203125,0.7450792193412781,-2.072924852371216,-7.464935779571533
1700852488721142500,14.851142578125,1.1232783794403076,-1.984839916229248,-7.274231433868408
1700852488738121200,14.868121337890624,1.463559865951538,-2.091464042663574,-7.001197814941406
1700852488755124000,14.8851240234375,1.9048748016357422,-2.2285315990448,-6.803888320922852
1700852488772114700,14.90211474609375,2.305936813354492,-2.436295747756958,-6.750380992889404
1700852488789105400,14.91910546875,2.5838451385498047,-2.799966335296631,-6.436370849609375
1700852488806096100,14.93609619140625,2.938776969909668,-3.2460551261901855,-5.746072769165039
1700852488823087000,14.953087158203125,3.25300669670105,-3.558980941772461,-4.9537458419799805
1700852488840077600,14.97007763671875,3.506842613220215,-3.860560894012451,-4.50333833694458
1700852488857068500,14.987068603515626,4.079246997833252,-4.250371932983398,-4.314106464385986
1700852488874059000,15.00405908203125,4.408252239227295,-4.955657958984375,-3.5792880058288574
1700852488891050000,15.021050048828124,3.7060694694519043,-6.118359565734863,-2.3126773834228516
1700852488908040700,15.038040771484376,2.807305335998535,-6.169546604156494,-2.4282383918762207
1700852488925031400,15.055031494140625,2.268958568572998,-6.441737174987793,-1.9610166549682617
1700852488942022100,15.072022216796874,1.829040765762329,-7.269248962402344,-1.1486587524414062
1700852488959008500,15.089008544921874,1.8973369598388672,-7.026629447937012,-1.3831405639648438
1700852488976008000,15.106008056640626,1.5306084156036377,-6.941493988037109,-1.6079292297363281
1700852488992994300,15.122994384765626,1.0928425788879395,-6.710236549377441,-0.9487791061401367
1700852489009985000,15.139985107421875,0.4950408935546875,-6.371315002441406,0.32067108154296875
1700852489026976000,15.15697607421875,-0.006316818296909332,-6.007763862609863,1.6679210662841797
1700852489043966700,15.173966796875,0.03841513395309448,-5.531979084014893,2.895709991455078
1700852489060946700,15.19094677734375,0.17385812103748322,-4.73563289642334,3.755472183227539
1700852489077949700,15.20794970703125,0.019601255655288696,-3.5752973556518555,3.795647621154785
1700852489094938600,15.224938720703125,-0.36038780212402344,-2.185854911804199,3.4807491302490234
1700852489111918800,15.2419189453125,-0.6838703155517578,-0.7700381278991699,3.36436128616333
1700852489128920600,15.258920654296874,-0.9411525130271912,0.45055055618286133,3.488544464111328
1700852489145911000,15.2759111328125,-1.203163504600525,1.8299474716186523,3.398571014404297
1700852489162900200,15.292900146484374,-0.8106483817100525,2.704440116882324,4.296606540679932
1700852489179894000,15.30989404296875,0.6669071912765503,3.2300777435302734,5.365824222564697
1700852489196883500,15.326883544921875,1.8849825859069824,3.322645664215088,6.305213928222656
1700852489213874000,15.3438740234375,1.3771133422851562,3.7899303436279297,6.253493309020996
1700852489230854100,15.360854248046875,-0.6926109194755554,4.399532318115234,5.665704727172852
1700852489247853600,15.377853515625,-2.4762983322143555,5.123993873596191,5.21705436706543
1700852489264848400,15.394848388671875,-3.350210666656494,5.502776622772217,5.23470401763916
1700852489281826600,15.41182666015625,-3.1324057579040527,5.544308662414551,5.639521598815918
1700852489298828000,15.428828125,-2.6390085220336914,5.62227201461792,5.883481979370117
1700852489315808500,15.44580859375,-2.286496639251709,5.7920122146606445,5.802806377410889
1700852489332809200,15.462809326171875,-1.9121779203414917,5.891983985900879,5.812666893005371
1700852489349800200,15.47980029296875,-1.6344199180603027,5.717451095581055,6.521953105926514
1700852489366780200,15.4967802734375,-1.758197546005249,5.583888053894043,7.49351692199707
1700852489383781400,15.513781494140625,-2.4522571563720703,5.314621925354004,8.369688034057617
1700852489400756200,15.530756103515625,-3.0992238521575928,5.208144187927246,8.85942554473877
1700852489417772500,15.5477724609375,-3.1992621421813965,5.153413772583008,9.189942359924316
1700852489434752000,15.564751953125,-2.7098259925842285,3.957669734954834,10.25499153137207
1700852489451735600,15.581735595703124,-2.012260913848877,2.5001726150512695,10.760557174682617
1700852489468735000,15.59873486328125,-0.982435941696167,1.6515111923217773,10.81093692779541
1700852489485725700,15.6157255859375,-0.5076703429222107,1.09505033493042,11.25129222869873
1700852489502707000,15.63270703125,-0.38403600454330444,0.7062673568725586,11.62995719909668
1700852489519704600,15.64970458984375,0.24525511264801025,-0.07974624633789062,11.950252532958984
1700852489536698000,15.666697998046875,0.9541134834289551,-1.3114137649536133,11.972758293151855
1700852489553691400,15.68369140625,1.3885858058929443,-2.341899871826172,11.106538772583008
1700852489570682400,15.700682373046876,1.5655815601348877,-3.145982265472412,10.278531074523926
1700852489587669500,15.71766943359375,1.57389235496521,-3.284756660461426,8.87620735168457
1700852489604661000,15.734660888671876,1.7304191589355469,-3.067239761352539,7.077057361602783
1700852489621660200,15.75166015625,2.01304292678833,-2.778207778930664,5.154040813446045
1700852489638642200,15.76864208984375,2.161813259124756,-2.4887914657592773,3.130962371826172
1700852489655633000,15.7856328125,2.2551536560058594,-2.4402856826782227,0.864109992980957
1700852489672621000,15.80262109375,2.2250335216522217,-2.288084030151367,-1.1286144256591797
1700852489689614600,15.819614501953126,2.1071317195892334,-1.9182286262512207,-2.611410617828369
1700852489706609400,15.836609375,1.7225638628005981,-1.4908170700073242,-3.6838698387145996
1700852489723594800,15.8535947265625,1.3618217706680298,-1.2117953300476074,-4.385604381561279
1700852489740586800,15.870586669921876,1.3451875448226929,-1.253955602645874,-4.355136871337891
1700852489757574700,15.88757470703125,1.4612290859222412,-1.268369436264038,-4.566376686096191
1700852489774571000,15.904571044921875,1.3445667028427124,-1.3250494003295898,-5.241835117340088
1700852489791559200,15.92155908203125,1.392000675201416,-1.2838234901428223,-6.054879188537598
1700852489808550000,15.9385498046875,1.7340011596679688,-1.1752920150756836,-6.323758125305176
1700852489825540400,15.955540283203124,1.9072699546813965,-1.0366547107696533,-6.372730255126953
1700852489842534700,15.97253466796875,2.060387134552002,-1.1921210289001465,-6.126283645629883
1700852489859522000,15.98952197265625,2.3120625019073486,-1.6791372299194336,-5.166201114654541
1700852489876504000,16.006504150390626,2.8260903358459473,-1.86728835105896,-4.734670162200928
1700852489893495600,16.02349560546875,2.9901270866394043,-2.191380262374878,-4.834944725036621
1700852489910494000,16.040493896484374,3.2498228549957275,-2.77061128616333,-5.034582138061523
1700852489927485000,16.05748486328125,3.9093308448791504,-3.5888595581054688,-4.647985935211182
1700852489944465400,16.07446533203125,4.410738468170166,-4.330137729644775,-4.229735374450684
1700852489961463600,16.091463623046874,5.11177921295166,-4.518089771270752,-4.011300563812256
1700852489978449400,16.108449462890626,5.813875198364258,-4.236136436462402,-3.6945652961730957
1700852489995447800,16.12544775390625,5.819769382476807,-4.434555530548096,-2.9837822914123535
1700852490012438500,16.1424384765625,4.388465881347656,-5.319255828857422,-2.2403311729431152
1700852490029436200,16.159436279296877,2.2865567207336426,-5.404609680175781,-2.420076847076416
1700852490046423000,16.176423095703125,0.8272750973701477,-5.599419593811035,-2.1982884407043457
1700852490063397000,16.193397216796875,0.5076913833618164,-6.104527473449707,-1.454925537109375
1700852490080383500,16.210383544921875,0.6964617967605591,-6.024513244628906,-1.4776697158813477
1700852490097389600,16.2273896484375,1.1992465257644653,-5.616580009460449,-1.3639841079711914
1700852490114385400,16.244385498046874,1.486111044883728,-5.449299335479736,-0.621708869934082
1700852490131373600,16.26137353515625,1.4808440208435059,-5.34627103805542,0.3247718811035156
1700852490148351700,16.278351806640625,0.992617130279541,-5.146373748779297,1.0521068572998047
1700852490165357600,16.295357666015626,0.5128346681594849,-4.733020782470703,2.0190134048461914
1700852490182345700,16.312345703125,-0.005236923694610596,-3.859701156616211,2.816537857055664
1700852490199336700,16.329336669921876,-0.4876742362976074,-2.6729297637939453,3.4103927612304688
1700852490216327000,16.346326904296873,-0.897071123123169,-1.1288738250732422,3.6636152267456055
1700852490233318000,16.36331787109375,-1.1526007652282715,0.27353763580322266,4.0457963943481445
1700852490250308900,16.380308837890624,-1.4788620471954346,1.3787174224853516,4.280351161956787
1700852490267299300,16.39729931640625,-1.7937586307525635,1.9648447036743164,4.203250885009766
1700852490284290300,16.414290283203126,-1.4568569660186768,2.382704734802246,3.802371025085449
1700852490301281000,16.431281005859375,-0.9628626108169556,2.435730457305908,3.4983601570129395
1700852490318263800,16.448263916015627,-0.01775088906288147,2.729832649230957,3.3285436630249023
1700852490335260000,16.465260009765625,0.829939603805542,2.992652416229248,3.665039539337158
1700852490352255700,16.482255859375,1.0262666940689087,3.4846625328063965,3.948972702026367
1700852490369244000,16.499243896484376,0.6971293687820435,3.8985443115234375,4.324626922607422
1700852490386234600,16.516234619140626,0.3131222426891327,4.137117862701416,4.869004726409912
1700852490403221200,16.53322119140625,0.03886571526527405,4.275259971618652,5.600374698638916
1700852490420216000,16.550216064453124,0.15336722135543823,4.43479061126709,6.520614147186279
1700852490437204500,16.56720458984375,0.253750741481781,4.8488287925720215,7.567875862121582
1700852490454197500,16.584197509765627,0.016673177480697632,5.2766547203063965,8.530691146850586
1700852490471182600,16.6011826171875,-0.11060871183872223,5.655810356140137,9.575820922851562
1700852490488175600,16.618175537109376,-0.10478362441062927,5.963296890258789,10.281808853149414
1700852490505151200,16.635151123046874,-0.26585936546325684,6.176448822021484,10.296428680419922
1700852490522157800,16.65215771484375,-0.6180093288421631,6.408065319061279,10.02322006225586
1700852490539153400,16.6691533203125,-0.8053609132766724,6.257935523986816,9.948883056640625
1700852490556141800,16.686141845703126,-0.5204530358314514,4.565523624420166,10.68606948852539
1700852490573132500,16.703132568359376,0.23389598727226257,3.0492372512817383,10.684576034545898
1700852490590123000,16.720123046875,1.0977412462234497,1.73860502243042,10.796991348266602
1700852490607114000,16.737114013671874,1.5230640172958374,0.8955974578857422,10.793601989746094
1700852490624104700,16.754104736328124,1.630136489868164,0.5414209365844727,10.585351943969727
1700852490641092600,16.771092529296876,1.6479783058166504,0.13710689544677734,10.387828826904297
1700852490658089000,16.7880888671875,1.9689173698425293,-0.28909873962402344,9.961849212646484
1700852490675076900,16.805076904296875,2.477531909942627,-0.9746894836425781,9.637228965759277
1700852490692076500,16.82207666015625,3.109989881515503,-1.8090124130249023,9.0076265335083
1700852490709058000,16.83905810546875,3.512866497039795,-2.6038923263549805,8.039168357849121
1700852490726048500,16.856048583984375,3.8122711181640625,-2.9530911445617676,6.680730819702148
1700852490743040500,16.87304052734375,3.980660915374756,-2.668851375579834,5.17686128616333
1700852490760017700,16.890017578125,3.3797383308410645,-2.0748581886291504,3.6250967979431152
1700852490777010700,16.9070107421875,2.380096673965454,-1.4598584175109863,2.0278754234313965
1700852490794002000,16.924001953125,1.5351431369781494,-1.0876598358154297,0.6496949195861816
1700852490810992600,16.94099267578125,1.172654151916504,-0.9785451889038086,-0.47054481506347656
1700852490827984600,16.957984619140625,1.1718443632125854,-0.9971318244934082,-1.3979759216308594
1700852490844985900,16.97498583984375,1.257365107536316,-1.0901036262512207,-2.3901772499084473
1700852490861974500,16.991974609375,1.3257142305374146,-1.2541804313659668,-3.1451168060302734
1700852490878965500,17.008965576171875,1.4179584980010986,-1.4992446899414062,-3.6658458709716797
1700852490895953400,17.025953369140623,1.4316532611846924,-1.7109460830688477,-4.2090959548950195
1700852490912939300,17.042939208984375,1.5004546642303467,-1.8241198062896729,-4.907813549041748
1700852490929924400,17.05992431640625,1.6027367115020752,-1.9282727241516113,-5.445833683013916
1700852490946931000,17.076930908203124,2.0483455657958984,-1.9578487873077393,-5.5923261642456055
1700852490963908400,17.093908447265626,2.4137415885925293,-2.0090439319610596,-5.448775291442871
1700852490980907500,17.110907470703125,2.6724321842193604,-2.0745162963867188,-5.1531782150268555
1700852490997903000,17.127903076171876,2.829273223876953,-2.0852696895599365,-5.0357441902160645
1700852491014891300,17.144891357421876,2.9645133018493652,-2.3301994800567627,-4.949949741363525
1700852491031881700,17.1618818359375,3.318305492401123,-2.919809103012085,-4.504337787628174
1700852491048862200,17.1788623046875,3.827840805053711,-3.6268506050109863,-3.79179048538208
1700852491065853000,17.19585302734375,4.238429069519043,-3.9666731357574463,-3.31540584564209
1700852491082854400,17.2128544921875,4.2319722175598145,-4.060461044311523,-3.0362114906311035
1700852491099834000,17.229834228515625,3.9425911903381348,-4.598268985748291,-2.4171032905578613
1700852491116835600,17.246835693359376,3.745589256286621,-5.0321245193481445,-1.989121437072754
1700852491133826000,17.263825927734374,3.6068215370178223,-5.50388240814209,-1.5841774940490723
1700852491150803200,17.28080322265625,3.08815336227417,-6.161018371582031,-1.3469610214233398
1700852491167803100,17.29780322265625,2.468029022216797,-6.556495666503906,-1.3617534637451172
1700852491184792600,17.31479248046875,1.9290456771850586,-6.249632835388184,-1.9167370796203613
1700852491201789200,17.3317890625,1.571462869644165,-5.840519905090332,-2.0706605911254883
1700852491218780000,17.34877978515625,0.950045108795166,-5.441885471343994,-1.6820330619812012
1700852491235770400,17.365770263671877,0.047423869371414185,-5.21828031539917,-1.5449819564819336
1700852491252761300,17.38276123046875,-0.5453802347183228,-5.25678825378418,-1.4202651977539062
1700852491269752000,17.399751953125,-0.40323007106781006,-5.325687885284424,-1.7112984657287598
1700852491286742800,17.41674267578125,0.4038562774658203,-4.949185371398926,-1.9736747741699219
1700852491303733500,17.4337333984375,1.2916736602783203,-4.089227676391602,-1.6148428916931152
1700852491320724000,17.450723876953123,1.9170703887939453,-2.9175643920898438,-0.6449861526489258
1700852491337714400,17.46771435546875,1.7262805700302124,-1.733865737915039,0.5827035903930664
1700852491354703400,17.484703369140625,0.6085193157196045,-0.726433277130127,1.8599720001220703
1700852491371698700,17.50169873046875,-0.9658420085906982,0.11143207550048828,2.6696057319641113
1700852491388687000,17.51868701171875,-1.7805529832839966,0.7914586067199707,3.3682751655578613
1700852491405665300,17.535665283203127,-1.6635715961456299,1.3051891326904297,4.032703399658203
1700852491422658000,17.552657958984376,-1.0541268587112427,1.8634204864501953,4.774538040161133
1700852491439649500,17.5696494140625,-0.41637927293777466,2.6394457817077637,5.621480941772461
1700852491456642800,17.586642822265624,-0.3146454691886902,3.3483643531799316,6.159119129180908
1700852491473630200,17.603630126953124,-0.2109922170639038,3.809634208679199,6.7018232345581055
1700852491490624500,17.62062451171875,-0.28304818272590637,3.936595916748047,7.301858901977539
1700852491507611100,17.637611083984375,-0.4300011992454529,4.1899027824401855,7.7231621742248535
1700852491524602400,17.654602294921876,-0.4905182421207428,4.4069504737854,8.344552993774414
1700852491541595400,17.671595458984374,-0.21283724904060364,4.741610050201416,8.972190856933594
1700852491558590700,17.6885908203125,0.0507034957408905,5.058591842651367,9.58151912689209
1700852491575573500,17.705573486328124,0.19934800267219543,5.550469398498535,9.863210678100586
1700852491592569300,17.7225693359375,-0.06478443741798401,6.105508804321289,9.621853828430176
1700852491609553700,17.7395537109375,-0.4970881938934326,6.435920715332031,9.07929515838623
1700852491626547000,17.756546875,-0.7447167038917542,6.616327285766602,8.769989013671875
1700852491643538400,17.773538330078125,-1.1133575439453125,6.617350101470947,8.646238327026367
1700852491660529000,17.79052880859375,-1.636519193649292,6.48001766204834,8.716601371765137
1700852491677531400,17.807531494140626,-1.9074535369873047,5.431075572967529,9.563067436218262
1700852491694509000,17.824509033203125,-1.7097673416137695,3.827655792236328,10.230939865112305
1700852491711510500,17.841510498046876,-0.8819780349731445,2.76345157623291,10.504528999328613
1700852491728501200,17.858501220703126,-0.21569019556045532,1.9184212684631348,11.579415321350098
1700852491745492000,17.875491943359375,-0.09311872720718384,2.2355871200561523,11.972522735595703
1700852491762482700,17.892482666015624,-0.2860233783721924,1.6927037239074707,12.693159103393555
1700852491779473400,17.909473388671874,0.3209775686264038,0.44417285919189453,12.936412811279297
1700852491796463900,17.9264638671875,1.5049216747283936,-1.6475715637207031,13.17817497253418
1700852491813452500,17.94345263671875,2.686408758163452,-3.867520332336426,13.256769180297852
1700852491830447600,17.960447509765626,3.1216015815734863,-5.363791465759277,12.716629981994629
1700852491847436300,17.977436279296874,2.565300226211548,-5.797006130218506,11.228891372680664
1700852491864427000,17.994427001953124,1.6391760110855103,-5.454777240753174,8.512165069580078
1700852491881428000,18.011427978515623,1.1989033222198486,-5.096988201141357,5.650448799133301
1700852491898407200,18.0284072265625,1.6582558155059814,-4.670499801635742,3.0902161598205566
1700852491915399000,18.04539892578125,2.1935348510742188,-4.335620880126953,1.2465629577636719
1700852491932379100,18.062379150390626,2.601633071899414,-4.080385684967041,-0.28798961639404297
1700852491949380400,18.07938037109375,2.656858444213867,-3.9091153144836426,-1.837796688079834
1700852491966363000,18.09636279296875,2.467214345932007,-3.8738958835601807,-3.5273075103759766
1700852491983362000,18.113362060546876,2.490971803665161,-3.8288919925689697,-4.938974857330322
1700852492000350200,18.13035009765625,2.764615535736084,-4.015274524688721,-5.785592555999756
1700852492017345500,18.147345458984375,3.5103759765625,-4.004507064819336,-6.501469135284424
1700852492034334200,18.164334228515624,3.6871397495269775,-3.8559839725494385,-7.178645133972168
1700852492051324700,18.18132470703125,2.956599473953247,-3.6503264904022217,-7.786647796630859
1700852492068315400,18.1983154296875,2.1357808113098145,-3.4772698879241943,-8.144986152648926
1700852492085304800,18.215304931640624,1.6652286052703857,-3.633610248565674,-8.017144203186035
1700852492102298400,18.23229833984375,1.5169609785079956,-3.6538069248199463,-8.09238338470459
1700852492119287600,18.24928759765625,1.5728174448013306,-3.8500261306762695,-8.049173355102539
1700852492136278500,18.266278564453124,1.7876168489456177,-4.10883092880249,-8.036700248718262
1700852492153268700,18.283268798828125,2.0579416751861572,-4.474045753479004,-7.598065376281738
1700852492170249000,18.3002490234375,2.5946223735809326,-4.839311599731445,-7.093947410583496
1700852492187250400,18.31725048828125,3.391575336456299,-5.079643249511719,-6.606013298034668
1700852492204230400,18.33423046875,4.12939977645874,-5.367926120758057,-5.933789253234863
1700852492221231600,18.351231689453126,4.3370537757873535,-5.8261189460754395,-5.025765419006348
1700852492238222300,18.368222412109375,3.4836018085479736,-6.14837646484375,-4.581423759460449
1700852492255208200,18.385208251953124,2.437117099761963,-6.322463035583496,-4.539199352264404
1700852492272201700,18.40220166015625,2.100593090057373,-6.951866626739502,-4.166799545288086
1700852492289176800,18.4191767578125,2.5971429347991943,-7.464271545410156,-3.024458408355713
1700852492306178600,18.436178466796875,3.092698097229004,-7.4256911277771,-1.6949915885925293
1700852492323176200,18.45317626953125,2.3863563537597656,-7.25197172164917,-0.9786605834960938
1700852492340156400,18.470156494140625,0.9346530437469482,-7.221338272094727,-0.8775835037231445
1700852492357157400,18.487157470703124,-0.06629711389541626,-7.197011947631836,-0.3735780715942383
1700852492374148400,18.5041484375,0.05373159050941467,-7.345276832580566,0.8334779739379883
1700852492391139000,18.52113916015625,1.4116661548614502,-7.166377544403076,2.576803207397461
1700852492408129800,18.5381298828125,2.509356737136841,-6.711849212646484,4.200691223144531
1700852492425116400,18.555116455078124,2.8981175422668457,-5.3126020431518555,4.551457405090332
1700852492442114300,18.5721142578125,2.034158706665039,-3.7723278999328613,4.427517890930176
1700852492459101200,18.58910107421875,1.0194175243377686,-2.138216972351074,4.421855449676514
1700852492476093400,18.606093505859373,0.07479870319366455,-0.7327661514282227,4.734698295593262
1700852492493083100,18.623083251953126,-0.25391364097595215,0.563662052154541,5.1835222244262695
1700852492510075600,18.64007568359375,-0.39620691537857056,1.3471684455871582,5.648040771484375
1700852492527050200,18.65705029296875,-0.3346291780471802,1.8168573379516602,6.235706806182861
1700852492544059000,18.674058837890627,-0.5842467546463013,2.221432685852051,6.421976089477539
1700852492561046000,18.6910458984375,-0.8873796463012695,2.575706958770752,6.263333320617676
1700852492578036700,18.70803662109375,-0.7720013856887817,2.852346420288086,6.392786502838135
1700852492595025400,18.725025390625,-0.386563777923584,3.255984306335449,6.934708595275879
1700852492612004900,18.7420048828125,-0.21538758277893066,3.6930832862854004,7.770236015319824
1700852492629009000,18.7590087890625,-0.6868797540664673,4.136161804199219,8.438698768615723
1700852492645999600,18.77599951171875,-1.339404821395874,4.410284042358398,8.773102760314941
1700852492662979600,18.7929794921875,-1.610041856765747,4.59415340423584,9.052103996276855
1700852492679970800,18.809970703125,-1.4437649250030518,4.755772590637207,9.531352996826172
1700852492696971500,18.826971435546874,-0.9909038543701172,5.168632984161377,10.114889144897461
1700852492713951500,18.843951416015624,-0.7781041860580444,5.416687965393066,10.68646240234375
1700852492730953000,18.860952880859376,-0.837152361869812,5.512547969818115,11.087244033813477
1700852492747933200,18.87793310546875,-1.1621860265731812,5.589988708496094,11.127982139587402
1700852492764932900,18.894932861328126,-1.52687668800354,5.522192001342773,10.727250099182129
1700852492781926700,18.9119267578125,-1.640977144241333,4.787802696228027,10.410680770874023
1700852492798915600,18.92891552734375,-0.9580528140068054,3.2211050987243652,10.663618087768555
1700852492815904000,18.945904052734374,0.029509425163269043,2.101962089538574,10.540021896362305
1700852492832899800,18.96289990234375,0.5270036458969116,1.5886592864990234,11.245030403137207
1700852492849887700,18.9798876953125,-0.30942606925964355,1.2336063385009766,11.654358863830566
1700852492866868000,18.996867919921876,-0.8633848428726196,0.8318023681640625,11.9301176071167
1700852492883867600,19.01386767578125,-0.9282122254371643,0.08377456665039062,12.23963451385498
1700852492900861400,19.030861328125,-0.6389405131340027,-0.9890317916870117,12.254060745239258
1700852492917853000,19.04785302734375,0.12250125408172607,-2.125941276550293,12.101371765136719
1700852492934842600,19.064842529296875,1.0422757863998413,-3.3821773529052734,11.767748832702637
1700852492951830800,19.081830810546876,1.7606593370437622,-4.407042503356934,10.284492492675781
1700852492968823000,19.098822998046874,2.1604275703430176,-4.900904655456543,7.997483730316162
1700852492985816800,19.11581689453125,2.516674280166626,-4.54794454574585,5.255018711090088
1700852493002800600,19.132800537109375,2.995163679122925,-3.7343573570251465,2.8528504371643066
1700852493019795000,19.149794921875,3.267880916595459,-2.9610233306884766,0.9369368553161621
1700852493036785700,19.16678564453125,3.3734405040740967,-2.5260915756225586,-0.6425352096557617
1700852493053763000,19.18376318359375,3.666949510574341,-2.441984176635742,-2.085329055786133
1700852493070757600,19.200757568359375,3.8137896060943604,-2.454488754272461,-3.420388698577881
1700852493087760100,19.217760009765627,3.775851011276245,-2.3780431747436523,-4.157449722290039
1700852493104748000,19.234748046875,3.467865228652954,-2.0872926712036133,-4.698671340942383
1700852493121737000,19.251737060546876,2.9716906547546387,-1.8244309425354004,-5.103255271911621
1700852493138731800,19.268731689453126,2.7206099033355713,-1.64638090133667,-5.340229034423828
1700852493155721700,19.2857216796875,2.6950395107269287,-1.6687581539154053,-5.567659378051758
1700852493172710000,19.3027099609375,2.8486623764038086,-1.7719173431396484,-5.830233573913574
1700852493189697500,19.319697509765625,3.040121078491211,-1.9010920524597168,-5.976971626281738
1700852493206689800,19.336689697265626,3.274651527404785,-2.046863555908203,-5.975912094116211
1700852493223686000,19.353685791015625,3.7018423080444336,-2.4041526317596436,-5.722574234008789
1700852493240673800,19.370673828125,4.264719009399414,-2.7824342250823975,-5.385974884033203
1700852493257664500,19.38766455078125,4.4955034255981445,-3.2362141609191895,-5.104365348815918
1700852493274655200,19.4046552734375,4.368508338928223,-3.7573606967926025,-5.292587757110596
1700852493291646000,19.42164599609375,4.259987831115723,-4.441987037658691,-5.461935997009277
1700852493308637000,19.438636962890627,4.754187107086182,-4.924615859985352,-5.782217025756836
1700852493325631000,19.455630859375,5.340094089508057,-5.572405815124512,-5.3386640548706055
1700852493342614500,19.472614501953124,5.4032392501831055,-6.202489852905273,-3.837602138519287
1700852493359608800,19.48960888671875,4.147363662719727,-5.94080924987793,-4.065096855163574
1700852493376599300,19.506599365234376,2.5123138427734375,-5.9326863288879395,-5.204267501831055
1700852493393587700,19.523587646484376,1.8235830068588257,-6.492908000946045,-5.708681106567383
1700852493410583300,19.540583251953127,2.2165679931640625,-6.981903553009033,-5.248714923858643
1700852493427571700,19.55757177734375,3.049240827560425,-6.969307899475098,-3.940441131591797
1700852493444562200,19.574562255859377,2.930042028427124,-7.091344356536865,-1.7456965446472168
1700852493461542400,19.59154248046875,1.5949039459228516,-6.904604911804199,0.24293994903564453
1700852493478544000,19.6085439453125,-0.9978801012039185,-6.528283596038818,1.2252349853515625
1700852493495534600,19.62553466796875,-3.4891178607940674,-6.06941556930542,1.5435638427734375
1700852493512514300,19.642514404296875,-4.048598766326904,-5.7744035720825195,2.245931625366211
1700852493529515800,19.659515869140623,-2.2235684394836426,-5.39941930770874,3.5219292640686035
1700852493546506200,19.67650634765625,0.33438640832901,-4.655980110168457,4.721445560455322
1700852493563483000,19.69348291015625,1.9644519090652466,-3.0414319038391113,5.082613945007324
1700852493580485400,19.7104853515625,1.8918578624725342,-1.3342032432556152,5.130613803863525
1700852493597481000,19.72748095703125,1.0155246257781982,0.18657732009887695,5.3545942306518555
1700852493614469000,19.74446923828125,0.3329559564590454,1.775789737701416,5.354994297027588
1700852493631459800,19.7614599609375,-0.10591840744018555,2.7363200187683105,5.422852516174316
1700852493648451600,19.77845166015625,0.06474912166595459,3.3603343963623047,5.970634460449219
1700852493665441300,19.795441162109373,0.4488062858581543,3.7758283615112305,6.261911869049072
1700852493682421800,19.812421875,0.0714958906173706,3.764197826385498,6.371167182922363
1700852493699412000,19.829411865234373,-0.7455118894577026,3.6167702674865723,6.112934589385986
1700852493716413400,19.846413330078125,-1.249152421951294,3.386793613433838,6.263772964477539
1700852493733393400,19.863393310546876,-1.2858800888061523,3.493152141571045,6.632179260253906
1700852493750384000,19.880384033203125,-1.185929536819458,3.568660259246826,7.164384841918945
1700852493767384600,19.897384521484376,-1.1103256940841675,3.514221668243408,7.423299312591553
1700852493784391000,19.914390869140625,-0.6241369247436523,3.4239859580993652,7.988140106201172
1700852493801364200,19.9313642578125,-0.06164288520812988,3.5120205879211426,8.623123168945312
1700852493818360000,19.948360107421873,-0.2613469362258911,3.8683266639709473,9.478499412536621
1700852493835344600,19.9653447265625,-1.007195234298706,4.390362739562988,10.307427406311035
1700852493852339000,19.9823388671875,-1.9973782300949097,4.94581413269043,10.94693660736084
1700852493869319000,19.99931884765625,-2.5870375633239746,5.308053970336914,11.131738662719727
1700852493886320000,20.016320068359374,-2.584293842315674,5.2863993644714355,10.911587715148926
1700852493903311000,20.03331103515625,-2.3191614151000977,4.214303970336914,10.788619041442871
1700852493920291000,20.050291015625,-1.7631717920303345,2.511542797088623,10.219085693359375
1700852493937292500,20.06729248046875,-0.3243221044540405,1.1380186080932617,10.018779754638672
1700852493954285300,20.084285400390623,0.7615869045257568,0.07410621643066406,10.575174331665039
1700852493971260700,20.1012607421875,0.4254566431045532,-0.07856941223144531,10.893959045410156
1700852493988264400,20.118264404296873,-0.6633264422416687,-0.008610725402832031,10.983753204345703
1700852494005255000,20.1352548828125,-1.2483264207839966,-0.3328361511230469,10.605344772338867
1700852494022235000,20.15223486328125,-0.2542310953140259,-1.5295143127441406,10.225266456604004
1700852494039236400,20.169236328125,1.4437267780303955,-3.189507484436035,9.762117385864258
1700852494056216600,20.186216552734376,2.718931198120117,-4.640961170196533,8.696100234985352
1700852494073218000,20.203218017578124,3.382204532623291,-5.25695276260376,7.445154190063477
1700852494090198000,20.220197998046874,3.581540822982788,-4.737729549407959,5.586929798126221
1700852494107196400,20.237196533203125,3.5051727294921875,-3.95344877243042,3.2882676124572754
1700852494124192500,20.254192626953124,3.6010522842407227,-2.950599193572998,1.118171215057373
1700852494141180700,20.2711806640625,3.950037717819214,-2.09523344039917,-0.19991827011108398
1700852494158160600,20.28816064453125,3.8017117977142334,-1.6832027435302734,-1.149092197418213
1700852494175157800,20.30515771484375,3.1629536151885986,-1.542109489440918,-1.882962703704834
1700852494192156700,20.32215673828125,2.305419445037842,-1.3609752655029297,-2.5853734016418457
1700852494209143300,20.339143310546874,1.618429183959961,-1.3182868957519531,-3.2579498291015625
1700852494226132000,20.356132080078126,1.463014841079712,-1.3328213691711426,-3.9921698570251465
1700852494243126800,20.373126708984376,1.6255884170532227,-1.234198808670044,-4.520264148712158
1700852494260103700,20.390103759765626,1.7375363111495972,-1.2141892910003662,-5.001323223114014
1700852494277095700,20.407095703125,1.7870032787322998,-1.2731285095214844,-5.540184020996094
1700852494294098700,20.4240986328125,1.7463972568511963,-1.500868558883667,-5.846446990966797
1700852494311079000,20.441078857421875,1.9600661993026733,-1.7350208759307861,-5.952871322631836
1700852494328068000,20.458068115234376,2.4228291511535645,-1.941343069076538,-5.975912570953369
1700852494345060900,20.475060791015625,2.937161445617676,-2.1271092891693115,-5.9224090576171875
1700852494362062000,20.49206201171875,3.312624931335449,-2.5088539123535156,-5.7170000076293945
1700852494379040800,20.509040771484376,3.489640474319458,-2.97735857963562,-5.249557018280029
1700852494396040700,20.526040771484375,3.4543614387512207,-3.407924175262451,-4.8053765296936035
1700852494413034800,20.54303466796875,3.0877931118011475,-3.9265151023864746,-4.4266886711120605
1700852494430008600,20.560008544921875,2.8828177452087402,-4.155204772949219,-4.452714920043945
1700852494447013000,20.57701318359375,3.3506102561950684,-4.7571001052856445,-4.444859027862549
1700852494464003600,20.594003662109376,3.953937292098999,-6.023748397827148,-3.256747245788574
1700852494481006800,20.6110068359375,4.168709754943848,-6.499549388885498,-2.325979232788086
1700852494497982500,20.627982421875,3.7215025424957275,-6.188012599945068,-1.9658970832824707
1700852494514981000,20.644981201171873,2.163525104522705,-6.047348976135254,-2.26560640335083
1700852494531963400,20.66196337890625,0.5832398533821106,-6.155553340911865,-3.020906448364258
1700852494548957200,20.678957275390626,0.1266343593597412,-5.993943214416504,-2.9634013175964355
1700852494565934300,20.695934326171876,0.8726449012756348,-6.158254146575928,-1.4248046875
1700852494582941200,20.712941162109374,1.214486837387085,-6.3109540939331055,0.20689964294433594
1700852494599926500,20.729926513671874,0.7394604682922363,-6.064229965209961,1.1215028762817383
1700852494616922000,20.746922119140624,-0.208709716796875,-5.487504959106445,1.1191682815551758
1700852494633910500,20.76391064453125,-0.68598473072052,-4.807280540466309,1.0185956954956055
1700852494650901200,20.7809013671875,-0.3516000807285309,-4.083593368530273,1.7641582489013672
1700852494667892000,20.79789208984375,0.27723610401153564,-2.892054557800293,2.441859245300293
1700852494684885500,20.814885498046873,0.521499752998352,-1.6504688262939453,2.7258691787719727
1700852494701870300,20.831870361328125,0.3353224992752075,-0.40394020080566406,2.678346633911133
1700852494718864000,20.84886376953125,0.11900761723518372,0.6857781410217285,2.606710910797119
1700852494735852000,20.86585205078125,-0.034311920404434204,1.4821395874023438,2.633258819580078
1700852494752848000,20.882847900390626,-0.00856161117553711,2.0023508071899414,3.1916956901550293
1700852494769836000,20.8998359375,-0.1134084165096283,2.3961129188537598,4.266870975494385
1700852494786824200,20.91682421875,-0.5971083641052246,2.8011717796325684,5.044648170471191
1700852494803817500,20.9338173828125,-1.0352258682250977,3.1869702339172363,5.438563346862793
1700852494820799700,20.9507998046875,-1.04653000831604,3.2762632369995117,5.881601810455322
1700852494837798700,20.967798583984376,-0.43437808752059937,3.4935150146484375,6.279836654663086
1700852494854790000,20.984789794921873,0.012722454965114594,3.7382235527038574,6.6711201667785645
1700852494871779300,21.001779296875,0.5070195198059082,3.9936752319335938,7.612758159637451
1700852494888758800,21.0187587890625,0.643176257610321,4.409211158752441,8.971843719482422
1700852494905755000,21.0357548828125,0.35136938095092773,5.052696704864502,10.33353328704834
1700852494922745300,21.052745361328125,0.33881551027297974,6.13463830947876,11.09245777130127
1700852494939735800,21.06973583984375,0.3622622787952423,6.963143348693848,11.238967895507812
1700852494956722400,21.086722412109374,0.26492875814437866,7.4230241775512695,11.125774383544922
1700852494973718000,21.103718017578124,-0.18392044305801392,7.503015518188477,10.751604080200195
1700852494990706200,21.1207060546875,-0.6154619455337524,7.347104072570801,10.338364601135254
1700852495007693300,21.137693359375,-0.9003444314002991,6.918341159820557,10.183232307434082
1700852495024695300,21.1546953125,-0.8091930747032166,5.490647792816162,10.385303497314453
1700852495041676300,21.17167626953125,-0.41020315885543823,3.844627857208252,9.979313850402832
1700852495058666500,21.18866650390625,0.29625576734542847,2.8887171745300293,9.531027793884277
1700852495075658000,21.205657958984375,0.9052367806434631,1.6072649955749512,10.521563529968262
1700852495092653300,21.2226533203125,1.190766453742981,1.0226750373840332,11.290714263916016
1700852495109639400,21.239639404296874,1.3520451784133911,0.5553436279296875,11.731867790222168
1700852495126635000,21.256635009765624,1.4609582424163818,-0.10667991638183594,11.780899047851562
1700852495143618000,21.2736181640625,2.0835564136505127,-0.9183864593505859,11.386476516723633
1700852495160613600,21.290613525390626,2.7857155799865723,-2.1977806091308594,10.973334312438965
1700852495177610200,21.3076103515625,3.0612447261810303,-3.7335591316223145,10.494714736938477
1700852495194601200,21.324601318359374,2.7307777404785156,-4.613945007324219,9.019564628601074
1700852495211581700,21.341581787109376,2.446969509124756,-4.5618743896484375,6.960868835449219
1700852495228579300,21.358579345703124,2.6167008876800537,-3.9538955688476562,5.043891906738281
1700852495245567000,21.37556689453125,2.9048476219177246,-3.340534210205078,3.1524815559387207
1700852495262563000,21.39256298828125,2.873957395553589,-3.0354747772216797,1.4360427856445312
1700852495279548400,21.40954833984375,2.6172378063201904,-3.0402112007141113,-0.01784038543701172
1700852495296547300,21.42654736328125,2.2341015338897705,-3.163485050201416,-1.3885269165039062
1700852495313537500,21.44353759765625,1.9783387184143066,-3.276869297027588,-2.647911548614502
1700852495330517800,21.460517822265626,2.0968921184539795,-3.3747200965881348,-3.5254902839660645
1700852495347515600,21.477515625,2.426755428314209,-3.5288023948669434,-4.142276763916016
1700852495364513000,21.494512939453124,2.797667980194092,-3.771824836730957,-4.637157917022705
1700852495381500400,21.51150048828125,3.1005067825317383,-4.010316848754883,-5.2554731369018555
1700852495398491400,21.528491455078125,3.153456687927246,-4.0864973068237305,-6.012564659118652
1700852495415480000,21.54547998046875,3.1521859169006348,-4.074236869812012,-6.4356584548950195
1700852495432467000,21.562467041015626,2.992713451385498,-4.191561222076416,-6.499576568603516
1700852495449459200,21.579459228515624,2.90568208694458,-4.353825092315674,-6.502198219299316
1700852495466453800,21.596453857421874,2.9926583766937256,-4.653858661651611,-6.243769645690918
1700852495483444200,21.6134443359375,3.151789665222168,-4.968628406524658,-5.929609775543213
1700852495500435500,21.630435546875,3.1901721954345703,-5.222242832183838,-5.887060165405273
1700852495517410000,21.64741015625,3.15878963470459,-5.430603981018066,-6.050632953643799
1700852495534413800,21.664413818359375,3.1059696674346924,-5.650238037109375,-6.251878261566162
1700852495551410000,21.681409912109373,3.336073398590088,-5.7118821144104,-6.340217590332031
1700852495568397800,21.698397705078126,3.9213943481445312,-5.9262495040893555,-5.346870422363281
1700852495585385500,21.715385498046874,3.693559169769287,-6.523675441741943,-3.5403432846069336
