time,seconds_elapsed,z,y,x
1700852509279811300,0.105811279296875,-0.698646068572998,-0.3065342903137207,0.023999333381652832
1700852509296810800,0.122810791015625,-0.1737813949584961,-0.31287431716918945,-0.04094886779785156
1700852509313774800,0.13977490234375,0.24688291549682617,-0.26699209213256836,0.05837452411651611
1700852509330781200,0.15678125,0.3040146827697754,-0.24995899200439453,0.25010573863983154
1700852509347773000,0.17377294921875,0.1386280059814453,-0.28546953201293945,0.4150888919830322
1700852509364770000,0.19077001953125,-0.5236635208129883,-0.42221879959106445,0.5054008960723877
1700852509381740300,0.207740234375,-1.254058837890625,-0.6133651733398438,0.5529706478118896
1700852509398745600,0.22474560546875,-1.6349687576293945,-0.8749961853027344,0.2854461669921875
1700852509415737300,0.2417373046875,-1.3561887741088867,-1.3197011947631836,0.0016614198684692383
1700852509432716800,0.258716796875,-0.9373974800109863,-1.9151661396026611,0.22660839557647705
1700852509449716700,0.275716796875,-0.13039875030517578,-2.678337574005127,0.3836253881454468
1700852509466708700,0.292708740234375,0.25635290145874023,-3.48414945602417,-0.3128666877746582
1700852509483695000,0.309695068359375,-1.780125617980957,-3.9086713790893555,-1.3940603733062744
1700852509500679000,0.326678955078125,-4.53587532043457,-4.339005470275879,-1.7503304481506348
1700852509517677000,0.343677001953125,-5.842541217803955,-4.532201766967773,-1.3687677383422852
1700852509534669300,0.36066943359375,-5.158442497253418,-4.99127197265625,-1.4931859970092773
1700852509551665700,0.377665771484375,-2.7691502571105957,-5.487483501434326,-1.5854403972625732
1700852509568650200,0.394650146484375,-0.4754347801208496,-5.904570579528809,-1.7918400764465332
1700852509585651500,0.4116513671875,0.15775203704833984,-6.079970836639404,-2.265221118927002
1700852509602630400,0.42863037109375,-1.6273715496063232,-6.442416191101074,-2.498826265335083
1700852509619622000,0.445621826171875,-3.279813528060913,-6.375275135040283,-2.09783935546875
1700852509636614100,0.4626142578125,-4.636221885681152,-6.384870529174805,-1.349776268005371
1700852509653600500,0.4796005859375,-3.9903881549835205,-6.437533378601074,-1.2623233795166016
1700852509670596600,0.4965966796875,-1.3540983200073242,-6.231515884399414,-1.391195297241211
1700852509687584300,0.513584228515625,0.5939722061157227,-5.766448497772217,-0.6525692939758301
1700852509704572400,0.530572509765625,0.5188376903533936,-5.177875518798828,0.9969606399536133
1700852509721571300,0.5475712890625,-0.8881267309188843,-4.43968391418457,2.7046165466308594
1700852509738557700,0.5645576171875,-2.245457172393799,-4.104387283325195,3.495227813720703
1700852509755544800,0.581544921875,-1.0761618614196777,-3.7332539558410645,3.8077497482299805
1700852509772537600,0.59853759765625,0.9084709882736206,-3.4810845851898193,4.160418510437012
1700852509789527800,0.61552783203125,3.4389424324035645,-2.3195126056671143,4.396414756774902
1700852509806519300,0.632519287109375,4.459373950958252,-1.2259488105773926,5.73970890045166
1700852509823505700,0.649505615234375,3.970555305480957,-0.3296842575073242,7.532761573791504
1700852509840498400,0.66649853515625,2.377711296081543,0.26594114303588867,8.446187019348145
1700852509857490700,0.68349072265625,0.8042391538619995,0.7762489318847656,8.08255672454834
1700852509874462500,0.70046240234375,0.8803967237472534,1.268301010131836,7.579074859619141
1700852509891471000,0.71747119140625,1.605460524559021,1.9663418531417847,6.618138313293457
1700852509908458800,0.734458740234375,2.111295700073242,2.3494713306427,6.517641067504883
1700852509925454800,0.751454833984375,2.249626398086548,2.9232892990112305,6.826061248779297
1700852509942439400,0.768439453125,1.507972002029419,3.3929452896118164,7.147854804992676
1700852509959421700,0.785421630859375,0.08679020404815674,3.807969093322754,7.487257480621338
1700852509976421600,0.802421630859375,-0.7044166326522827,4.351196765899658,7.639054775238037
1700852509993413400,0.819413330078125,-0.68785560131073,4.754469394683838,7.814896106719971
1700852510010403800,0.83640380859375,-0.20745277404785156,5.059255123138428,7.823166370391846
1700852510027393500,0.8533935546875,0.22951817512512207,5.204221248626709,7.575699329376221
1700852510044385000,0.870385009765625,0.3078368902206421,5.131808757781982,7.027327537536621
1700852510061376300,0.887376220703125,-0.18163275718688965,4.9375176429748535,6.471464157104492
1700852510078364200,0.9043642578125,-0.8957186937332153,4.625892639160156,6.318414688110352
1700852510095361000,0.921361083984375,-1.1155643463134766,4.716957092285156,5.671507835388184
1700852510112344300,0.93834423828125,-1.5893700122833252,4.550642967224121,4.871438980102539
1700852510129337300,0.95533740234375,-1.8767025470733643,4.19497013092041,4.2211761474609375
1700852510146326800,0.972326904296875,-1.4353911876678467,3.874006986618042,3.3041434288024902
1700852510163318300,0.989318359375,0.28339099884033203,2.7485404014587402,3.065093994140625
1700852510180306700,1.006306640625,1.193839430809021,1.4895615577697754,3.8266539573669434
1700852510197301000,1.023301025390625,0.4165583848953247,0.9965391159057617,3.5090651512145996
1700852510214287600,1.04028759765625,-2.232088565826416,1.159210205078125,1.9970722198486328
1700852510231281200,1.05728125,-4.0496649742126465,0.39739370346069336,1.0966219902038574
1700852510248271000,1.07427099609375,-2.5778703689575195,-0.5917539596557617,0.12009382247924805
1700852510265263000,1.09126318359375,0.6383194923400879,-1.6625561714172363,-0.1140742301940918
1700852510282249700,1.108249755859375,2.1056580543518066,-2.4801363945007324,0.08725547790527344
1700852510299242800,1.12524267578125,1.5273224115371704,-3.1374597549438477,0.0948481559753418
1700852510316234000,1.14223388671875,0.05172157287597656,-3.513763904571533,-0.8003568649291992
1700852510333222100,1.15922216796875,-0.21861565113067627,-3.9507360458374023,-1.9458584785461426
1700852510350209500,1.17620947265625,1.0217392444610596,-4.087662220001221,-2.4638609886169434
1700852510367203600,1.19320361328125,2.326455593109131,-3.9497194290161133,-2.0039496421813965
1700852510384195300,1.2101953125,2.7205393314361572,-3.7285499572753906,-1.4904918670654297
1700852510401186300,1.227186279296875,1.7479863166809082,-3.355956554412842,-1.9763102531433105
1700852510418176300,1.24417626953125,0.22930079698562622,-3.0393123626708984,-3.0281119346618652
1700852510435168300,1.261168212890625,-0.0997304916381836,-3.064985752105713,-3.417597532272339
1700852510452155000,1.27815478515625,1.22772216796875,-2.9897732734680176,-2.9017176628112793
1700852510469145600,1.2951455078125,2.4061460494995117,-2.742405891418457,-2.0556583404541016
1700852510486142000,1.312141845703125,2.285219192504883,-2.0838332176208496,-1.2488503456115723
1700852510503126500,1.32912646484375,0.7938723564147949,-0.938901424407959,-1.5664124488830566
1700852510520117800,1.34611767578125,-1.2289751768112183,0.4285707473754883,-2.589925765991211
1700852510537110800,1.36311083984375,-2.6371259689331055,1.4032354354858398,-3.26052188873291
1700852510554090200,1.38009033203125,-2.7848927974700928,1.8165717124938965,-3.413832426071167
1700852510571094500,1.397094482421875,-1.452751636505127,1.9920382499694824,-3.085014820098877
1700852510588082200,1.414082275390625,-0.48014259338378906,2.1905064582824707,-1.8165760040283203
1700852510605078800,1.431078857421875,-0.44707250595092773,3.1396126747131348,-0.20432376861572266
1700852510622060500,1.448060546875,-1.3558659553527832,4.049436569213867,0.2664923667907715
1700852510639053000,1.465052978515625,-3.175786018371582,4.464102745056152,0.2788581848144531
1700852510656045000,1.482045166015625,-4.136453628540039,4.478961944580078,0.7331552505493164
1700852510673032000,1.499031982421875,-4.099860668182373,4.301095485687256,1.715162754058838
1700852510690014500,1.516014404296875,-3.3200340270996094,3.9977104663848877,3.1189169883728027
1700852510707016700,1.5330166015625,-2.4499096870422363,3.7351698875427246,5.088657379150391
1700852510724003000,1.550003173828125,-1.6148682832717896,3.6734976768493652,5.757453441619873
1700852510740986400,1.566986328125,-1.7141907215118408,3.5075201988220215,5.568225860595703
1700852510757982700,1.583982666015625,-1.8943082094192505,3.498867988586426,4.945646286010742
1700852510774983200,1.600983154296875,-1.8838386535644531,3.437629222869873,4.651309013366699
1700852510791959000,1.617958984375,-1.6345609426498413,3.371213912963867,4.766740322113037
1700852510808958000,1.6349580078125,-0.17192065715789795,3.043811321258545,5.057994842529297
1700852510825950200,1.6519501953125,1.5433597564697266,3.087827682495117,5.007009983062744
1700852510842929000,1.668928955078125,1.1757478713989258,2.597294330596924,4.654212474822998
1700852510859929600,1.6859296875,-0.11380720138549805,1.978325366973877,5.132801055908203
1700852510876921900,1.702921875,-1.3371690511703491,1.3311705589294434,6.1221022605896
1700852510893908200,1.719908203125,-2.321352005004883,1.0944881439208984,6.4087300300598145
1700852510910900700,1.736900634765625,-2.2790541648864746,0.8031415939331055,6.94565486907959
1700852510927889700,1.7538896484375,-1.929762601852417,-0.19001293182373047,7.591577529907227
1700852510944884000,1.770884033203125,-1.286706566810608,-1.9560208320617676,8.484582901000977
1700852510961862400,1.7878623046875,-0.8470867872238159,-2.7909417152404785,8.250947952270508
1700852510978865400,1.804865478515625,-0.37341564893722534,-2.7441067695617676,7.871185302734375
1700852510995851800,1.821851806640625,0.24438881874084473,-2.886673927307129,7.9419169425964355
1700852511012836900,1.8388369140625,0.8915364742279053,-3.9404497146606445,9.074201583862305
1700852511029825800,1.85582568359375,1.3421156406402588,-5.161106109619141,9.452413558959961
1700852511046824000,1.872823974609375,1.2550532817840576,-6.098001480102539,8.486021041870117
1700852511063816000,1.88981591796875,1.4081493616104126,-6.422563552856445,6.744463920593262
1700852511080808700,1.90680859375,2.059692621231079,-6.197189807891846,4.502229690551758
1700852511097795000,1.923795166015625,2.736422061920166,-5.834564685821533,2.061899185180664
1700852511114795000,1.940794921875,3.6277642250061035,-5.368868827819824,0.41919422149658203
1700852511131773000,1.95777294921875,4.412498474121094,-4.886335372924805,-0.7142715454101562
1700852511148766500,1.974766357421875,4.561523914337158,-4.289567947387695,-2.137352466583252
1700852511165763000,1.99176318359375,4.148663520812988,-3.7394912242889404,-3.6541452407836914
1700852511182737200,2.008737060546875,3.4163472652435303,-3.4724419116973877,-4.911191463470459
1700852511199742500,2.025742431640625,3.0877926349639893,-3.324781894683838,-5.929732799530029
1700852511216728000,2.04272802734375,3.1473805904388428,-3.3350346088409424,-6.704684257507324
1700852511233715000,2.05971484375,3.7344446182250977,-3.3870372772216797,-6.784285545349121
1700852511250715600,2.076715576171875,4.211093902587891,-3.312194585800171,-6.899479866027832
1700852511267700200,2.0937001953125,4.170517921447754,-3.355724573135376,-7.039528846740723
1700852511284682000,2.110681884765625,3.8973569869995117,-3.5598297119140625,-7.151274681091309
1700852511301675500,2.127675537109375,3.637845993041992,-3.8685302734375,-7.071624755859375
1700852511318673400,2.14467333984375,3.4305837154388428,-4.39293909072876,-7.072314739227295
1700852511335663400,2.161663330078125,3.590989351272583,-4.76413106918335,-7.11964225769043
1700852511352647200,2.178647216796875,3.9802935123443604,-5.024168491363525,-6.960119724273682
1700852511369645000,2.19564501953125,4.225981712341309,-5.393235206604004,-6.887361526489258
1700852511386637000,2.212636962890625,4.25446081161499,-5.885900020599365,-6.749703407287598
1700852511403623700,2.229623779296875,4.230210304260254,-6.562134742736816,-6.686772346496582
1700852511420617200,2.2466171875,4.401726722717285,-7.214663505554199,-6.648557186126709
1700852511437604000,2.26360400390625,4.982525825500488,-7.514760971069336,-6.28560733795166
1700852511454594600,2.280594482421875,5.470100402832031,-7.994317531585693,-4.801257133483887
1700852511471568600,2.297568603515625,5.44442081451416,-8.817004203796387,-2.554166316986084
1700852511488579600,2.31457958984375,4.426146507263184,-9.491316795349121,-1.5851898193359375
1700852511505572600,2.331572509765625,3.914923667907715,-9.649192810058594,-1.3353986740112305
1700852511522543900,2.3485439453125,3.553593635559082,-9.661202430725098,-1.284123420715332
1700852511539540500,2.36554052734375,3.284156084060669,-9.871418952941895,-0.4191875457763672
1700852511556541200,2.382541259765625,2.870091199874878,-9.814834594726562,1.1985645294189453
1700852511573528300,2.3995283203125,2.085646390914917,-9.300156593322754,3.347712516784668
1700852511590522000,2.416522216796875,1.2143597602844238,-8.622308731079102,4.703152656555176
1700852511607512300,2.43351220703125,0.507748007774353,-7.908994674682617,5.1247968673706055
1700852511624502000,2.450501953125,0.06196732819080353,-7.156197547912598,5.462289810180664
1700852511641483500,2.4674833984375,0.008653787896037102,-6.388193130493164,5.33120059967041
1700852511658481200,2.484481201171875,0.43544313311576843,-5.623096942901611,5.184819221496582
1700852511675478500,2.501478515625,1.4160808324813843,-4.389522075653076,5.293750286102295
1700852511692456700,2.518456787109375,2.0026490688323975,-2.57521915435791,5.267428398132324
1700852511709455400,2.535455322265625,1.757496953010559,-0.558687686920166,4.886229515075684
1700852511726447600,2.552447509765625,1.2394853830337524,1.2938079833984375,4.604022026062012
1700852511743434000,2.56943408203125,0.7890059947967529,2.6588668823242188,4.5358991622924805
1700852511760426800,2.5864267578125,0.6309492588043213,3.422436237335205,4.700787544250488
1700852511777418500,2.60341845703125,0.8637197017669678,3.699467182159424,5.166798114776611
1700852511794406000,2.620406005859375,1.2719411849975586,3.998002052307129,5.75990104675293
1700852511811394000,2.63739404296875,1.2144720554351807,4.429685592651367,5.256850719451904
1700852511828380400,2.65438037109375,1.2108731269836426,4.859142303466797,5.124189376831055
1700852511845377500,2.67137744140625,1.3594247102737427,5.023438453674316,5.580969333648682
1700852511862362000,2.688362060546875,1.654921054840088,5.07844352722168,6.367435932159424
1700852511879344000,2.70534423828125,1.593092918395996,5.146612644195557,7.048114776611328
1700852511896347000,2.722346923828125,1.485602855682373,5.454635143280029,7.2565155029296875
1700852511913334800,2.739334716796875,1.331024169921875,5.835677146911621,7.745754241943359
1700852511930328300,2.756328369140625,1.2705776691436768,5.960169792175293,8.678354263305664
1700852511947324200,2.77332421875,1.704620361328125,6.02860164642334,9.659675598144531
1700852511964310800,2.790310791015625,2.064265489578247,6.316875457763672,10.195459365844727
1700852511981306600,2.807306640625,1.9961085319519043,6.302228927612305,10.99625015258789
1700852511998291500,2.82429150390625,1.2716736793518066,6.892088890075684,11.213170051574707
1700852512015275800,2.84127587890625,0.40287476778030396,7.038298606872559,10.942293167114258
1700852512032272600,2.858272705078125,-0.12328264117240906,6.2686567306518555,10.8734769821167
1700852512049265400,2.875265380859375,-0.2384432554244995,4.251449108123779,10.791953086853027
1700852512066251800,2.892251708984375,0.043924860656261444,2.764575958251953,9.38201904296875
1700852512083241500,2.909241455078125,0.8631256818771362,1.6936421394348145,8.70431137084961
1700852512100239600,2.926239501953125,1.4310121536254883,0.8459081649780273,8.729986190795898
1700852512117229000,2.94322900390625,1.6524139642715454,-0.21488571166992188,9.242792129516602
1700852512134215700,2.960215576171875,1.3816275596618652,-1.2298884391784668,9.369903564453125
1700852512151199200,2.97719921875,0.78209388256073,-1.972745418548584,9.100536346435547
1700852512168199000,2.994198974609375,0.12085890769958496,-2.691102981567383,8.86181640625
1700852512185191200,3.011191162109375,0.18380385637283325,-3.6011228561401367,8.712874412536621
1700852512202177800,3.028177734375,0.9651178121566772,-5.424099445343018,8.806537628173828
1700852512219171000,3.045171142578125,2.005593776702881,-7.766986846923828,9.745083808898926
1700852512236162300,3.062162353515625,1.7799992561340332,-8.585561752319336,8.287863731384277
1700852512253149000,3.07914892578125,1.2772432565689087,-8.195281028747559,6.130937576293945
1700852512270142200,3.09614208984375,1.2790915966033936,-7.514621734619141,4.066253662109375
1700852512287123700,3.113123779296875,1.831835150718689,-6.841615676879883,1.990041732788086
1700852512304120800,3.130120849609375,2.3358497619628906,-6.603509902954102,0.1425800323486328
1700852512321120500,3.14712060546875,2.9031271934509277,-6.555100917816162,-1.1957530975341797
1700852512338087700,3.164087646484375,3.400710105895996,-6.371105194091797,-2.8262863159179688
1700852512355088600,3.181088623046875,3.48697566986084,-5.941799163818359,-4.661375999450684
1700852512372086300,3.198086181640625,3.1916399002075195,-5.620512008666992,-6.0140461921691895
1700852512389076700,3.21507666015625,2.84507417678833,-5.2624006271362305,-7.023278713226318
1700852512406067500,3.2320673828125,2.5451531410217285,-4.996919631958008,-7.67714786529541
1700852512423044900,3.249044921875,2.4614577293395996,-4.829702377319336,-7.8764777183532715
1700852512440049000,3.266048828125,2.587827205657959,-4.7158308029174805,-7.801037788391113
1700852512457041200,3.283041259765625,3.020312786102295,-4.573312759399414,-7.666400909423828
1700852512474019000,3.30001904296875,3.367837429046631,-4.4839582443237305,-7.461522579193115
1700852512491019800,3.317019775390625,3.7143921852111816,-4.490279674530029,-7.238150596618652
1700852512508010200,3.33401025390625,4.00792121887207,-4.68572998046875,-6.858415603637695
1700852512524990200,3.350990234375,4.276283264160156,-4.9595489501953125,-6.27881383895874
1700852512541980700,3.367980712890625,4.671257019042969,-5.233110427856445,-5.451813220977783
1700852512558979000,3.38497900390625,5.1917619705200195,-5.269654750823975,-4.641984939575195
1700852512575975000,3.401974853515625,5.104344367980957,-5.429440975189209,-4.104413986206055
1700852512592962800,3.418962890625,4.99488639831543,-5.675540924072266,-3.992286205291748
1700852512609953300,3.435953369140625,5.149445533752441,-6.270481586456299,-3.5684595108032227
1700852512626943700,3.45294384765625,5.628870487213135,-7.076177597045898,-2.7093610763549805
1700852512643935200,3.469935302734375,5.407018661499023,-7.5225958824157715,-1.8818631172180176
1700852512660924000,3.486923828125,4.0415496826171875,-7.433033466339111,-2.3390579223632812
1700852512677915600,3.50391552734375,2.9607207775115967,-7.5602335929870605,-2.788893222808838
1700852512694903600,3.520903564453125,1.9814646244049072,-7.780420780181885,-2.650235652923584
1700852512711888100,3.53788818359375,1.406219244003296,-7.982898235321045,-1.781029224395752
1700852512728873700,3.554873779296875,1.7095942497253418,-7.953240394592285,-0.38399410247802734
1700852512745875500,3.57187548828125,1.5916516780853271,-7.685474872589111,1.107187271118164
1700852512762857700,3.588857666015625,1.201014518737793,-7.420901775360107,2.567568778991699
1700852512779853300,3.605853271484375,0.6809719800949097,-7.1950788497924805,3.047506332397461
1700852512796842800,3.6228427734375,0.7287473678588867,-6.933662414550781,2.9022769927978516
1700852512813831700,3.639831787109375,1.5839858055114746,-6.411893844604492,2.403517723083496
1700852512830823700,3.65682373046875,2.620965003967285,-5.377645492553711,2.2559919357299805
1700852512847816700,3.673816650390625,2.8397459983825684,-3.9728622436523438,2.337540626525879
1700852512864804400,3.690804443359375,2.0706655979156494,-2.386092185974121,2.631267547607422
1700852512881791000,3.707791015625,0.4769188463687897,-0.9050612449645996,3.0065603256225586
1700852512898780700,3.72478076171875,-1.3544251918792725,0.5141973495483398,3.080476760864258
1700852512915778600,3.741778564453125,-2.438366413116455,1.36210298538208,3.3331375122070312
1700852512932764400,3.758764404296875,-2.08994460105896,1.7635674476623535,3.7468647956848145
1700852512949752000,3.775751953125,-0.98992919921875,1.9271340370178223,4.090508937835693
1700852512966750700,3.792750732421875,0.19911813735961914,2.173708438873291,4.227432727813721
1700852512983736600,3.809736572265625,0.6013458967208862,2.4717330932617188,4.293223857879639
1700852513000732200,3.826732177734375,0.5931994915008545,2.8700056076049805,4.571808815002441
1700852513017720600,3.843720458984375,0.6447254419326782,3.3752870559692383,5.662537097930908
1700852513034711300,3.860711181640625,0.3006461560726166,4.078530788421631,7.550785541534424
1700852513051696400,3.8776962890625,-0.3271385133266449,4.757981300354004,8.757928848266602
1700852513068693200,3.894693359375,-0.5848342180252075,5.341953277587891,9.175920486450195
1700852513085681000,3.911680908203125,-0.4362153112888336,5.655228614807129,9.338483810424805
1700852513102683000,3.928682861328125,0.019665732979774475,5.807374000549316,9.395764350891113
1700852513119668700,3.945668701171875,0.5700180530548096,5.7317047119140625,9.666045188903809
1700852513136659200,3.9626591796875,0.6559168100357056,5.602136611938477,9.926797866821289
1700852513153651200,3.979651123046875,0.28977471590042114,5.691454887390137,9.506351470947266
1700852513170638000,3.99663818359375,-0.08602365851402283,5.850918769836426,8.690652847290039
1700852513187627800,4.013627685546875,0.00457531213760376,5.343271255493164,8.341398239135742
1700852513204625700,4.030625732421875,0.35850995779037476,3.9028849601745605,8.866501808166504
1700852513221601500,4.0476015625,0.7278429865837097,3.1354455947875977,8.758856773376465
1700852513238599400,4.064599365234375,0.7295867800712585,2.4616665840148926,9.210811614990234
1700852513255595300,4.08159521484375,0.1985872983932495,2.3894271850585938,9.17977237701416
1700852513272570600,4.098570556640625,-0.4899262487888336,2.2058539390563965,8.76854133605957
1700852513289576400,4.115576416015625,-0.6867673397064209,1.358445644378662,8.65743637084961
1700852513306564000,4.132564208984375,-0.16402912139892578,-0.09868192672729492,8.687211990356445
1700852513323544600,4.149544677734375,0.36654627323150635,-2.162792682647705,8.937533378601074
1700852513340542700,4.166542724609375,0.9612470269203186,-3.9893903732299805,9.01101303100586
1700852513357535500,4.183535400390625,1.2343649864196777,-4.943379878997803,8.606454849243164
1700852513374528300,4.2005283203125,1.640960693359375,-5.385223865509033,7.8826518058776855
1700852513391522800,4.217522705078125,2.0082626342773438,-5.186731338500977,6.949155807495117
1700852513408509200,4.23450927734375,2.25803804397583,-4.551170825958252,5.2782511711120605
1700852513425500200,4.251500244140625,2.6372838020324707,-4.144772529602051,3.7090959548950195
1700852513442488000,4.268488037109375,2.8860909938812256,-4.113341331481934,2.2632713317871094
1700852513459478800,4.285478759765625,3.122667074203491,-4.2405171394348145,0.7046041488647461
1700852513476469200,4.30246923828125,3.31252384185791,-4.486387252807617,-0.9362974166870117
1700852513493459700,4.319459716796875,3.503396987915039,-4.470587730407715,-2.556600570678711
1700852513510450200,4.3364501953125,3.44710111618042,-4.289340496063232,-3.7966723442077637
1700852513527440600,4.353440673828125,3.3891000747680664,-3.8816378116607666,-4.755796432495117
1700852513544431000,4.37043115234375,3.1963720321655273,-3.4795665740966797,-5.470836639404297
1700852513561421800,4.387421875,2.9802603721618652,-3.1069388389587402,-6.093130111694336
1700852513578410000,4.404409912109375,2.816601276397705,-2.9101195335388184,-6.4214630126953125
1700852513595404800,4.42140478515625,2.788700819015503,-2.8578851222991943,-6.632631301879883
1700852513612394800,4.438394775390625,2.8675758838653564,-2.8932929039001465,-6.586258888244629
1700852513629383700,4.4553837890625,3.097209930419922,-2.9656310081481934,-6.329083442687988
1700852513646374100,4.4723740234375,3.602749824523926,-3.0161514282226562,-6.4427642822265625
1700852513663364900,4.48936474609375,3.807600736618042,-3.3524329662323,-6.562633991241455
1700852513680355000,4.50635498046875,4.097574234008789,-3.9375216960906982,-6.359327793121338
1700852513697348000,4.52334814453125,4.337189197540283,-4.6578216552734375,-5.893981456756592
1700852513714337000,4.5403369140625,4.383357524871826,-5.374862194061279,-5.153018951416016
1700852513731323600,4.55732373046875,4.835965156555176,-5.696270942687988,-4.44594669342041
1700852513748320500,4.574320556640625,5.332101821899414,-5.837764739990234,-4.169341564178467
1700852513765306600,4.591306640625,5.592167854309082,-6.2291107177734375,-4.207693099975586
1700852513782295800,4.6082958984375,5.63480281829834,-6.808566093444824,-4.585052013397217
1700852513799286500,4.62528662109375,5.512600898742676,-7.423922061920166,-4.479434967041016
1700852513816280000,4.642280029296875,5.00789737701416,-8.033710479736328,-3.04060697555542
1700852513833271300,4.659271240234375,4.049079895019531,-7.852938652038574,-1.4911937713623047
1700852513850260200,4.67626025390625,2.0842928886413574,-7.159076690673828,-1.079911231994629
1700852513867251200,4.693251220703125,0.12156355381011963,-6.616546154022217,-1.181253433227539
1700852513884240600,4.71024072265625,-0.7772412300109863,-6.512749671936035,-0.9441795349121094
1700852513901227300,4.727227294921875,0.23360437154769897,-6.6390228271484375,0.045833587646484375
1700852513918222000,4.74422216796875,1.5586843490600586,-6.7482805252075195,1.6607627868652344
1700852513935202600,4.76120263671875,2.037588357925415,-6.250258445739746,2.5354576110839844
1700852513952203300,4.778203369140625,1.4712755680084229,-5.202853202819824,2.1738739013671875
1700852513969194000,4.795194091796875,0.36428549885749817,-3.921722888946533,1.3556928634643555
1700852513986184400,4.812184326171875,-0.21290457248687744,-2.7063894271850586,0.7692251205444336
1700852514003175000,4.8291748046875,-0.10459229350090027,-1.6318559646606445,1.0584650039672852
1700852514020170800,4.846170654296875,0.33452439308166504,-0.6095952987670898,1.8813409805297852
1700852514037155600,4.863155517578125,0.8281552791595459,0.4582405090332031,2.501539707183838
1700852514054134300,4.88013427734375,0.6703101992607117,1.1943507194519043,2.737773895263672
1700852514071122700,4.897122802734375,0.3511148691177368,1.6375179290771484,2.8445310592651367
1700852514088127200,4.914127197265625,0.2024965137243271,1.893455982208252,3.5601906776428223
1700852514105117700,4.93111767578125,-0.0966479480266571,2.0741357803344727,4.49560022354126
1700852514122108200,4.948108154296875,-0.2355736941099167,2.640688896179199,5.252514839172363
1700852514139097900,4.965097900390625,-0.5901951193809509,2.9725747108459473,5.6694183349609375
1700852514156089000,4.982089111328125,-0.36965009570121765,3.1636834144592285,6.029558181762695
1700852514173069600,4.999069580078125,0.2797778248786926,3.239767074584961,6.621893882751465
1700852514190070500,5.016070556640625,0.7009882926940918,3.358887195587158,7.247103214263916
1700852514207060700,5.033060791015625,0.9094138741493225,3.8169021606445312,7.716133117675781
1700852514224051200,5.05005126953125,0.8763768672943115,4.323679447174072,8.189155578613281
1700852514241042000,5.0670419921875,1.040488600730896,4.648830413818359,8.710958480834961
1700852514258032400,5.084032470703125,1.192760944366455,4.66042423248291,9.2599515914917
1700852514275020300,5.101020263671875,1.0060865879058838,4.831326007843018,9.493988037109375
1700852514292022500,5.1180224609375,0.21599946916103363,5.208004474639893,9.455137252807617
1700852514309004000,5.135004150390625,-0.7929172515869141,5.195369720458984,9.333511352539062
1700852514325994200,5.151994140625,-1.0578113794326782,3.8534374237060547,9.686031341552734
1700852514342985000,5.16898486328125,-0.20549044013023376,2.7623291015625,9.935766220092773
1700852514359975200,5.18597509765625,0.43534743785858154,2.2313036918640137,9.825891494750977
1700852514376955100,5.202955078125,0.2801722288131714,2.094296932220459,9.675161361694336
1700852514393956400,5.219956298828125,-0.2423698604106903,2.156510353088379,9.130218505859375
1700852514410946600,5.236946533203125,-0.4086896479129791,1.690150260925293,8.636467933654785
1700852514427937300,5.253937255859375,-0.19789481163024902,0.571169376373291,8.349170684814453
1700852514444917500,5.27091748046875,0.1821458339691162,-0.9608883857727051,8.182119369506836
1700852514461907700,5.28790771484375,0.9047865867614746,-2.319056987762451,7.796346187591553
1700852514478907100,5.3049072265625,1.9274040460586548,-3.254948139190674,6.9098005294799805
1700852514495898600,5.321898681640625,2.9282097816467285,-3.809117317199707,6.11484956741333
1700852514512887600,5.338887451171875,3.267775058746338,-3.63308048248291,5.096944332122803
1700852514529885000,5.355885009765625,2.510535478591919,-2.9781203269958496,3.5232043266296387
1700852514546870800,5.372870849609375,1.8457280397415161,-2.4209089279174805,1.9582891464233398
1700852514563861200,5.389861328125,1.4500932693481445,-2.163588523864746,0.5958700180053711
1700852514580852000,5.40685205078125,1.754948377609253,-2.195819854736328,-0.39583301544189453
1700852514597842200,5.42384228515625,2.090257167816162,-2.5243959426879883,-1.1096510887145996
1700852514614833000,5.4408330078125,2.463836193084717,-2.741652011871338,-2.1282553672790527
1700852514631814700,5.457814697265625,2.4874632358551025,-3.0015618801116943,-3.1946916580200195
1700852514648811300,5.474811279296875,2.2766146659851074,-3.1169850826263428,-4.094672203063965
1700852514665806800,5.491806884765625,2.07629656791687,-3.075335741043091,-4.762716770172119
1700852514682784500,5.508784423828125,1.9437769651412964,-3.034425735473633,-5.294370651245117
1700852514699785200,5.52578515625,1.768911361694336,-3.159637212753296,-5.65699577331543
1700852514716776000,5.54277587890625,1.8958566188812256,-3.2703065872192383,-5.955796241760254
1700852514733766100,5.55976611328125,2.2854793071746826,-3.4791412353515625,-5.909592628479004
1700852514750754300,5.57675439453125,2.9910855293273926,-3.6194591522216797,-5.853644847869873
1700852514767747000,5.5937470703125,3.525663375854492,-3.8501713275909424,-5.813985824584961
1700852514784740600,5.61074072265625,3.954617500305176,-4.104374885559082,-5.77548360824585
1700852514801728000,5.62772802734375,4.220911026000977,-4.6607441902160645,-5.496583461761475
1700852514818721300,5.64472119140625,4.618736267089844,-5.202661037445068,-4.822463512420654
1700852514835709200,5.661709228515625,4.994335174560547,-5.661919593811035,-3.8248844146728516
1700852514852698600,5.67869873046875,5.226369380950928,-5.8213396072387695,-3.116499900817871
1700852514869692700,5.695692626953125,5.148880958557129,-5.774033546447754,-3.123199462890625
1700852514886680800,5.712680908203125,4.498369216918945,-6.163118839263916,-2.834540367126465
1700852514903660300,5.729660400390625,3.8831682205200195,-6.169674396514893,-2.664755344390869
1700852514920662000,5.746662109375,3.3963935375213623,-6.527428150177002,-1.8637495040893555
1700852514937649400,5.7636494140625,2.855027675628662,-6.935556411743164,-0.9475765228271484
1700852514954645500,5.7806455078125,2.022564172744751,-7.391891956329346,0.051659584045410156
1700852514971622700,5.79762255859375,1.373607873916626,-6.901341438293457,0.22153568267822266
1700852514988613400,5.81461328125,0.42642831802368164,-6.209885597229004,0.4491901397705078
1700852515005610800,5.83161083984375,-0.5909289121627808,-5.450174331665039,0.6114788055419922
1700852515022597000,5.84859716796875,-1.1291990280151367,-4.828107833862305,0.30429553985595703
1700852515039595300,5.86559521484375,-0.8094502687454224,-4.573230266571045,-0.013990402221679688
1700852515056585500,5.88258544921875,0.09797903895378113,-4.529443740844727,-0.2178955078125
1700852515073576400,5.899576416015625,1.145953893661499,-4.128203392028809,-0.5482473373413086
1700852515090570000,5.916570068359375,1.9117473363876343,-3.2379510402679443,-0.9954986572265625
1700852515107552000,5.933552001953125,2.118288516998291,-2.0194711685180664,-1.181018352508545
1700852515124549600,5.950549560546875,1.7700088024139404,-0.8502898216247559,-0.7527718544006348
1700852515141537800,5.967537841796875,0.995835542678833,0.25066328048706055,0.14122581481933594
1700852515158526200,5.984526123046875,-0.1291406750679016,1.2394208908081055,0.7053103446960449
1700852515175519200,6.001519287109375,-0.9230674505233765,1.6116418838500977,1.300374984741211
1700852515192512300,6.01851220703125,-1.019479751586914,1.7625837326049805,2.242276668548584
1700852515209490000,6.035489990234375,-0.9014773368835449,1.8978400230407715,3.170437812805176
1700852515226501400,6.05250146484375,-0.8060224652290344,2.2854952812194824,4.086498260498047
1700852515243481000,6.069481201171875,-0.8571332097053528,2.6849365234375,4.846512317657471
1700852515260471800,6.086471923828125,-1.029241681098938,3.0232133865356445,5.781497955322266
1700852515277461800,6.103461669921875,-1.1687791347503662,3.124537467956543,7.022593975067139
1700852515294452700,6.12045263671875,-1.1841459274291992,3.2241153717041016,8.465099334716797
1700852515311443000,6.13744287109375,-1.1875382661819458,3.4142584800720215,9.764066696166992
1700852515328420600,6.154420654296875,-1.276761531829834,3.6494226455688477,10.644645690917969
1700852515345414700,6.17141455078125,-1.2677183151245117,4.391252517700195,10.985488891601562
1700852515362406000,6.188406005859375,-1.5130465030670166,5.174817085266113,10.846148490905762
1700852515379398100,6.205398193359375,-1.7134299278259277,5.309790134429932,10.510213851928711
1700852515396391200,6.22239111328125,-1.4763367176055908,4.751306533813477,10.168397903442383
1700852515413378000,6.2393779296875,-0.7820495367050171,4.149402141571045,9.636119842529297
1700852515430372400,6.256372314453125,-0.21029412746429443,4.132772922515869,8.791681289672852
1700852515447364000,6.273364013671875,-0.43310874700546265,3.8643460273742676,8.548538208007812
1700852515464348700,6.2903486328125,-1.0890650749206543,3.3683109283447266,8.445491790771484
1700852515481349000,6.30734912109375,-1.8131883144378662,2.8969669342041016,8.45738410949707
1700852515498336300,6.324336181640625,-2.169312000274658,2.1975488662719727,8.751361846923828
1700852515515331300,6.341331298828125,-1.5986454486846924,1.8333845138549805,8.375727653503418
1700852515532316700,6.358316650390625,-0.6321654319763184,1.4660568237304688,7.903659820556641
1700852515549312800,6.375312744140625,0.5184040069580078,0.27261924743652344,8.26488971710205
1700852515566300700,6.39230078125,0.9241192936897278,-1.9445443153381348,9.082717895507812
1700852515583291000,6.409290771484375,0.549340546131134,-3.294617176055908,9.086459159851074
1700852515600281300,6.42628125,-0.2042904496192932,-3.5396814346313477,8.12259292602539
1700852515617277700,6.443277587890625,-0.48054614663124084,-2.805722713470459,6.290999889373779
1700852515634261800,6.46026171875,0.5307397246360779,-1.9028477668762207,4.213953971862793
1700852515651253000,6.4772529296875,1.9769057035446167,-1.87849760055542,2.918339729309082
1700852515668232700,6.494232666015625,3.2670459747314453,-2.7791543006896973,2.3702468872070312
1700852515685215700,6.5112158203125,3.899592161178589,-3.734405040740967,1.5945377349853516
1700852515702224400,6.528224365234375,3.6432929039001465,-3.886282444000244,-0.009505271911621094
1700852515719215000,6.545215087890625,3.1143200397491455,-3.7960238456726074,-1.4015440940856934
1700852515736205300,6.562205322265625,2.9712796211242676,-3.6319642066955566,-2.663682460784912
1700852515753196800,6.57919677734375,3.389878988265991,-3.6449437141418457,-3.6319479942321777
1700852515770186500,6.5961865234375,3.9957008361816406,-4.036605358123779,-4.446404933929443
1700852515787177000,6.613177001953125,4.48364782333374,-4.868962287902832,-4.7471022605896
1700852515804167400,6.63016748046875,4.582645416259766,-5.5526957511901855,-5.468956470489502
1700852515821157600,6.64715771484375,4.24567985534668,-5.53226900100708,-6.73345422744751
1700852515838148400,6.6641484375,3.838587760925293,-5.102119445800781,-7.974503993988037
1700852515855138800,6.681138916015625,3.7885899543762207,-4.936928749084473,-8.213010787963867
1700852515872129300,6.69812939453125,3.8201093673706055,-5.338956832885742,-7.7338972091674805
1700852515889120000,6.7151201171875,3.9239180088043213,-5.664998531341553,-7.102199554443359
1700852515906110500,6.7321103515625,3.7704029083251953,-5.818359851837158,-6.712192058563232
1700852515923101000,6.749100830078125,3.2186777591705322,-5.959573745727539,-6.732098579406738
1700852515940091400,6.76609130859375,3.04744291305542,-5.990146160125732,-6.788815498352051
1700852515957081900,6.783081787109375,3.0539278984069824,-6.187400817871094,-6.127585411071777
1700852515974072600,6.800072509765625,3.1297268867492676,-6.449422359466553,-4.867396354675293
1700852515991052300,6.81705224609375,2.4011240005493164,-6.744486331939697,-3.1809945106506348
1700852516008053200,6.83405322265625,0.80013507604599,-7.1466803550720215,-2.284925937652588
1700852516025043700,6.851043701171875,-0.5333971977233887,-7.130059242248535,-2.5427794456481934
1700852516042034400,6.868034423828125,-0.7275742292404175,-7.610629081726074,-2.1255006790161133
1700852516059024600,6.885024658203125,0.15948474407196045,-8.182968139648438,-0.8781700134277344
1700852516076015400,6.902015380859375,1.0650534629821777,-8.040291786193848,0.8122243881225586
1700852516093005600,6.919005615234375,0.8589500784873962,-7.666597366333008,2.046950340270996
1700852516109996000,6.93599609375,0.82439124584198,-7.057520866394043,2.9223384857177734
1700852516126986800,6.95298681640625,0.9220786094665527,-6.597105979919434,3.7362546920776367
1700852516143977200,6.969977294921875,0.8280394673347473,-5.868510723114014,4.077159881591797
1700852516160967700,6.9869677734375,0.5764514207839966,-4.967792987823486,4.036258697509766
1700852516177955800,7.003955810546875,0.14918731153011322,-3.8814034461975098,3.9394283294677734
1700852516194951200,7.020951171875,-0.3272726833820343,-2.5411176681518555,3.7679576873779297
1700852516211928600,7.037928466796875,-0.6299258470535278,-0.9173636436462402,3.5976476669311523
1700852516228917800,7.054917724609375,-0.9445528388023376,0.6742095947265625,3.5248751640319824
1700852516245913900,7.071913818359375,-1.2047550678253174,2.2307353019714355,3.668325901031494
1700852516262900000,7.08889990234375,-1.7503336668014526,3.4470880031585693,3.5726590156555176
1700852516279901000,7.10590087890625,-2.2720978260040283,4.24234676361084,3.0154495239257812
1700852516296883700,7.1228837890625,-2.570446014404297,4.367602348327637,2.441499710083008
1700852516313875700,7.139875732421875,-1.9295343160629272,4.162495136260986,2.2884907722473145
1700852516330861800,7.15686181640625,-1.1072238683700562,3.934318780899048,2.5354809761047363
1700852516347859000,7.17385888671875,-0.5841538906097412,3.936657428741455,2.962594509124756
1700852516364845600,7.190845458984375,-0.7114560604095459,4.043008804321289,3.234133720397949
1700852516381834800,7.207834716796875,-0.47604554891586304,4.125185489654541,3.310804843902588
1700852516398831000,7.2248310546875,0.5105312466621399,3.9166646003723145,3.722825050354004
1700852516415821000,7.241821044921875,1.4596549272537231,3.7983860969543457,4.302262783050537
1700852516432804600,7.2588046875,1.4934883117675781,3.724236011505127,5.197771072387695
1700852516449804500,7.275804443359375,0.4531439542770386,3.7976088523864746,6.643555641174316
1700852516466788400,7.292788330078125,-0.4657154977321625,4.050259113311768,7.845374584197998
1700852516483774700,7.309774658203125,-0.4226754903793335,4.367521286010742,8.495645523071289
1700852516500768300,7.326768310546875,0.10753467679023743,4.537358283996582,8.559341430664062
1700852516517761800,7.34376171875,0.7506605386734009,4.783588409423828,8.243823051452637
1700852516534751700,7.360751708984375,0.9752944707870483,5.018903732299805,8.155193328857422
1700852516551741000,7.377740966796875,0.4865299463272095,3.998019218444824,8.944435119628906
1700852516568735700,7.39473583984375,0.08350193500518799,2.5070090293884277,9.660856246948242
1700852516585701600,7.41170166015625,-0.16043972969055176,1.744802474975586,9.715038299560547
1700852516602707500,7.42870751953125,-1.1434471607208252,1.3161921501159668,9.63418960571289
1700852516619710500,7.44571044921875,-1.7840856313705444,1.5918593406677246,9.34579086303711
1700852516636701200,7.462701171875,-1.5448235273361206,1.3190693855285645,9.53223705291748
1700852516653692400,7.4796923828125,-0.8520509004592896,0.16482782363891602,9.533804893493652
1700852516670682400,7.496682373046875,-0.02942293882369995,-1.666358470916748,9.274677276611328
1700852516687669000,7.5136689453125,0.6254565119743347,-3.714167594909668,9.23154354095459
1700852516704667100,7.530667236328125,0.9970037937164307,-4.448883056640625,8.572663307189941
1700852516721663700,7.547663818359375,1.2334403991699219,-3.98630952835083,7.228334426879883
1700852516738633500,7.564633544921875,1.7047078609466553,-3.065351963043213,5.644991397857666
1700852516755634700,7.581634765625,2.3513832092285156,-2.198699474334717,3.903862476348877
1700852516772628200,7.598628173828125,2.7284786701202393,-1.8823904991149902,2.0988073348999023
1700852516789615600,7.61561572265625,2.831698417663574,-1.9859161376953125,0.43515491485595703
1700852516806606000,7.632606201171875,2.696340799331665,-2.1636362075805664,-1.3197665214538574
1700852516823579000,7.649578857421875,2.4113919734954834,-2.2236084938049316,-2.7793874740600586
1700852516840587000,7.6665869140625,2.115299701690674,-2.2361860275268555,-3.785156726837158
1700852516857575200,7.6835751953125,2.1709561347961426,-2.08217453956604,-4.667015075683594
1700852516874570500,7.700570556640625,2.1394898891448975,-1.9475171566009521,-5.424017906188965
1700852516891558700,7.71755859375,2.1621859073638916,-1.974726915359497,-5.892693519592285
1700852516908546300,7.73454638671875,2.2537569999694824,-2.158377170562744,-6.100765228271484
1700852516925532200,7.7515322265625,2.3664321899414062,-2.2846741676330566,-6.34490442276001
1700852516942527200,7.76852734375,2.658775806427002,-2.4001221656799316,-6.499636173248291
1700852516959522800,7.785522705078125,2.9424710273742676,-2.732715129852295,-6.235027313232422
1700852516976500500,7.80250048828125,3.243065357208252,-2.999739170074463,-6.236818313598633
1700852516993491700,7.81949169921875,3.6110973358154297,-3.4831418991088867,-6.067055702209473
1700852517010477300,7.836477294921875,3.9456729888916016,-4.128052711486816,-5.56425142288208
1700852517027471600,7.8534716796875,4.141260147094727,-4.810451984405518,-5.073318004608154
1700852517044472800,7.870472900390625,4.102938652038574,-5.447720527648926,-4.4521355628967285
1700852517061463300,7.88746337890625,4.085075378417969,-5.713425636291504,-4.248708724975586
1700852517078453800,7.904453857421875,4.263307094573975,-5.831100940704346,-4.056343078613281
1700852517095442200,7.921442138671875,4.6270751953125,-6.441188812255859,-3.090188980102539
1700852517112434700,7.9384345703125,4.563836574554443,-6.8892822265625,-1.7675766944885254
1700852517129425000,7.9554248046875,3.532003879547119,-6.699148178100586,-1.8918108940124512
1700852517146411300,7.972411376953125,3.17171573638916,-7.078061103820801,-2.313755512237549
1700852517163408600,7.98940869140625,3.431258201599121,-7.460460662841797,-2.3497400283813477
1700852517180396800,8.006396728515625,2.1832284927368164,-7.601193428039551,-0.9435243606567383
1700852517197386500,8.023386474609374,0.992056667804718,-7.078429222106934,1.3776254653930664
1700852517214378500,8.04037841796875,0.5432209968566895,-6.202956199645996,3.458097457885742
1700852517231368000,8.057367919921875,-0.1418015956878662,-5.236997604370117,4.141120910644531
1700852517248358400,8.0743583984375,-0.8909426927566528,-4.320986270904541,3.5617284774780273
1700852517265349000,8.09134912109375,-0.973902702331543,-3.5370683670043945,2.2467241287231445
1700852517282330000,8.108330078125,-0.13958092033863068,-3.0993480682373047,1.2250080108642578
1700852517299330000,8.125330078125,0.9450045228004456,-2.08455753326416,0.5174589157104492
1700852517316310300,8.142310302734375,1.3307125568389893,-0.7044153213500977,0.3529796600341797
1700852517333311000,8.15931103515625,0.9444834589958191,0.7784633636474609,0.15967845916748047
1700852517350301400,8.176301513671875,0.08709561824798584,2.01631236076355,0.0936441421508789
1700852517367292000,8.1932919921875,-0.7469077110290527,2.8709959983825684,0.14089155197143555
1700852517384282000,8.2102822265625,-1.300443172454834,3.1270456314086914,0.056084632873535156
1700852517401272800,8.22727294921875,-1.2702524662017822,2.830605983734131,0.29130077362060547
1700852517418263300,8.24426318359375,-0.9978206157684326,2.220184803009033,0.8163433074951172
1700852517435254000,8.26125390625,-0.7793212532997131,1.9961724281311035,1.544837474822998
1700852517452244500,8.278244384765625,-0.9120976328849792,2.131349563598633,2.724790573120117
1700852517469230800,8.29523095703125,-1.3205374479293823,2.5679502487182617,3.901639938354492
1700852517486225200,8.31222509765625,-1.790601372718811,2.9520487785339355,5.0315775871276855
1700852517503215900,8.3292158203125,-2.066178321838379,2.965848445892334,6.439373016357422
1700852517520206300,8.346206298828125,-1.8782463073730469,3.0313329696655273,7.828751564025879
1700852517537182500,8.363182373046875,-1.5937988758087158,3.1965389251708984,8.95785140991211
1700852517554186500,8.3801865234375,-1.0798195600509644,3.751497268676758,9.590995788574219
1700852517571182000,8.39718212890625,-0.15567028522491455,4.470597743988037,10.18731689453125
1700852517588157400,8.414157470703126,0.5153306126594543,5.234381675720215,10.72934341430664
1700852517605158400,8.431158447265625,0.4079734683036804,5.492275238037109,10.744016647338867
1700852517622149000,8.448149169921875,-0.07117122411727905,5.236279010772705,10.36658763885498
1700852517639136000,8.465135986328125,-0.2868971824645996,4.94099235534668,9.741357803344727
1700852517656119000,8.482119140625,-0.2603503465652466,3.875058650970459,9.927438735961914
1700852517673120300,8.499120361328124,-0.34963467717170715,2.2646384239196777,10.386404037475586
1700852517690111000,8.516111083984375,-0.8084410429000854,1.822253704071045,9.923050880432129
1700852517707093000,8.533093017578125,-1.9785668849945068,1.5390734672546387,10.063224792480469
1700852517724089900,8.55008984375,-3.328153133392334,1.8236041069030762,9.91751480102539
1700852517741080600,8.56708056640625,-3.9601893424987793,1.7634124755859375,9.559663772583008
1700852517758072000,8.584072021484374,-2.92291259765625,0.7560925483703613,9.173523902893066
1700852517775065900,8.60106591796875,-0.9946736693382263,-1.0527329444885254,9.01127815246582
1700852517792042000,8.6180419921875,0.5336448550224304,-3.0266637802124023,8.528074264526367
1700852517809055000,8.635054931640624,1.5876092910766602,-4.555717945098877,7.705833911895752
1700852517826035000,8.652034912109375,2.243730068206787,-5.204974174499512,7.166163921356201
1700852517843022800,8.66902294921875,2.5118091106414795,-4.4839768409729,5.880789756774902
1700852517860018000,8.686017822265624,2.5327680110931396,-3.2577109336853027,4.14282751083374
1700852517877010000,8.703010009765626,2.558568239212036,-2.3210654258728027,2.6754884719848633
1700852517893996500,8.71999658203125,2.5950329303741455,-2.079291820526123,1.3237848281860352
1700852517910986800,8.73698681640625,2.9133033752441406,-2.4839930534362793,0.09512042999267578
1700852517927977700,8.753977783203124,3.2307076454162598,-3.02622652053833,-1.0393881797790527
1700852517944968000,8.770968017578125,3.7254505157470703,-3.0465683937072754,-2.2441673278808594
1700852517961958700,8.787958740234375,3.6317813396453857,-2.9665207862854004,-3.488377571105957
1700852517978946300,8.8049462890625,3.3973093032836914,-2.7980363368988037,-4.497180461883545
1700852517995953200,8.821953125,3.09140682220459,-2.6798040866851807,-5.179916858673096
1700852518012927000,8.838927001953126,2.956970691680908,-2.567351818084717,-5.691612720489502
1700852518029922800,8.8559228515625,2.8749520778656006,-2.6258773803710938,-6.152210235595703
1700852518046900200,8.872900146484374,3.1144919395446777,-2.907538414001465,-6.412189483642578
1700852518063898000,8.889898193359375,3.3985886573791504,-3.1602306365966797,-6.33492374420166
1700852518080892200,8.90689208984375,3.874321937561035,-3.3157427310943604,-6.205850601196289
1700852518097885000,8.923885009765625,4.184446334838867,-3.6048214435577393,-5.86232852935791
1700852518114872800,8.940872802734376,4.192742347717285,-4.019512176513672,-5.56163215637207
1700852518131861000,8.957861083984374,4.108179569244385,-4.555115222930908,-5.156033039093018
1700852518148856000,8.97485595703125,4.087069511413574,-5.155567169189453,-4.723578929901123
1700852518165844000,8.991843994140625,4.346497535705566,-5.614625930786133,-4.419584274291992
1700852518182835000,9.0088349609375,5.1485443115234375,-5.7546796798706055,-3.8581042289733887
1700852518199825200,9.0258251953125,5.826018333435059,-6.0376787185668945,-2.822883129119873
1700852518216815600,9.042815673828125,5.839140892028809,-6.458031177520752,-1.4941153526306152
1700852518233806000,9.05980615234375,4.834397315979004,-6.282980918884277,-1.436957836151123
1700852518250796500,9.076796630859375,3.8718838691711426,-6.465625286102295,-1.4564123153686523
1700852518267786800,9.093786865234375,2.9791324138641357,-7.251343250274658,-1.2659692764282227
1700852518284777700,9.11077783203125,2.3593814373016357,-7.5900983810424805,-1.7959198951721191
1700852518301767700,9.127767578125,2.2428297996520996,-7.12908935546875,-1.5755219459533691
1700852518318758700,9.144758544921874,1.5768687725067139,-6.726166725158691,-0.3485240936279297
1700852518335748900,9.161748779296875,0.582337498664856,-6.214221000671387,0.48700904846191406
1700852518352737300,9.1787373046875,-0.3062474727630615,-5.914482116699219,0.5378103256225586
1700852518369731800,9.19573193359375,-0.6568955183029175,-6.031115531921387,0.03887462615966797
1700852518386717700,9.2127177734375,0.5057802200317383,-5.791325092315674,-0.354400634765625
1700852518403713300,9.22971337890625,1.6603643894195557,-5.098106384277344,0.4730968475341797
1700852518420701200,9.246701171875,1.8936066627502441,-4.009677886962891,1.7471046447753906
1700852518437696000,9.263696044921875,1.0699348449707031,-2.3732590675354004,2.8378047943115234
1700852518454672100,9.280672119140625,-0.6979005932807922,-0.514195442199707,2.950139045715332
1700852518471671800,9.297671875,-2.507082462310791,0.9589314460754395,2.654102325439453
1700852518488664000,9.3146640625,-3.296476364135742,1.7446341514587402,2.9313340187072754
1700852518505653800,9.33165380859375,-2.8587350845336914,2.163188934326172,3.5160140991210938
1700852518522628600,9.348628662109375,-2.099306106567383,2.349055290222168,4.280677795410156
1700852518539634400,9.365634521484376,-1.1017873287200928,2.686587333679199,5.123416423797607
1700852518556625000,9.382625,-0.3540038466453552,3.3358144760131836,5.94863224029541
1700852518573615400,9.399615478515624,-0.1788673996925354,3.8517303466796875,6.48838996887207
1700852518590605800,9.416605712890625,-0.7495356798171997,4.247491836547852,6.606434345245361
1700852518607596000,9.433595947265625,-1.4987623691558838,4.012501239776611,6.942183971405029
1700852518624586800,9.450586669921876,-1.46189546585083,3.6527915000915527,7.520390510559082
1700852518641577500,9.467577392578125,-0.8385909199714661,3.475797653198242,8.208248138427734
1700852518658557200,9.48455712890625,-0.1914500594139099,3.6728930473327637,8.984320640563965
1700852518675558100,9.50155810546875,0.04230305552482605,4.204892635345459,9.210083961486816
1700852518692548400,9.51854833984375,-0.2627895176410675,4.561819076538086,9.581565856933594
1700852518709538800,9.535538818359376,-0.5268039703369141,4.905788898468018,9.969066619873047
1700852518726529500,9.552529541015625,-0.9806499481201172,5.267147541046143,9.752012252807617
1700852518743520300,9.569520263671874,-1.119585394859314,5.690413475036621,9.280715942382812
1700852518760508000,9.5865078125,-1.3608564138412476,5.4625325202941895,9.198009490966797
1700852518777503000,9.6035029296875,-1.5965927839279175,4.258247375488281,9.613953590393066
1700852518794479400,9.620479248046875,-1.5571553707122803,3.246227741241455,9.522360801696777
1700852518811481300,9.6374814453125,-1.6033596992492676,2.7074785232543945,9.029951095581055
1700852518828471300,9.65447119140625,-1.795569896697998,2.4882893562316895,8.851105690002441
1700852518845452300,9.671452392578125,-1.5969566106796265,2.3620219230651855,9.232467651367188
1700852518862446000,9.688446044921875,-1.0409929752349854,1.8255882263183594,9.618698120117188
1700852518879437600,9.7054375,-0.6184131503105164,0.7695446014404297,9.634466171264648
1700852518896424000,9.722423828125,-0.09244438260793686,-0.4919257164001465,9.260894775390625
1700852518913420800,9.7394208984375,0.6317667961120605,-1.660914421081543,8.569528579711914
1700852518930411000,9.756410888671875,1.5441256761550903,-2.672369956970215,7.690576553344727
1700852518947402000,9.773402099609376,2.147853136062622,-3.3335862159729004,6.822021007537842
1700852518964387800,9.790387939453124,2.6346142292022705,-3.2775144577026367,5.362449645996094
1700852518981386500,9.807386474609375,2.8819808959960938,-2.86544132232666,3.6193184852600098
1700852518998377000,9.824376953125,2.9379825592041016,-2.353482723236084,1.949030876159668
1700852519015367400,9.841367431640625,2.897604465484619,-2.0664048194885254,0.27605438232421875
1700852519032358000,9.85835791015625,2.882956027984619,-2.0163207054138184,-1.0675692558288574
1700852519049348600,9.8753486328125,2.925204277038574,-2.1567797660827637,-2.074456214904785
1700852519066336800,9.892336669921875,2.9092345237731934,-2.4197511672973633,-2.7968225479125977
1700852519083327200,9.9093271484375,2.9279403686523438,-2.6368889808654785,-3.433140277862549
1700852519100319700,9.92631982421875,3.096158027648926,-2.7834722995758057,-4.027676582336426
1700852519117299700,9.9432998046875,3.2510123252868652,-2.882533550262451,-4.455341815948486
1700852519134300700,9.96030078125,3.4394023418426514,-2.9542036056518555,-4.766874313354492
1700852519151291100,9.977291015625,3.481654644012451,-3.0574963092803955,-4.808480262756348
1700852519168277200,9.99427734375,3.5531487464904785,-3.0092296600341797,-4.783163070678711
1700852519185276200,10.011276123046875,3.5431580543518066,-3.0504310131073,-4.568654537200928
1700852519202247000,10.028246826171875,3.8460450172424316,-3.147198438644409,-4.234647750854492
1700852519219252700,10.045252685546876,4.041724681854248,-3.53169584274292,-3.8961076736450195
1700852519236232700,10.062232666015625,4.431575775146484,-4.015600681304932,-3.6415748596191406
1700852519253234000,10.07923388671875,4.836428642272949,-4.525424003601074,-3.6367783546447754
1700852519270224100,10.09622412109375,5.209589004516602,-4.903356075286865,-3.9630284309387207
1700852519287214600,10.113214599609375,5.39876127243042,-5.215202331542969,-3.9906868934631348
1700852519304195600,10.130195556640626,5.401239395141602,-5.565389633178711,-3.5202865600585938
1700852519321195500,10.147195556640625,5.113562107086182,-5.969586372375488,-2.6070146560668945
1700852519338186200,10.164186279296874,4.245013236999512,-6.032240390777588,-2.3350257873535156
1700852519355174000,10.181173828125,3.690845489501953,-5.88345193862915,-2.5265088081359863
1700852519372169700,10.198169677734375,3.0881683826446533,-6.026323318481445,-2.3195013999938965
1700852519389157600,10.21515771484375,2.573385715484619,-5.933953285217285,-2.06826114654541
1700852519406148400,10.2321484375,1.9061470031738281,-5.455334186553955,-1.5686516761779785
1700852519423138600,10.249138671875,0.9033440351486206,-4.93032169342041,-0.8708381652832031
1700852519440129000,10.26612890625,-0.38160693645477295,-4.549076080322266,-0.7246065139770508
1700852519457109000,10.28310888671875,-1.2090349197387695,-4.274730682373047,-0.79742431640625
1700852519474109700,10.300109619140626,-1.0260106325149536,-4.081881523132324,-0.738983154296875
1700852519491100400,10.317100341796875,-0.306459903717041,-4.084179878234863,-0.7150888442993164
1700852519508091000,10.3340908203125,0.4987359344959259,-3.7674713134765625,-0.709686279296875
1700852519525084000,10.351083984375,0.656501829624176,-3.0363779067993164,-0.6349191665649414
1700852519542069000,10.368069091796874,0.582641065120697,-1.9866724014282227,-0.39713287353515625
1700852519559062000,10.38506201171875,0.2549058794975281,-0.856081485748291,-0.07647895812988281
1700852519576042000,10.4020419921875,-0.2163221687078476,-0.018984317779541016,0.5579710006713867
1700852519593042700,10.419042724609374,-0.3965589106082916,0.7316923141479492,1.2917695045471191
1700852519610023200,10.436023193359375,-0.8584818840026855,1.0341362953186035,1.7965354919433594
1700852519627022600,10.453022705078125,-1.0722954273223877,1.2949743270874023,2.22029447555542
1700852519644014300,10.470014404296874,-1.0928322076797485,1.4362530708312988,2.9711222648620605
1700852519661004800,10.4870048828125,-1.2857023477554321,1.7647786140441895,3.549898147583008
1700852519677995300,10.503995361328125,-1.0946418046951294,2.108590602874756,4.541510105133057
1700852519694985700,10.52098583984375,-0.9669865965843201,2.4981021881103516,5.518965721130371
1700852519711963100,10.537963134765626,-1.0614442825317383,2.892338752746582,5.988804340362549
1700852519728964600,10.554964599609375,-1.0731689929962158,3.1095056533813477,6.377865314483643
1700852519745947100,10.571947021484375,-0.6594991087913513,3.079202651977539,6.911494731903076
1700852519762940200,10.588940185546875,-0.08491802215576172,3.083367347717285,7.4965434074401855
1700852519779928300,10.60592822265625,0.019527673721313477,3.4257707595825195,8.157743453979492
1700852519796912400,10.622912353515625,-0.4481765627861023,3.753598213195801,8.67226791381836
1700852519813915400,10.639915283203125,-0.9624955654144287,4.199495315551758,8.977447509765625
1700852519830900700,10.656900634765625,-1.4482746124267578,4.634878635406494,8.825313568115234
1700852519847895800,10.673895751953125,-1.4040261507034302,4.89615535736084,8.438957214355469
1700852519864878300,10.69087841796875,-1.1673352718353271,4.488325595855713,8.502108573913574
1700852519881872000,10.707871826171875,-0.9824956655502319,3.473299503326416,9.094671249389648
1700852519898865400,10.724865478515625,-0.9335432648658752,2.7252044677734375,9.521398544311523
1700852519915859500,10.741859375,-1.2916704416275024,2.4915857315063477,9.964899063110352
1700852519932845300,10.75884521484375,-2.172475576400757,2.608891487121582,9.83340072631836
1700852519949833700,10.775833740234376,-2.593391180038452,2.4461216926574707,9.46817398071289
1700852519966826500,10.792826416015625,-1.4204058647155762,1.9754595756530762,9.193824768066406
1700852519983814400,10.809814453125,-0.053967833518981934,1.0890583992004395,8.60032844543457
1700852520000797000,10.826796875,0.8306514620780945,-0.03663349151611328,7.711980819702148
1700852520017796000,10.843796142578125,1.4436430931091309,-0.9381814002990723,6.728334426879883
1700852520034783200,10.860783203125,1.9663524627685547,-1.499760627746582,6.034023284912109
1700852520051786800,10.877786865234375,2.2430107593536377,-1.702333927154541,5.115625381469727
1700852520068773000,10.894773193359375,2.298436164855957,-1.6702852249145508,4.363224029541016
1700852520085766100,10.91176611328125,1.9857929944992065,-1.3211822509765625,3.0896801948547363
1700852520102756600,10.928756591796875,1.4191796779632568,-0.9589743614196777,1.6702017784118652
1700852520119747000,10.9457470703125,1.04154372215271,-0.6682286262512207,0.42711448669433594
1700852520136737300,10.9627373046875,1.0652265548706055,-0.44025468826293945,-0.7463088035583496
1700852520153728000,10.97972802734375,1.2581161260604858,-0.3073105812072754,-1.748661994934082
1700852520170718500,10.996718505859375,1.4537721872329712,-0.35131263732910156,-2.5215325355529785
1700852520187709000,11.013708984375,1.5718441009521484,-0.5465216636657715,-3.1363277435302734
1700852520204699400,11.030699462890626,1.686578392982483,-0.7508583068847656,-3.701160430908203
1700852520221689900,11.04768994140625,1.822397232055664,-1.0321192741394043,-4.130843162536621
1700852520238680000,11.06468017578125,1.9879543781280518,-1.4181368350982666,-4.471158027648926
1700852520255670500,11.08167041015625,2.1794440746307373,-1.6689105033874512,-4.816317558288574
1700852520272658700,11.09865869140625,2.4075751304626465,-1.7347643375396729,-5.097531795501709
1700852520289651500,11.1156513671875,2.6505398750305176,-1.6706829071044922,-5.239932537078857
1700852520306642000,11.132641845703125,2.7786786556243896,-1.7437982559204102,-5.182742118835449
1700852520323632000,11.149632080078124,3.0015158653259277,-1.9459552764892578,-4.783876895904541
1700852520340622800,11.166622802734375,3.3177456855773926,-2.3067071437835693,-4.045169830322266
1700852520357613300,11.18361328125,3.4659924507141113,-2.7619218826293945,-3.392327308654785
1700852520374603800,11.200603759765626,3.110501766204834,-3.2253470420837402,-3.4640207290649414
1700852520391594000,11.217593994140625,2.8710265159606934,-3.6129536628723145,-3.83463191986084
1700852520408584700,11.234584716796874,3.2433815002441406,-4.059564590454102,-4.01016902923584
1700852520425575200,11.2515751953125,3.9087066650390625,-4.5723724365234375,-3.527895927429199
1700852520442565400,11.2685654296875,4.165848731994629,-5.41419792175293,-2.047579765319824
1700852520459556000,11.28555615234375,3.1617798805236816,-5.571150302886963,-1.8668780326843262
1700852520476543700,11.302543701171874,2.240938186645508,-5.450628280639648,-2.431509017944336
1700852520493539600,11.31953955078125,1.405698537826538,-5.809277534484863,-2.6623668670654297
1700852520510527200,11.33652734375,1.4143644571304321,-5.811346530914307,-2.678440570831299
1700852520527517700,11.353517578125,2.014507293701172,-5.415046691894531,-1.4776573181152344
1700852520544508200,11.370508056640626,1.7391579151153564,-5.0355401039123535,0.13746356964111328
1700852520561498600,11.38749853515625,0.3925454020500183,-4.599820613861084,0.6154022216796875
1700852520578489000,11.404489013671874,-0.8953803777694702,-4.362821102142334,0.7897472381591797
1700852520595477000,11.42147705078125,-1.203334927558899,-4.08894157409668,0.8362321853637695
1700852520612472600,11.43847265625,-0.6392137408256531,-3.4956469535827637,0.43118953704833984
1700852520629459700,11.455459716796875,0.12663517892360687,-2.640519142150879,0.2856464385986328
1700852520646451700,11.47245166015625,0.0991477519273758,-1.3464727401733398,0.2224111557006836
1700852520663441200,11.489441162109374,-0.6470025777816772,0.01392507553100586,0.2660560607910156
1700852520680433000,11.506432861328125,-1.449761986732483,1.2413921356201172,0.03406810760498047
1700852520697421300,11.52342138671875,-1.9174002408981323,1.9034223556518555,-0.1437091827392578
1700852520714412800,11.540412841796876,-1.6924278736114502,2.29060697555542,0.03281211853027344
1700852520731403000,11.557403076171875,-1.6623611450195312,2.4966564178466797,0.4128694534301758
1700852520748382700,11.5743828125,-1.9259777069091797,2.600308895111084,0.8048491477966309
1700852520765384000,11.591384033203125,-1.8374029397964478,2.497282028198242,1.4724950790405273
1700852520782374400,11.60837451171875,-1.4785319566726685,2.5011706352233887,2.2918615341186523
1700852520799366700,11.62536669921875,-1.1554721593856812,2.4445090293884277,3.0032267570495605
1700852520816342800,11.6423427734375,-0.6567359566688538,2.4947285652160645,3.9439187049865723
1700852520833356300,11.659356201171875,-0.21837139129638672,2.7244434356689453,4.836963176727295
1700852520850332000,11.676331787109374,0.08108744025230408,3.0240049362182617,5.340527534484863
1700852520867326700,11.69332666015625,0.3373739421367645,3.20052433013916,5.751102447509766
1700852520884317000,11.71031689453125,0.6590758562088013,3.240253448486328,6.216302394866943
1700852520901307100,11.72730712890625,0.782001256942749,3.272205352783203,6.7699995040893555
1700852520918295300,11.74429541015625,0.7259373664855957,3.4521679878234863,7.554691314697266
1700852520935291000,11.761290771484376,0.34950751066207886,3.8504528999328613,8.110815048217773
1700852520952278800,11.77827880859375,-0.5411732196807861,4.347640037536621,7.905774116516113
1700852520969269000,11.79526904296875,-1.1139440536499023,4.568647861480713,7.671830177307129
1700852520986259700,11.812259765625,-1.1345229148864746,4.428565502166748,7.624420642852783
1700852521003250000,11.82925,-0.851664662361145,3.4718542098999023,8.293145179748535
1700852521020240600,11.84624072265625,-0.3354184627532959,2.675705909729004,8.438485145568848
1700852521037244000,11.863243896484375,0.23826611042022705,2.3789048194885254,8.370243072509766
1700852521054210800,11.8802109375,0.1273009181022644,2.0521392822265625,8.652637481689453
1700852521071211500,11.89721142578125,-0.16075336933135986,2.1801071166992188,8.777691841125488
1700852521088194300,11.9141943359375,-0.3376554250717163,2.022508144378662,9.060924530029297
1700852521105192700,11.931192626953125,-0.23827332258224487,1.4120197296142578,8.780860900878906
1700852521122183400,11.948183349609375,0.11278069019317627,-0.015733718872070312,8.665426254272461
1700852521139173600,11.965173583984376,0.8008273839950562,-1.4216289520263672,8.287463188171387
1700852521156160800,11.982160888671874,1.2591428756713867,-2.7454710006713867,7.892039775848389
1700852521173144000,11.99914404296875,1.6029421091079712,-3.2739906311035156,6.903011798858643
1700852521190145000,12.01614501953125,1.7161978483200073,-3.05629825592041,5.52438497543335
1700852521207135500,12.033135498046875,1.7149581909179688,-2.335956573486328,3.767056941986084
1700852521224125700,12.050125732421876,1.6355394124984741,-1.7689895629882812,2.066300868988037
1700852521241116400,12.067116455078125,1.7032804489135742,-1.4635357856750488,0.38765621185302734
1700852521258106600,12.084106689453124,1.8358592987060547,-1.3601036071777344,-1.1564764976501465
1700852521275097000,12.10109716796875,1.8189092874526978,-1.297307014465332,-2.3998842239379883
1700852521292085000,12.1180849609375,1.7227330207824707,-1.1816082000732422,-3.4955854415893555
1700852521309080300,12.135080322265624,1.610581874847412,-1.118969202041626,-4.228318214416504
1700852521326068500,12.152068359375,1.4666836261749268,-1.0745644569396973,-5.012990951538086
1700852521343059000,12.169058837890624,1.194275140762329,-1.186448574066162,-5.767190456390381
1700852521360049400,12.18604931640625,1.1444942951202393,-1.464813232421875,-6.2671427726745605
1700852521377029400,12.203029296875,1.2657537460327148,-1.7726376056671143,-6.669401168823242
1700852521394030000,12.220030029296876,1.363997459411621,-1.992870569229126,-6.737281799316406
1700852521411020300,12.237020263671875,1.301732063293457,-2.107983350753784,-6.444079875946045
1700852521428010800,12.2540107421875,1.471765398979187,-2.248906373977661,-5.829090118408203
1700852521445001700,12.271001708984375,1.6434959173202515,-2.4681873321533203,-5.38256311416626
1700852521461992000,12.287991943359375,1.8452250957489014,-2.9300546646118164,-4.934313774108887
1700852521478990300,12.304990234375,2.0674426555633545,-3.6003148555755615,-4.556637287139893
1700852521495962000,12.321962158203124,2.5326409339904785,-4.0610551834106445,-4.168302536010742
1700852521512960500,12.33896044921875,2.7931480407714844,-4.412296295166016,-3.508824348449707
1700852521529956400,12.355956298828126,2.863682508468628,-4.360135078430176,-3.1906275749206543
1700852521546947300,12.372947265625,2.7572624683380127,-4.605682373046875,-2.8453407287597656
1700852521563924200,12.38992431640625,2.4819414615631104,-5.2249298095703125,-2.456171989440918
1700852521580925200,12.40692529296875,2.1696324348449707,-5.644748687744141,-2.7833070755004883
1700852521597915100,12.4239150390625,2.3204028606414795,-5.749935150146484,-3.027700424194336
1700852521614905900,12.44090576171875,2.4537148475646973,-5.931610107421875,-2.6787304878234863
1700852521631896000,12.45789599609375,2.656613349914551,-5.609338760375977,-2.0235424041748047
1700852521648886500,12.474886474609375,2.3855745792388916,-5.141412258148193,-1.2835607528686523
1700852521665877000,12.491876953125,1.570095181465149,-5.098884105682373,-0.40590381622314453
1700852521682864600,12.50886474609375,0.7573695182800293,-5.192020416259766,0.4408073425292969
1700852521699860500,12.525860595703126,0.6288268566131592,-5.060831546783447,1.3549127578735352
1700852521716848000,12.54284814453125,0.6380910873413086,-4.604538440704346,2.1166210174560547
1700852521733838800,12.5598388671875,0.6712258458137512,-3.79062557220459,2.672464370727539
1700852521750826800,12.57682666015625,0.7201145887374878,-2.6405415534973145,3.341353416442871
1700852521767822000,12.593822021484375,0.29393190145492554,-1.1442432403564453,3.380453109741211
1700852521784810200,12.610810302734375,-0.36661195755004883,0.3036184310913086,2.9971795082092285
1700852521801800400,12.627800537109374,-1.2150123119354248,1.6402053833007812,2.3376693725585938
1700852521818791200,12.644791259765626,-1.689697265625,2.560023784637451,1.8958287239074707
1700852521835780600,12.661780517578125,-1.4567034244537354,3.0924434661865234,1.8542556762695312
1700852521852770800,12.678770751953126,-0.8654277324676514,3.2656667232513428,1.943720817565918
1700852521869764000,12.69576416015625,-0.024428218603134155,3.3010740280151367,2.2706661224365234
1700852521886752800,12.712752685546874,0.7599396705627441,3.623950242996216,2.715418815612793
1700852521903740700,12.72974072265625,0.44376280903816223,4.096502780914307,2.7058043479919434
1700852521920735500,12.746735595703125,-0.4255756139755249,4.160336494445801,2.761469841003418
1700852521937724700,12.763724609375,-1.0126546621322632,3.885322093963623,3.117464542388916
1700852521954714400,12.78071435546875,-1.1620855331420898,3.6123204231262207,3.8242764472961426
1700852521971702300,12.797702392578126,-0.8720740079879761,3.4906983375549316,4.791380882263184
1700852521988712000,12.8147119140625,-0.37161415815353394,3.6756205558776855,5.822342395782471
1700852522005676000,12.831676025390625,-0.26485490798950195,3.915245532989502,6.680080413818359
1700852522022676000,12.848676025390626,0.015406638383865356,4.114096164703369,7.578738212585449
1700852522039657500,12.865657470703125,0.34354066848754883,3.9704627990722656,8.372478485107422
1700852522056657000,12.882656982421874,0.7221238613128662,3.9864583015441895,8.738298416137695
1700852522073647400,12.8996474609375,0.7397475242614746,4.4237260818481445,8.475503921508789
1700852522090627000,12.916626953125,0.5996180772781372,5.055339813232422,8.052842140197754
1700852522107628000,12.9336279296875,0.3196057081222534,4.987690448760986,8.050036430358887
1700852522124625400,12.95062548828125,-0.03354117274284363,3.5387372970581055,8.594736099243164
1700852522141605600,12.967605712890625,-0.3301675617694855,1.9933395385742188,8.730113983154297
1700852522158596900,12.984596923828125,-0.2796989679336548,1.284574031829834,8.117257118225098
1700852522175592700,13.0015927734375,-0.2481791377067566,0.9505791664123535,8.593421936035156
1700852522192579800,13.018579833984376,-0.09888747334480286,1.2524309158325195,9.142507553100586
1700852522209568800,13.03556884765625,-0.23031476140022278,1.452779769897461,8.920183181762695
1700852522226563600,13.0525634765625,-0.36592498421669006,1.0432610511779785,7.963665008544922
1700852522243560200,13.069560302734375,-0.01745462417602539,-0.05051994323730469,6.838746070861816
1700852522260542200,13.086542236328125,0.8652686476707458,-1.207730770111084,5.657806873321533
1700852522277532400,13.103532470703126,1.6505380868911743,-2.359304428100586,5.177121639251709
1700852522294523000,13.12052294921875,1.833871841430664,-2.7045741081237793,4.5715789794921875
1700852522311513000,13.13751318359375,1.3172130584716797,-2.3448410034179688,3.4596590995788574
1700852522328503600,13.154503662109375,0.7853227257728577,-1.721041202545166,2.2990307807922363
1700852522345482800,13.171482666015624,0.5779508948326111,-1.177656650543213,1.110485553741455
1700852522362477800,13.188477783203124,0.49953219294548035,-1.360795021057129,0.6648831367492676
1700852522379467800,13.2054677734375,0.18842723965644836,-1.1504545211791992,-0.328859806060791
1700852522396454400,13.222454345703126,-0.16786807775497437,-1.1232829093933105,-1.3206005096435547
1700852522413445600,13.239445556640625,0.09392186999320984,-1.245058536529541,-1.957841396331787
1700852522430444300,13.2564443359375,0.8206181526184082,-1.3754844665527344,-2.5846962928771973
1700852522447436000,13.27343603515625,1.4016287326812744,-1.6441974639892578,-3.369398593902588
1700852522464423000,13.2904228515625,1.7561619281768799,-1.989426612854004,-4.218129634857178
1700852522481417200,13.307417236328124,1.8970392942428589,-2.22916579246521,-5.278122425079346
1700852522498408200,13.324408203125,2.108590602874756,-2.742619037628174,-5.696842670440674
1700852522515398700,13.341398681640625,2.4409754276275635,-2.7241640090942383,-6.193511009216309
1700852522532389000,13.35838916015625,2.669128894805908,-2.6243934631347656,-6.249256134033203
1700852522549379000,13.375379150390625,3.1938631534576416,-2.360988140106201,-6.096205234527588
1700852522566369800,13.392369873046874,3.300060272216797,-2.3992393016815186,-5.840660572052002
1700852522583349500,13.409349609375,3.0382165908813477,-2.9626877307891846,-5.56664514541626
1700852522600350700,13.426350830078125,3.013455867767334,-3.6147007942199707,-5.251739025115967
1700852522617341000,13.4433408203125,3.2765953540802,-4.10333251953125,-5.106626033782959
1700852522634331600,13.46033154296875,3.6026482582092285,-4.314204216003418,-4.849797248840332
1700852522651321900,13.47732177734375,4.12709903717041,-4.416835784912109,-4.165897846221924
1700852522668312600,13.4943125,4.596768856048584,-4.4600090980529785,-3.0234789848327637
1700852522685297000,13.511296875,4.260822772979736,-4.6379265785217285,-1.9893341064453125
1700852522702293000,13.52829296875,2.991042137145996,-4.755742073059082,-1.7422313690185547
1700852522719283500,13.545283447265625,1.7933322191238403,-4.680547714233398,-2.2096104621887207
1700852522736263400,13.562263427734376,1.3180850744247437,-5.281841278076172,-1.960789680480957
1700852522753261800,13.57926171875,1.3195769786834717,-5.61388635635376,-1.1670422554016113
1700852522770257400,13.59625732421875,1.481126070022583,-5.291567325592041,-0.3009634017944336
1700852522787245300,13.613245361328126,0.7709196209907532,-4.99423885345459,0.3710346221923828
1700852522804235800,13.63023583984375,-0.1672338843345642,-4.648383617401123,0.8927173614501953
1700852522821226200,13.647226318359374,-0.7188066244125366,-4.7636189460754395,1.3863286972045898
1700852522838206500,13.66420654296875,-0.03950732946395874,-4.921109676361084,1.2659244537353516
1700852522855206700,13.68120654296875,1.2969149351119995,-4.570588111877441,1.1087722778320312
1700852522872208600,13.698208740234374,2.1036431789398193,-3.424668788909912,1.160238265991211
1700852522889187800,13.715187744140625,1.6536774635314941,-1.6879734992980957,1.0419120788574219
1700852522906178300,13.73217822265625,0.18776234984397888,0.05587148666381836,1.0081110000610352
1700852522923168800,13.749168701171875,-1.2846922874450684,1.5212645530700684,0.8823280334472656
1700852522940159200,13.7661591796875,-2.182478666305542,2.4378161430358887,0.912376880645752
1700852522957139000,13.783138916015625,-2.0541553497314453,2.9072065353393555,1.243356704711914
1700852522974139600,13.8001396484375,-1.2614171504974365,3.140017509460449,1.5854740142822266
1700852522991130000,13.817130126953124,-0.5898079872131348,3.141554832458496,2.0835704803466797
1700852523008118300,13.8341181640625,-0.2918106019496918,3.4275970458984375,2.819796085357666
1700852523025113900,13.85111376953125,-0.8735039830207825,3.858755111694336,3.5451245307922363
1700852523042101800,13.868101806640626,-1.8444275856018066,4.165024757385254,3.9041190147399902
1700852523059092000,13.885092041015625,-2.3030142784118652,4.017505168914795,4.458917140960693
1700852523076082400,13.90208251953125,-2.1551828384399414,3.7005019187927246,5.445911884307861
1700852523093070000,13.919070068359375,-1.7253427505493164,3.3738460540771484,6.919978618621826
1700852523110065700,13.936065673828125,-1.3154977560043335,3.4550437927246094,8.25989055633545
1700852523127053600,13.953053466796876,-1.193922996520996,3.6549201011657715,9.349013328552246
1700852523144044000,13.9700439453125,-0.6999638080596924,4.164527416229248,10.203648567199707
1700852523161034500,13.987034423828124,0.07748225331306458,4.675265789031982,10.938182830810547
1700852523178025000,14.00402490234375,0.7631086707115173,5.209080696105957,11.383855819702148
1700852523195015400,14.021015380859374,0.9699265360832214,5.52120304107666,11.088578224182129
1700852523212000000,14.038,0.5484094023704529,5.396043300628662,10.551931381225586
1700852523228993000,14.054992919921874,-0.38024187088012695,4.035566329956055,11.150908470153809
1700852523245977000,14.07197705078125,-1.7176673412322998,2.0468673706054688,11.885799407958984
1700852523262973200,14.08897314453125,-3.0818071365356445,1.3967719078063965,10.64690113067627
1700852523279957500,14.10595751953125,-3.0082168579101562,1.147165298461914,8.900520324707031
1700852523296946400,14.122946533203125,-0.5098196268081665,0.8578896522521973,7.961898326873779
1700852523313939000,14.13993896484375,2.500669479370117,0.19766712188720703,7.865035057067871
1700852523330936000,14.15693603515625,3.725890874862671,-0.5450506210327148,8.042563438415527
1700852523347918600,14.173918701171875,3.1640543937683105,-0.9952430725097656,7.665937423706055
1700852523364911600,14.19091162109375,2.0471792221069336,-1.975937843322754,7.3170881271362305
1700852523381898800,14.207898681640625,1.6774507761001587,-3.2244696617126465,6.887932777404785
1700852523398896600,14.224896728515626,1.909988522529602,-5.399806976318359,7.442327976226807
1700852523415883300,14.24188330078125,2.100107431411743,-5.54485559463501,5.921072006225586
1700852523432876800,14.258876708984374,2.2604293823242188,-4.309823989868164,3.4456653594970703
1700852523449862700,14.275862548828124,2.639475107192993,-2.709958076477051,1.2102465629577637
1700852523466860300,14.2928603515625,2.8890914916992188,-1.6674537658691406,-0.14222002029418945
1700852523483849700,14.309849609375,3.0463788509368896,-1.2660679817199707,-1.018017292022705
1700852523500835600,14.326835693359374,2.817920684814453,-1.4976859092712402,-1.7301874160766602
1700852523517822000,14.343822021484375,2.397084951400757,-1.7200040817260742,-2.725954532623291
1700852523534812200,14.360812255859376,2.0378732681274414,-1.9486007690429688,-4.0394158363342285
1700852523551816700,14.377816650390624,2.2170896530151367,-1.9995450973510742,-5.048684120178223
1700852523568804400,14.394804443359375,2.383570671081543,-1.9860942363739014,-5.727121829986572
1700852523585795000,14.411795166015626,2.3476037979125977,-1.9805912971496582,-6.036195278167725
1700852523602785000,14.428784912109375,2.168855667114258,-2.120861530303955,-6.078131675720215
1700852523619775500,14.445775390625,1.7382431030273438,-2.3255555629730225,-6.027699947357178
1700852523636766000,14.462765869140625,1.5701712369918823,-2.362234354019165,-5.916216850280762
1700852523653756400,14.47975634765625,1.7163820266723633,-2.322782516479492,-5.707465171813965
1700852523670747000,14.496746826171876,2.2192773818969727,-2.3360519409179688,-5.566288948059082
1700852523687736000,14.513736083984375,2.7152011394500732,-2.743778705596924,-5.31422233581543
1700852523704726300,14.530726318359376,3.177205801010132,-3.538318157196045,-4.7461676597595215
1700852523721726500,14.5477265625,3.5988097190856934,-4.336150169372559,-4.213391304016113
1700852523738711300,14.564711181640625,3.9179584980010986,-4.787785053253174,-3.935511589050293
1700852523755696000,14.581696044921875,4.1017842292785645,-4.697009086608887,-3.99845027923584
1700852523772692000,14.59869189453125,4.246376037597656,-4.5766191482543945,-3.970071315765381
1700852523789680000,14.61568017578125,4.120373725891113,-5.251697540283203,-2.8306078910827637
1700852523806670300,14.63267041015625,3.588271379470825,-5.538914680480957,-2.161630630493164
1700852523823660500,14.64966064453125,3.0585317611694336,-5.555469036102295,-1.7313971519470215
1700852523840651500,14.666651611328126,2.13543963432312,-5.909584999084473,-1.4763031005859375
1700852523857641000,14.683640869140625,1.356947898864746,-5.915814399719238,-1.4843459129333496
1700852523874632000,14.7006318359375,1.0634405612945557,-5.6851887702941895,-1.024139404296875
1700852523891618600,14.71761865234375,0.6924896240234375,-5.539103031158447,0.18634700775146484
1700852523908604200,14.734604248046875,-0.06016749143600464,-5.035003662109375,1.0538654327392578
1700852523925603000,14.75160302734375,-1.0404319763183594,-4.677186965942383,1.2918815612792969
1700852523942593000,14.768593017578125,-1.505466341972351,-4.412317752838135,0.9437761306762695
1700852523959584000,14.785583984375,-0.9482963681221008,-4.03106164932251,0.4686880111694336
1700852523976574500,14.802574462890625,0.027689792215824127,-3.242659568786621,0.2414417266845703
1700852523993564700,14.819564697265625,0.7185121774673462,-2.1231579780578613,0.4193897247314453
1700852524010555100,14.83655517578125,0.9067157506942749,-0.6863493919372559,0.8316202163696289
1700852524027545600,14.853545654296875,0.26452338695526123,0.6931915283203125,1.1840019226074219
1700852524044536000,14.8705361328125,-0.8123555183410645,1.97526216506958,1.3158888816833496
1700852524061526300,14.8875263671875,-1.885512351989746,2.7975411415100098,1.3724126815795898
1700852524078516700,14.904516845703125,-2.125260353088379,3.064931869506836,1.4858365058898926
1700852524095507200,14.921507080078126,-1.1818668842315674,3.1234569549560547,1.823488712310791
1700852524112497700,14.93849755859375,-0.04974168539047241,3.0471601486206055,2.4399099349975586
1700852524129488000,14.95548779296875,0.5665494203567505,3.190866470336914,3.402985095977783
1700852524146478300,14.972478271484375,0.20680487155914307,3.6193971633911133,4.367565155029297
1700852524163468800,14.98946875,-0.5739057064056396,3.8581438064575195,5.327819347381592
1700852524180459300,15.006459228515626,-0.5920782089233398,3.6643457412719727,6.178333759307861
1700852524197449500,15.023449462890625,-0.152823805809021,3.344572067260742,6.628233909606934
1700852524214438700,15.040438720703126,0.6106125116348267,2.951876640319824,6.954124927520752
1700852524231431400,15.057431396484375,1.4788236618041992,2.8910365104675293,7.376261234283447
1700852524248420000,15.074420166015624,1.8806813955307007,3.31980037689209,7.904397964477539
1700852524265411300,15.091411376953126,1.7051830291748047,4.010758876800537,8.500186920166016
1700852524282391000,15.10839111328125,1.0913734436035156,4.544433116912842,8.900803565979004
1700852524299392000,15.12539208984375,0.3101101517677307,4.701242446899414,8.88525390625
1700852524316380000,15.1423798828125,-0.4034614562988281,4.647634506225586,8.627580642700195
1700852524333376500,15.15937646484375,-1.0593641996383667,4.718217372894287,8.217178344726562
1700852524350349800,15.176349853515624,-1.5645774602890015,4.234118938446045,8.497946739196777
1700852524367355100,15.193355224609375,-1.4785282611846924,2.8318920135498047,9.205524444580078
1700852524384334000,15.210333984375,-0.9018601179122925,1.8401145935058594,9.301984786987305
1700852524401334500,15.22733447265625,-0.4784073233604431,1.0736985206604004,9.287492752075195
1700852524418324700,15.24432470703125,-0.2581445574760437,0.9486145973205566,9.207807540893555
1700852524435315200,15.261315185546875,0.1536310911178589,0.9699039459228516,9.315906524658203
1700852524452295200,15.278295166015624,0.5277523994445801,0.5854396820068359,9.236556053161621
1700852524469296000,15.295296142578126,0.7605059146881104,-0.2652702331542969,8.748434066772461
1700852524486283800,15.31228369140625,1.1489994525909424,-1.3705148696899414,8.238100051879883
1700852524503278800,15.32927880859375,1.633420467376709,-2.6396355628967285,7.945211410522461
1700852524520256500,15.346256591796875,2.0656814575195312,-3.2442727088928223,6.982944011688232
1700852524537256000,15.363255859375,2.4795405864715576,-3.006281852722168,5.4593000411987305
1700852524554250000,15.38025,2.7408604621887207,-2.245450973510742,3.51175594329834
1700852524571241000,15.397240966796875,2.7146694660186768,-1.533419132232666,1.7727131843566895
1700852524588226800,15.414226806640626,2.524729013442993,-1.1690311431884766,0.3826894760131836
1700852524605219300,15.43121923828125,2.223926544189453,-1.225128173828125,-0.5461268424987793
1700852524622210800,15.4482109375,1.9476226568222046,-1.494157314300537,-1.6030182838439941
1700852524639200300,15.4652001953125,1.970570683479309,-1.6820998191833496,-2.7087059020996094
1700852524656190700,15.482190673828125,2.0830867290496826,-1.7369909286499023,-3.5289535522460938
1700852524673181200,15.49918115234375,2.2028322219848633,-1.619513988494873,-4.3004679679870605
1700852524690180400,15.516180419921875,2.391476631164551,-1.5371334552764893,-4.842104911804199
1700852524707161900,15.533161865234375,2.3828682899475098,-1.7311813831329346,-5.20095157623291
1700852524724152000,15.550152099609376,2.539804458618164,-1.9582147598266602,-5.43494987487793
1700852524741142500,15.567142578125,2.6503396034240723,-2.3687562942504883,-5.590651512145996
1700852524758132700,15.5841328125,2.975761890411377,-2.5600268840789795,-6.044303894042969
1700852524775123200,15.601123291015625,3.2788705825805664,-2.78092360496521,-6.106170654296875
1700852524792100900,15.618100830078125,3.6117103099823,-3.218574047088623,-5.730822563171387
1700852524809104400,15.6351044921875,3.7306575775146484,-3.9453046321868896,-5.134077072143555
1700852524826094600,15.652094482421875,3.8072872161865234,-4.801277160644531,-4.66906213760376
1700852524843087600,15.669087646484375,4.078810691833496,-5.2556657791137695,-4.6438140869140625
1700852524860075300,15.6860751953125,4.525033950805664,-5.373805046081543,-4.6395673751831055
1700852524877065700,15.703065673828124,4.970929145812988,-5.368276596069336,-4.164003372192383
1700852524894056200,15.72005615234375,4.846620559692383,-5.756540298461914,-3.284681797027588
1700852524911036000,15.737035888671874,3.7202744483947754,-6.086704730987549,-2.8785881996154785
1700852524928036900,15.754036865234376,2.9868686199188232,-6.030116558074951,-2.782191753387451
1700852524945027300,15.77102734375,2.346573829650879,-6.446471214294434,-2.1261658668518066
1700852524962023400,15.7880234375,1.9285657405853271,-6.593905925750732,-1.6574440002441406
1700852524979008300,15.80500830078125,1.7868273258209229,-6.348811149597168,-0.5438146591186523
1700852524995997200,15.8219970703125,0.7834715843200684,-5.862646102905273,0.9191131591796875
1700852525012990200,15.838990234375,-1.312718152999878,-4.984132289886475,2.155806541442871
1700852525029975600,15.8559755859375,-3.2729485034942627,-4.136273384094238,2.634627342224121
1700852525046957000,15.87295703125,-4.018087387084961,-3.7012720108032227,2.925413131713867
1700852525063963100,15.889963134765624,-3.082282066345215,-3.409731864929199,2.7081308364868164
1700852525080950500,15.906950439453125,-1.2776398658752441,-2.8439369201660156,1.8905649185180664
1700852525097938200,15.923938232421875,0.027196303009986877,-1.763105869293213,1.0100488662719727
1700852525114933800,15.940933837890626,0.8657717108726501,-0.36597728729248047,0.6121244430541992
1700852525131922200,15.957922119140624,1.289239764213562,1.0104565620422363,0.8178701400756836
1700852525148912000,15.974912109375,1.1972094774246216,2.1887264251708984,1.0280728340148926
1700852525165890600,15.991890625,0.7377081513404846,3.008633852005005,1.0876131057739258
1700852525182882300,16.00888232421875,-0.07715225219726562,3.305227279663086,1.3925256729125977
1700852525199883800,16.0258837890625,-0.8875150680541992,3.3410966396331787,2.077681064605713
1700852525216873500,16.04287353515625,-1.8325648307800293,3.4055209159851074,2.8911914825439453
1700852525233865500,16.059865478515626,-2.625978946685791,3.47268009185791,4.010894775390625
1700852525250854700,16.076854736328126,-2.985252857208252,3.7309865951538086,4.822882175445557
1700852525267842600,16.093842529296875,-3.189573049545288,3.741945266723633,5.610647201538086
1700852525284838100,16.110838134765626,-2.8035364151000977,3.8704123497009277,6.088686466217041
1700852525301815600,16.127815673828124,-2.3826136589050293,3.7126269340515137,6.592495918273926
1700852525318816000,16.14481591796875,-1.9619154930114746,3.348228931427002,6.878114223480225
1700852525335806200,16.16180615234375,-1.5421411991119385,3.110466957092285,6.90522575378418
1700852525352797000,16.178796875,-0.9767023324966431,3.2610979080200195,6.91187858581543
1700852525369787400,16.195787353515627,-0.634771466255188,3.6639404296875,7.315884113311768
1700852525386777900,16.21277783203125,-1.0242387056350708,4.1742987632751465,7.57562780380249
1700852525403768000,16.22976806640625,-2.04612398147583,4.424902439117432,7.546513557434082
1700852525420758300,16.24675830078125,-2.9420762062072754,4.3433356285095215,7.527658939361572
1700852525437744000,16.263744140625,-3.4692845344543457,3.4197998046875,8.006994247436523
1700852525454743800,16.280743896484374,-3.460444688796997,1.6794228553771973,8.84230899810791
1700852525471729700,16.297729736328126,-3.070578098297119,0.8821849822998047,8.639907836914062
1700852525488720000,16.314719970703123,-2.3828468322753906,0.5549168586730957,8.794073104858398
1700852525505708000,16.3317080078125,-2.1520192623138428,0.841639518737793,8.964485168457031
1700852525522703400,16.348703369140626,-2.15854549407959,1.0094013214111328,9.136334419250488
1700852525539691300,16.365691162109375,-1.7526829242706299,0.513735294342041,9.381206512451172
1700852525556681700,16.382681640625,-1.1247795820236206,-0.4982180595397949,9.184532165527344
1700852525573672200,16.399672119140625,-0.3841591477394104,-1.7845425605773926,8.85450553894043
1700852525590662400,16.416662353515626,0.014720737934112549,-2.8643956184387207,8.244457244873047
1700852525607649800,16.43364990234375,0.2919047474861145,-3.3518781661987305,7.318030834197998
1700852525624646400,16.450646484375,0.5364036560058594,-3.045957565307617,5.779520511627197
1700852525641633500,16.467633544921874,1.1729025840759277,-2.302818775177002,3.957000255584717
1700852525658623200,16.484623291015627,1.8644516468048096,-1.6572699546813965,2.1898908615112305
1700852525675615000,16.501614990234376,2.391831398010254,-1.4872221946716309,0.6680145263671875
1700852525692590300,16.51859033203125,2.607603073120117,-1.7368450164794922,-0.8247518539428711
1700852525709595100,16.53559521484375,2.5943408012390137,-1.9625630378723145,-2.332603931427002
1700852525726583800,16.552583740234375,2.2543811798095703,-2.205496311187744,-3.722029685974121
1700852525743576000,16.569576171875,2.2261266708374023,-2.0986948013305664,-4.885263442993164
1700852525760556000,16.58655615234375,2.278857707977295,-1.9530494213104248,-5.694035530090332
1700852525777557000,16.603556884765624,2.4889087677001953,-1.8486638069152832,-6.1875691413879395
1700852525794547200,16.620547119140625,2.6038382053375244,-1.9343774318695068,-6.354804992675781
1700852525811538200,16.6375380859375,2.5908379554748535,-2.1124320030212402,-6.583545684814453
1700852525828527000,16.654527099609375,2.6159780025482178,-2.401370048522949,-6.704680919647217
1700852525845518300,16.671518310546876,3.123307466506958,-2.6285786628723145,-6.607745170593262
1700852525862495700,16.688495849609374,3.7432518005371094,-2.9904980659484863,-6.586678504943848
1700852525879489000,16.705489013671876,4.418055534362793,-3.3071084022521973,-6.296154499053955
1700852525896479700,16.722479736328125,4.511460304260254,-3.703843116760254,-5.916733741760254
1700852525913475800,16.739475830078124,3.9792098999023438,-4.188954830169678,-5.723365783691406
1700852525930462500,16.75646240234375,3.4518890380859375,-4.721395015716553,-5.815800666809082
1700852525947456300,16.773456298828126,3.476583957672119,-5.134547233581543,-5.89448356628418
1700852525964447700,16.79044775390625,4.169400215148926,-5.5917277336120605,-5.396112442016602
1700852525981441500,16.807441650390626,4.920586585998535,-6.00579309463501,-3.985110282897949
1700852525998431700,16.824431640625,4.175189971923828,-6.563176155090332,-2.3172249794006348
1700852526015422000,16.841421875,2.5710902214050293,-6.049112319946289,-2.3756895065307617
1700852526032412700,16.85841259765625,1.3339004516601562,-5.880928039550781,-2.302741050720215
1700852526049403100,16.875403076171875,0.3546143174171448,-6.367217540740967,-1.665536880493164
1700852526066393000,16.89239306640625,0.2091185450553894,-6.646827697753906,-0.32971954345703125
1700852526083384000,16.909384033203125,0.429692804813385,-6.485651969909668,1.8888511657714844
1700852526100363500,16.926363525390624,-0.09392106533050537,-6.111209392547607,3.831984519958496
1700852526117354200,16.943354248046877,-1.3018494844436646,-5.522256851196289,4.692619323730469
1700852526134355000,16.96035498046875,-2.2024104595184326,-4.970145225524902,4.7237653732299805
1700852526151342300,16.97734228515625,-1.9053382873535156,-4.446491241455078,4.420690536499023
1700852526168335600,16.994335693359375,-0.5811697840690613,-3.6004390716552734,3.887511730194092
1700852526185325800,17.011325927734376,0.4623797535896301,-2.323601722717285,3.36580753326416
1700852526202316500,17.028316650390625,1.0343561172485352,-0.809516429901123,3.1242237091064453
1700852526219307000,17.04530712890625,1.443852424621582,0.7858233451843262,3.5548033714294434
1700852526236297500,17.06229736328125,0.5454585552215576,2.143794536590576,3.4418187141418457
1700852526253287700,17.07928759765625,-1.3704675436019897,3.3280670642852783,2.0848331451416016
1700852526270268000,17.096267822265624,-2.988278388977051,3.8636953830718994,1.172680377960205
1700852526287268000,17.11326806640625,-2.7282071113586426,4.431560039520264,1.0790901184082031
1700852526304248300,17.130248291015626,-1.7998669147491455,4.455449104309082,2.031256675720215
1700852526321249000,17.1472490234375,-1.463273048400879,4.47800350189209,2.623746871948242
1700852526338246700,17.16424658203125,-1.956871747970581,4.2913103103637695,2.9587864875793457
1700852526355227400,17.181227294921875,-2.3837409019470215,4.1238226890563965,3.0602049827575684
1700852526372232200,17.198232177734376,-2.099039316177368,3.8920416831970215,3.7718758583068848
1700852526389211000,17.2152109375,-1.3423876762390137,3.861051559448242,4.911384582519531
1700852526406201300,17.232201416015624,-1.3392858505249023,3.9668517112731934,5.719705104827881
1700852526423189000,17.24918896484375,-1.8604644536972046,4.261763095855713,5.992934226989746
1700852526440180000,17.266179931640625,-2.109231472015381,4.2943501472473145,6.442987442016602
1700852526457172500,17.28317236328125,-2.0328574180603027,4.270367622375488,6.979796886444092
1700852526474162700,17.30016259765625,-2.012779474258423,4.236179828643799,7.607287883758545
1700852526491153000,17.31715283203125,-2.7299745082855225,4.3932108879089355,8.107219696044922
1700852526508143600,17.3341435546875,-3.8116555213928223,4.819972991943359,7.809320449829102
1700852526525133600,17.351133544921876,-3.3758020401000977,4.586954593658447,7.846343040466309
1700852526542113800,17.36811376953125,-1.2720247507095337,2.9014086723327637,9.014915466308594
1700852526559114200,17.3851142578125,0.30318593978881836,0.8538908958435059,10.767684936523438
1700852526576109000,17.402109130859376,-0.8339231014251709,0.5233697891235352,10.955713272094727
1700852526593087500,17.41908740234375,-4.153509140014648,1.4137520790100098,10.237070083618164
1700852526610085600,17.436085693359374,-6.451953411102295,2.584872245788574,9.750152587890625
1700852526627076000,17.453076171875,-5.788985252380371,1.986372947692871,10.898513793945312
1700852526644066600,17.470066650390624,-4.031020641326904,0.36043739318847656,10.613160133361816
1700852526661056800,17.487056884765625,-1.1843057870864868,-1.882944107055664,9.07882022857666
1700852526678047200,17.504047119140626,1.7267959117889404,-4.234400272369385,7.91636323928833
1700852526695024600,17.521024658203125,3.845126152038574,-5.327162265777588,7.181451797485352
1700852526712016000,17.538015869140626,4.372882843017578,-4.471867084503174,6.089457035064697
1700852526729013000,17.555012939453125,3.4766054153442383,-3.036472797393799,4.62455940246582
1700852526746010000,17.572010009765624,2.3331615924835205,-1.851700782775879,2.738940715789795
1700852526762996000,17.588995849609375,1.7799770832061768,-1.6665453910827637,1.3235054016113281
1700852526779979500,17.6059794921875,2.1642987728118896,-2.034226417541504,-0.14121627807617188
1700852526796974000,17.62297412109375,3.066664695739746,-2.4725446701049805,-1.5139622688293457
1700852526813952500,17.639952392578124,3.540480136871338,-2.7099573612213135,-2.668391704559326
1700852526830950100,17.6569501953125,3.4600319862365723,-2.5977590084075928,-3.9837350845336914
1700852526847943700,17.673943603515625,2.961296796798706,-2.4693894386291504,-5.0027899742126465
1700852526864937700,17.690937744140626,2.5323848724365234,-2.1553637981414795,-5.677307605743408
1700852526881920800,17.707920654296874,2.1798810958862305,-1.9222512245178223,-6.451761245727539
1700852526898910700,17.72491064453125,1.9077459573745728,-1.9790213108062744,-6.945468425750732
1700852526915905500,17.741905517578125,1.8282179832458496,-2.0808796882629395,-7.290572166442871
1700852526932897300,17.758897216796875,2.2173242568969727,-2.3277180194854736,-7.022854804992676
1700852526949888500,17.775888427734376,2.7045304775238037,-2.54061222076416,-6.140023231506348
1700852526966874400,17.792874267578124,2.665672779083252,-2.912421226501465,-5.551753520965576
1700852526983863600,17.809863525390625,2.489563226699829,-3.275676727294922,-5.589191913604736
1700852527000854000,17.82685400390625,2.446645736694336,-3.7090797424316406,-5.601249694824219
1700852527017844700,17.8438447265625,2.42156982421875,-4.079865455627441,-5.010711669921875
1700852527034841000,17.860841064453126,2.5410220623016357,-4.099673748016357,-4.204946994781494
1700852527051824000,17.87782421875,3.056863307952881,-4.100912570953369,-3.2551870346069336
1700852527068827600,17.89482763671875,3.6115410327911377,-4.386104583740234,-2.084092140197754
1700852527085816800,17.91181689453125,3.3147401809692383,-5.404839038848877,-0.9984703063964844
1700852527102795800,17.928795654296874,2.427370309829712,-5.773477554321289,-1.6259765625
1700852527119797200,17.94579736328125,1.9235714673995972,-5.942808151245117,-2.201773166656494
1700852527136787200,17.962787109375,1.7648974657058716,-6.152031898498535,-1.8486361503601074
1700852527153791200,17.979791259765626,2.1402382850646973,-6.169930934906006,-0.2412700653076172
1700852527170768100,17.99676806640625,2.3068394660949707,-6.06551456451416,2.120563507080078
1700852527187755800,18.013755859375,1.4693937301635742,-5.926926612854004,3.666624069213867
1700852527204738300,18.03073828125,0.10683512687683105,-5.291000843048096,3.978692054748535
1700852527221741800,18.047741943359377,-0.8927288055419922,-4.403784275054932,3.7074594497680664
1700852527238727200,18.06472705078125,-0.9673817157745361,-3.2297754287719727,3.2811574935913086
1700852527255725800,18.081725830078124,-0.5355371832847595,-2.0620570182800293,3.1826658248901367
1700852527272707000,18.09870703125,-0.3339902460575104,-0.5183629989624023,2.2202091217041016
1700852527289700900,18.115700927734373,-0.3916136920452118,0.6657090187072754,0.7928028106689453
1700852527306691300,18.13269140625,-0.21472686529159546,1.5679728984832764,-0.7600808143615723
1700852527323681500,18.149681640625,0.08797696232795715,2.181037425994873,-1.5103583335876465
1700852527340661800,18.166661865234374,0.5790443420410156,2.68000864982605,-1.5197954177856445
1700852527357664800,18.183664794921874,0.506576418876648,3.01334810256958,-1.1551427841186523
1700852527374650000,18.200650146484374,-0.3219396471977234,3.3177127838134766,-0.825556755065918
1700852527391643000,18.217642822265624,-1.3151650428771973,3.3903095722198486,-0.4833836555480957
1700852527408633000,18.234633056640625,-2.138211488723755,3.4066667556762695,0.03486967086791992
1700852527425623800,18.251623779296875,-2.6458616256713867,3.319232225418091,1.2926831245422363
1700852527442614000,18.268614013671876,-3.0100455284118652,3.4800162315368652,2.3798465728759766
1700852527459604700,18.285604736328125,-3.2540624141693115,3.603952407836914,3.00954532623291
1700852527476592400,18.30259228515625,-3.181889057159424,3.5789694786071777,3.6969804763793945
1700852527493587700,18.319587646484376,-2.7234771251678467,3.2250595092773438,4.513869285583496
1700852527510564900,18.33656494140625,-1.9795520305633545,2.698276996612549,5.431786060333252
1700852527527566000,18.353566162109374,-1.1309216022491455,2.4919676780700684,6.142427444458008
1700852527544556300,18.370556396484375,-0.16534548997879028,3.022768974304199,6.328985691070557
1700852527561546800,18.387546630859376,0.3487250804901123,3.709346294403076,6.768641948699951
1700852527578534400,18.404534423828125,0.35450249910354614,4.305675506591797,7.2903218269348145
1700852527595530000,18.421530029296875,-0.4611416757106781,4.701242446899414,7.3118062019348145
1700852527612507400,18.43850732421875,-1.5779528617858887,4.726321220397949,7.140275478363037
1700852527629508400,18.45550830078125,-2.3164498805999756,4.645721912384033,7.30889368057251
1700852527646498600,18.47249853515625,-2.9904134273529053,3.5334835052490234,8.490485191345215
1700852527663488800,18.48948876953125,-3.231238842010498,2.437558650970459,9.635997772216797
1700852527680479200,18.506479248046876,-3.218775749206543,1.804105281829834,10.13761043548584
1700852527697467100,18.523467041015625,-3.6032705307006836,1.6440420150756836,9.902099609375
1700852527714462700,18.540462646484375,-3.5528526306152344,1.947044849395752,8.891613960266113
1700852527731450400,18.557450439453124,-2.232409715652466,1.7964601516723633,8.604131698608398
1700852527748440800,18.57444091796875,-0.4491041302680969,1.1181697845458984,8.18764591217041
1700852527765431000,18.59143115234375,0.9818328619003296,-0.08691120147705078,8.019810676574707
1700852527782422000,18.608422119140624,1.7818868160247803,-1.430494785308838,8.14927864074707
1700852527799411200,18.6254111328125,1.7666850090026855,-2.154819965362549,7.685498237609863
1700852527816402400,18.64240234375,1.5121710300445557,-2.1680736541748047,6.368081569671631
1700852527833387500,18.659387451171874,1.5626574754714966,-1.5929808616638184,4.3252716064453125
1700852527850373400,18.676373291015626,1.8514913320541382,-1.0130796432495117,2.1296329498291016
1700852527867370800,18.693370849609376,2.177266836166382,-0.7594723701477051,0.3411245346069336
1700852527884366000,18.710365966796875,2.4546167850494385,-0.7660050392150879,-1.0118975639343262
1700852527901345000,18.727344970703125,2.4456417560577393,-0.8315238952636719,-2.186267375946045
1700852527918344200,18.74434423828125,2.3479268550872803,-1.022780418395996,-2.9684219360351562
1700852527935324200,18.76132421875,2.2525103092193604,-1.0931906700134277,-3.8229551315307617
1700852527952325000,18.7783251953125,2.1500518321990967,-1.1459081172943115,-4.840211868286133
1700852527969315600,18.795315673828124,1.9633837938308716,-1.2826523780822754,-5.571418285369873
1700852527986305800,18.812305908203125,1.879162073135376,-1.4355194568634033,-6.03665828704834
1700852528003296300,18.829296142578126,1.9210723638534546,-1.6595611572265625,-6.282514572143555
1700852528020276000,18.84627587890625,2.035153388977051,-2.143618583679199,-6.0369977951049805
1700852528037277200,18.863277099609373,2.396334171295166,-2.336972236633301,-5.688185691833496
1700852528054265000,18.88026513671875,2.8597702980041504,-2.4243967533111572,-5.410073757171631
1700852528071257600,18.897257568359375,2.898923873901367,-2.547899007797241,-5.297036170959473
1700852528088229000,18.91422900390625,2.904757499694824,-2.918397903442383,-4.967041492462158
1700852528105238500,18.931238525390626,2.913644313812256,-3.3130292892456055,-4.4822773933410645
1700852528122224600,18.948224609375,3.202899932861328,-4.026161193847656,-3.651266098022461
1700852528139212300,18.96521240234375,3.676942825317383,-4.75467586517334,-2.7079544067382812
1700852528156205300,18.982205322265624,4.252166748046875,-4.9477033615112305,-2.418013095855713
1700852528173200000,18.999199951171875,4.725433826446533,-4.986027240753174,-1.8851747512817383
1700852528190185500,19.016185546875,4.148714542388916,-5.435405254364014,-0.984649658203125
1700852528207180500,19.0331806640625,2.823619842529297,-5.253374099731445,-0.892399787902832
1700852528224171000,19.0501708984375,1.707076072692871,-4.949835777282715,-1.0703496932983398
1700852528241162200,19.067162353515624,1.1572253704071045,-5.0808024406433105,-0.8862009048461914
1700852528258151700,19.084151611328124,1.3591151237487793,-5.082399368286133,-0.3286924362182617
1700852528275142100,19.10114208984375,1.7876980304718018,-4.664470672607422,0.9096965789794922
1700852528292121900,19.118121826171876,0.8545888662338257,-4.207798957824707,1.688673973083496
1700852528309122600,19.13512255859375,-0.9178057312965393,-3.6843974590301514,1.976790428161621
1700852528326110200,19.152110107421876,-2.4457316398620605,-3.2494633197784424,2.039320945739746
1700852528343106300,19.169106201171875,-2.7286224365234375,-2.926812171936035,2.299830436706543
1700852528360085800,19.186085693359374,-2.310911178588867,-2.5407443046569824,2.4637069702148438
1700852528377076700,19.20307666015625,-1.368489146232605,-1.7973952293395996,1.9797039031982422
1700852528394074600,19.22007470703125,-0.5099393129348755,-0.5939335823059082,1.275557518005371
1700852528411064800,19.23706494140625,-0.05700348690152168,0.8596014976501465,0.9296293258666992
1700852528428055000,19.254054931640624,-0.2317415475845337,2.2678987979888916,0.3930497169494629
1700852528445045500,19.27104541015625,-0.6387633085250854,3.333371639251709,-0.04387855529785156
1700852528462022100,19.288022216796875,-1.0092034339904785,3.7916476726531982,-0.37450742721557617
1700852528479023900,19.30502392578125,-0.8489142656326294,3.7892932891845703,-0.496309757232666
1700852528496016600,19.3220166015625,-0.6637425422668457,3.6908938884735107,-0.33966684341430664
1700852528513007000,19.339007080078126,-0.5351531505584717,3.786388397216797,0.17750072479248047
1700852528529989400,19.3559892578125,-0.5727887749671936,3.9438815116882324,1.154623031616211
1700852528546985700,19.37298583984375,-1.0647964477539062,4.0731706619262695,1.7901859283447266
1700852528563979800,19.389979736328126,-1.5664502382278442,3.8399434089660645,2.216116428375244
1700852528580958000,19.4069580078125,-1.4502981901168823,3.067619800567627,3.206603527069092
1700852528597948400,19.423948486328126,-1.1039952039718628,2.658870220184326,3.9790329933166504
1700852528614950700,19.44095068359375,-0.6034454703330994,2.717635154724121,4.690263748168945
1700852528631926800,19.4579267578125,-0.25785359740257263,3.1896018981933594,5.119708061218262
1700852528648927500,19.474927490234375,-0.23413196206092834,3.6788549423217773,5.4961090087890625
1700852528665924400,19.49192431640625,0.005314633250236511,3.699629306793213,6.3232808113098145
1700852528682908700,19.50890869140625,0.3120569586753845,3.6519570350646973,6.9066386222839355
1700852528699900700,19.525900634765627,0.3552815318107605,3.730409622192383,7.062866687774658
1700852528716891400,19.542891357421876,-0.11204200983047485,4.154825687408447,6.9751667976379395
1700852528733881300,19.55988134765625,-0.15751780569553375,3.9610204696655273,7.486796855926514
1700852528750872000,19.5768720703125,-0.0006556212902069092,2.377500057220459,8.634756088256836
1700852528767859700,19.593859619140623,0.05849829316139221,1.6727237701416016,8.759029388427734
1700852528784855600,19.61085546875,-0.6777294874191284,1.2724695205688477,9.01664924621582
1700852528801843000,19.627843017578126,-1.394310712814331,1.5167551040649414,9.182178497314453
1700852528818833400,19.64483349609375,-1.814436435699463,1.8337516784667969,9.063558578491211
1700852528835819800,19.66181982421875,-1.6711792945861816,1.73624849319458,8.460662841796875
1700852528852814000,19.67881396484375,-0.9579422473907471,0.7926630973815918,8.03980541229248
1700852528869804500,19.695804443359375,-0.30801117420196533,-0.6028547286987305,7.98067569732666
1700852528886795000,19.712794921875,0.1341022253036499,-1.7554054260253906,7.6674041748046875
1700852528903785000,19.729784912109373,0.4773879647254944,-2.0887303352355957,6.6832594871521
1700852528920775700,19.746775634765626,1.3865790367126465,-1.4098005294799805,4.887790203094482
1700852528937749800,19.763749755859376,2.064470052719116,-1.0209150314331055,3.4644932746887207
1700852528954749700,19.780749755859375,2.006228446960449,-0.45954322814941406,1.8969554901123047
1700852528971733200,19.797733154296875,1.5048290491104126,-0.10334634780883789,0.41385793685913086
1700852528988739800,19.81473974609375,1.1978896856307983,-0.06485652923583984,-0.8512439727783203
1700852529005728500,19.831728515625,1.1219477653503418,-0.19828271865844727,-2.0035223960876465
1700852529022727700,19.848727783203124,1.3597110509872437,-0.48946571350097656,-2.9407362937927246
1700852529039708200,19.865708251953127,1.934435486793518,-0.7690510749816895,-3.9065208435058594
1700852529056698400,19.882698486328124,2.293487548828125,-0.952477216720581,-4.7570037841796875
1700852529073688300,19.899688232421877,2.044217824935913,-1.1090083122253418,-5.43917179107666
1700852529090679000,19.916678955078126,1.7200307846069336,-1.2947814464569092,-5.6579389572143555
1700852529107670000,19.933669921875,1.2283855676651,-1.2137868404388428,-6.089082717895508
1700852529124659200,19.9506591796875,0.9156417846679688,-1.2857835292816162,-6.326698303222656
1700852529141650000,19.96764990234375,1.044193983078003,-1.5697689056396484,-6.096561908721924
1700852529158640600,19.984640625,1.6080695390701294,-1.9390275478363037,-5.542144775390625
1700852529175630800,20.001630859375,2.2128500938415527,-2.480360269546509,-4.555180072784424
1700852529192621000,20.01862109375,2.3887195587158203,-2.7251482009887695,-4.179297924041748
1700852529209611300,20.035611328125,2.0987231731414795,-2.8212456703186035,-4.170285701751709
1700852529226602000,20.05260205078125,2.051807403564453,-3.1648025512695312,-3.6688613891601562
1700852529243592200,20.06959228515625,2.5890328884124756,-3.6974966526031494,-2.9221949577331543
1700852529260582400,20.08658251953125,2.974278450012207,-4.242643356323242,-2.024690628051758
1700852529277572900,20.10357275390625,3.4054908752441406,-4.467913627624512,-0.959630012512207
1700852529294563800,20.120563720703124,3.0046567916870117,-4.895560264587402,-0.04973125457763672
1700852529311552800,20.137552734375,2.1633572578430176,-4.750563621520996,-0.34546470642089844
1700852529328544000,20.1545439453125,1.4793492555618286,-4.829893112182617,-0.9452276229858398
1700852529345534500,20.171534423828124,1.7968753576278687,-5.227097511291504,-1.331676959991455
1700852529362511600,20.18851171875,2.486590623855591,-5.262701988220215,-1.0449142456054688
1700852529379504600,20.205504638671876,2.7460777759552,-5.020271301269531,-0.12683773040771484
1700852529396495400,20.222495361328125,2.2148075103759766,-4.577347278594971,0.6244516372680664
1700852529413490700,20.23949072265625,0.9618192911148071,-3.9943654537200928,0.749943733215332
1700852529430476000,20.25647607421875,-0.10576847195625305,-3.6555027961730957,0.5418024063110352
1700852529447470600,20.273470703125,-0.4653003513813019,-3.4384536743164062,0.3188142776489258
1700852529464458800,20.290458740234374,0.14640416204929352,-3.0220394134521484,0.42257118225097656
1700852529481443300,20.307443359375,0.7830734252929688,-2.435319423675537,1.0703449249267578
1700852529498447400,20.324447265625,0.745557963848114,-1.027085781097412,1.1158332824707031
1700852529515437800,20.341437744140624,0.22996863722801208,0.5060501098632812,0.9958629608154297
1700852529532428000,20.358427978515625,-0.7854260802268982,1.7096214294433594,0.7340507507324219
1700852529549418500,20.37541845703125,-1.7173943519592285,2.5511035919189453,0.40256595611572266
1700852529566409000,20.392408935546875,-2.1992268562316895,2.9462502002716064,0.07044219970703125
1700852529583399000,20.40939892578125,-1.7983481884002686,3.0924084186553955,0.16260242462158203
1700852529600399600,20.426399658203124,-1.201136827468872,3.224943161010742,0.5003314018249512
1700852529617388300,20.44338818359375,-0.5723768472671509,3.4306485652923584,1.2998976707458496
1700852529634370000,20.4603701171875,-0.3379344046115875,3.773159980773926,2.1907896995544434
1700852529651361500,20.477361572265625,-0.8057995438575745,4.258481979370117,2.3330941200256348
1700852529668350700,20.494350830078126,-1.6382505893707275,4.1670074462890625,2.8638620376586914
1700852529685341200,20.511341064453124,-1.849731206893921,3.962132215499878,3.548806667327881
1700852529702331400,20.528331298828125,-1.244615077972412,3.5825304985046387,4.69406270980835
1700852529719311000,20.54531103515625,-0.6505041718482971,3.3419742584228516,5.827330112457275
1700852529736309200,20.562309326171874,-0.5298190712928772,3.591855049133301,6.6455512046813965
1700852529753288400,20.579288330078125,-1.0694873332977295,3.9869489669799805,7.530862808227539
1700852529770282200,20.5962822265625,-1.6548216342926025,4.430946350097656,8.19899845123291
1700852529787283000,20.613282958984374,-1.8951067924499512,4.163913249969482,8.8370943069458
1700852529804273200,20.630273193359375,-1.5495970249176025,3.9403204917907715,8.799991607666016
1700852529821263600,20.647263671875,-0.8809450268745422,4.044554710388184,8.0653657913208
1700852529838254300,20.66425439453125,-0.473174512386322,4.5184783935546875,6.993267059326172
1700852529855244300,20.681244384765623,-0.4037507474422455,4.012357234954834,6.978674411773682
1700852529872238000,20.698238037109373,-0.117442786693573,2.3948779106140137,7.755332946777344
1700852529889221600,20.7152216796875,0.059386491775512695,1.3669185638427734,7.923385143280029
1700852529906212900,20.732212890625,-0.1554136872291565,1.1460542678833008,7.5121989250183105
1700852529923208400,20.74920849609375,-0.17788931727409363,1.1481866836547852,7.728355407714844
1700852529940192000,20.76619189453125,0.37314122915267944,1.302690029144287,7.8304948806762695
1700852529957186600,20.7831865234375,0.23345458507537842,0.6645026206970215,7.978084564208984
1700852529974176800,20.8001767578125,0.08093523979187012,-0.2650580406188965,8.011377334594727
1700852529991167200,20.817167236328125,0.2333264946937561,-1.1387882232666016,7.8025712966918945
1700852530008157700,20.83415771484375,0.634778618812561,-1.4950246810913086,7.084427356719971
1700852530025148000,20.85114794921875,1.416551113128662,-1.4904656410217285,6.1447882652282715
1700852530042129200,20.868129150390626,1.8246376514434814,-1.289928913116455,5.33089017868042
1700852530059127000,20.885126953125,1.7385975122451782,-0.9472951889038086,4.304506301879883
1700852530076116500,20.902116455078126,1.3105202913284302,-0.829106330871582,3.137570381164551
1700852530093111600,20.919111572265624,1.1111245155334473,-0.7767281532287598,1.749767780303955
1700852530110099500,20.936099365234377,1.1249473094940186,-0.9655256271362305,0.4317455291748047
1700852530127089700,20.953089599609374,1.26487398147583,-1.306870937347412,-0.9843864440917969
1700852530144069600,20.970069580078125,1.6564760208129883,-1.6358075141906738,-2.30924654006958
1700852530161070300,20.9870703125,2.0619900226593018,-1.8890008926391602,-3.2201199531555176
1700852530178059000,21.00405908203125,2.222174882888794,-2.0268895626068115,-4.033585071563721
1700852530195040300,21.021040283203124,2.1200311183929443,-2.061903953552246,-4.983380317687988
1700852530212040400,21.03804052734375,2.1230335235595703,-2.059460163116455,-5.699960231781006
1700852530229028900,21.05502880859375,2.225658893585205,-2.027792453765869,-6.108344554901123
1700852530246015200,21.07201513671875,2.5089640617370605,-2.0575802326202393,-6.325465679168701
1700852530263003100,21.089003173828125,2.8464980125427246,-2.2552852630615234,-6.2055745124816895
1700852530279992300,21.105992431640626,3.1528091430664062,-2.513718605041504,-6.004042625427246
1700852530296989000,21.122989013671877,3.4785590171813965,-2.780118227005005,-5.785833358764648
1700852530313981000,21.13998095703125,3.629865884780884,-3.2227749824523926,-5.311652660369873
1700852530330963700,21.156963623046874,3.7451071739196777,-3.575399398803711,-5.041133403778076
1700852530347958500,21.17395849609375,3.485502243041992,-4.001132011413574,-5.022453308105469
1700852530364950800,21.19095068359375,3.6882848739624023,-4.424156188964844,-4.589607238769531
1700852530381928200,21.20792822265625,4.265480041503906,-4.686060905456543,-3.75070858001709
1700852530398925000,21.224925048828126,4.6839141845703125,-5.1931633949279785,-2.2411890029907227
1700852530415921700,21.241921630859373,3.9106385707855225,-5.594126224517822,-1.4203853607177734
1700852530432900400,21.258900390625,2.8993256092071533,-5.1985907554626465,-1.8109397888183594
1700852530449895400,21.2758955078125,2.077580213546753,-5.400154113769531,-1.7504868507385254
1700852530466891800,21.292891845703124,1.670006513595581,-6.0061564445495605,-1.1357851028442383
1700852530483884300,21.30988427734375,1.986551284790039,-6.164326190948486,-0.34304237365722656
1700852530500869600,21.32686962890625,2.314849376678467,-5.849128723144531,0.9737577438354492
1700852530517858800,21.34385888671875,1.8292652368545532,-5.2528581619262695,2.0070877075195312
1700852530534854700,21.360854736328125,0.7281790971755981,-4.4805827140808105,2.316274642944336
1700852530551835100,21.377835205078124,-0.49179959297180176,-4.096013069152832,2.6429834365844727
1700852530568841200,21.39484130859375,-0.7320541143417358,-3.574787139892578,2.6640539169311523
1700852530585828900,21.411828857421874,-0.5605777502059937,-3.05483341217041,2.008570671081543
1700852530602819000,21.428819091796875,-0.47922196984291077,-2.3654274940490723,1.015336036682129
1700852530619807000,21.445806884765624,-0.5525818467140198,-1.208564281463623,0.08928489685058594
1700852530636802300,21.46280224609375,-0.7928848266601562,0.14521455764770508,-0.6405410766601562
1700852530653790200,21.479790283203126,-1.129016637802124,1.21425199508667,-0.9493389129638672
1700852530670780400,21.496780517578124,-1.0974962711334229,2.046433925628662,-0.8983259201049805
1700852530687771400,21.513771484375,-0.6995459198951721,2.448683023452759,-0.5962386131286621
1700852530704763100,21.53076318359375,-0.30225586891174316,2.4094815254211426,-0.40670061111450195
1700852530721751600,21.54775146484375,0.1997218132019043,2.424147129058838,-0.0804595947265625
1700852530738736600,21.564736572265623,0.5178242325782776,2.7818856239318848,1.1390953063964844
1700852530755724300,21.581724365234376,0.37152403593063354,3.2047500610351562,2.5816874504089355
1700852530772722400,21.598722412109375,0.04182630777359009,3.5872249603271484,4.121273517608643
1700852530789712600,21.615712646484376,-0.09608215093612671,3.8323044776916504,5.340509414672852
1700852530806700500,21.632700439453124,-0.5255534052848816,3.704143524169922,5.895639419555664
1700852530823696000,21.64969580078125,-0.7731039524078369,3.5404319763183594,6.217138290405273
