time,seconds_elapsed,z,y,x
1700852545265373700,0.103373779296875,-2.772282123565674,-2.5552878379821777,-0.30775976181030273
1700852545282362400,0.1203623046875,-2.5963101387023926,-2.751677989959717,0.3183560371398926
1700852545299353600,0.137353515625,-2.7154102325439453,-3.122528076171875,1.022618293762207
1700852545316334300,0.154334228515625,-2.679140090942383,-3.4397239685058594,0.35709452629089355
1700852545333324300,0.17132421875,-2.0770187377929688,-4.16367244720459,-1.437320351600647
1700852545350328800,0.188328857421875,-2.010922431945801,-4.493731498718262,-2.5884199142456055
1700852545367310800,0.205310791015625,-6.055660724639893,-4.780947208404541,-1.3098499774932861
1700852545384301600,0.222301513671875,-7.724096775054932,-5.224671840667725,-0.036696434020996094
1700852545401295400,0.23929541015625,-5.102083683013916,-5.658324241638184,0.24609804153442383
1700852545418284800,0.256284912109375,-0.899470329284668,-6.379855632781982,-0.20675992965698242
1700852545435268900,0.273268798828125,2.7215914726257324,-6.505681037902832,-0.7283563613891602
1700852545452262400,0.290262451171875,1.85357666015625,-6.732909679412842,-1.851120948791504
1700852545469255400,0.30725537109375,-2.058520793914795,-6.500659942626953,-2.2657060623168945
1700852545486247200,0.3242470703125,-4.133543014526367,-6.597381591796875,-0.8273463249206543
1700852545503227100,0.34122705078125,-1.5427368879318237,-6.662810325622559,0.2742795944213867
1700852545520234500,0.358234375,2.205024242401123,-6.96306037902832,0.5295991897583008
1700852545537217000,0.375217041015625,3.4796953201293945,-7.031035423278809,1.286168098449707
1700852545554203000,0.392202880859375,1.9067437648773193,-6.804599761962891,2.7336854934692383
1700852545571196400,0.409196533203125,0.7833431959152222,-6.042576789855957,3.4822216033935547
1700852545588185900,0.426185791015625,1.086850881576538,-5.424765586853027,4.843967437744141
1700852545605175800,0.44317578125,2.601806402206421,-4.473574161529541,6.148327827453613
1700852545622163700,0.460163818359375,3.029757261276245,-3.840158224105835,6.547861099243164
1700852545639154000,0.47715380859375,2.5552029609680176,-3.252540111541748,5.634838104248047
1700852545656149800,0.494149658203125,2.2884702682495117,-3.1576642990112305,5.627814292907715
1700852545673130000,0.5111298828125,2.1612980365753174,-2.797959089279175,6.5475969314575195
1700852545690126300,0.528126220703125,2.1229000091552734,-2.1327223777770996,8.597542762756348
1700852545707127300,0.545127197265625,1.7635102272033691,-0.7661809921264648,10.94728946685791
1700852545724104400,0.5621044921875,1.2390151023864746,1.233210563659668,11.304447174072266
1700852545741097700,0.57909765625,0.20783936977386475,2.859095573425293,10.719200134277344
1700852545758087200,0.596087158203125,-0.3188837766647339,4.1909942626953125,9.964675903320312
1700852545775068400,0.613068359375,-0.47713422775268555,5.033921241760254,9.093118667602539
1700852545792058000,0.63005810546875,-0.2339954376220703,4.982417106628418,9.325960159301758
1700852545809055700,0.6470556640625,1.1978168487548828,5.210115432739258,11.090580940246582
1700852545826048500,0.664048583984375,2.6667585372924805,6.102404594421387,11.46357536315918
1700852545843030500,0.681030517578125,2.370159864425659,6.722720146179199,9.527291297912598
1700852545860028000,0.69802783203125,1.1993255615234375,6.898934364318848,6.965327262878418
1700852545877019400,0.715019287109375,-0.10114848613739014,6.546862602233887,5.2391252517700195
1700852545894005800,0.732005859375,-0.012720882892608643,6.677582263946533,4.782429218292236
1700852545910988300,0.74898828125,0.13554322719573975,6.5101118087768555,5.349496841430664
1700852545927988200,0.76598828125,0.38874363899230957,6.5394487380981445,5.636463165283203
1700852545944964900,0.78296484375,0.027502477169036865,6.639904022216797,5.443976402282715
1700852545961963800,0.7999638671875,-0.8104767799377441,6.68314790725708,4.895837306976318
1700852545978957300,0.816957275390625,-0.7969205379486084,6.514101028442383,4.668155193328857
1700852545995954200,0.8339541015625,-0.25015246868133545,5.9717278480529785,5.2774434089660645
1700852546012932600,0.8509326171875,-0.01918874680995941,5.136941909790039,6.268329620361328
1700852546029929000,0.867928955078125,0.23509936034679413,4.668510437011719,7.858363151550293
1700852546046926800,0.8849267578125,-0.46373501420021057,4.589206695556641,8.395097732543945
1700852546063906800,0.90190673828125,-1.9855921268463135,4.125733852386475,7.87349796295166
1700852546080897500,0.9188974609375,-2.3386738300323486,2.9156832695007324,7.840837001800537
1700852546097892000,0.93589208984375,-1.3213675022125244,1.3062677383422852,8.074568748474121
1700852546114885400,0.952885498046875,-0.1593460738658905,-0.6799583435058594,8.3485689163208
1700852546131869700,0.96986962890625,0.8286829590797424,-1.9692177772521973,8.161235809326172
1700852546148857600,0.986857666015625,0.8934351205825806,-2.874889850616455,8.052900314331055
1700852546165854000,1.00385400390625,0.9119299650192261,-3.1732845306396484,7.07320499420166
1700852546182830600,1.02083056640625,0.8896950483322144,-3.451852798461914,5.413143157958984
1700852546199836400,1.03783642578125,1.6976737976074219,-4.492739677429199,4.4975128173828125
1700852546216814800,1.05481494140625,2.466981887817383,-5.640598297119141,4.066629409790039
1700852546233811200,1.071811279296875,2.58626651763916,-5.973904132843018,2.732013702392578
1700852546250791700,1.088791748046875,2.5482518672943115,-5.697014808654785,1.642608642578125
1700852546267783000,1.105782958984375,2.9561448097229004,-4.867929458618164,0.5491352081298828
1700852546284796000,1.1227958984375,3.537662982940674,-3.9640142917633057,-0.6345987319946289
1700852546301770500,1.1397705078125,3.715834617614746,-3.348653554916382,-1.8808183670043945
1700852546318759400,1.156759521484375,3.540452480316162,-2.8870933055877686,-3.113480567932129
1700852546335744300,1.173744140625,3.145775079727173,-2.5117719173431396,-4.5125250816345215
1700852546352739300,1.1907392578125,2.744316577911377,-2.3209450244903564,-5.2767438888549805
1700852546369731600,1.207731689453125,2.7070538997650146,-2.102077007293701,-5.376327037811279
1700852546386720800,1.224720703125,3.06466007232666,-1.770388126373291,-5.6863908767700195
1700852546403712300,1.241712158203125,3.209517478942871,-1.7009490728378296,-6.029087066650391
1700852546420701200,1.258701171875,3.373913288116455,-1.8059494495391846,-6.390790939331055
1700852546437694000,1.27569384765625,3.4007043838500977,-1.989580750465393,-6.478857040405273
1700852546454684000,1.292683837890625,3.39036226272583,-2.2752509117126465,-6.45762825012207
1700852546471670000,1.309669921875,3.130295753479004,-2.7499728202819824,-5.836407661437988
1700852546488653600,1.326653564453125,3.7474124431610107,-2.6214075088500977,-5.3310747146606445
1700852546505651700,1.343651611328125,4.282186031341553,-2.6130154132843018,-4.860914707183838
1700852546522643000,1.360642822265625,4.421051979064941,-2.6579089164733887,-4.683681964874268
1700852546539631000,1.377631103515625,4.167886734008789,-3.392153263092041,-4.145787239074707
1700852546556626200,1.394626220703125,4.027235507965088,-4.156595706939697,-3.621540069580078
1700852546573614300,1.4116142578125,4.159573554992676,-4.775163650512695,-3.0829010009765625
1700852546590600000,1.428599853515625,4.499281883239746,-5.129345893859863,-2.267784595489502
1700852546607597600,1.44559765625,4.935728073120117,-4.967512607574463,-1.8690338134765625
1700852546624591400,1.46259130859375,4.9614763259887695,-5.4592108726501465,-1.4641780853271484
1700852546641574100,1.47957421875,4.324359893798828,-6.159319877624512,-1.2043867111206055
1700852546658562800,1.496562744140625,3.812089443206787,-6.554624557495117,-1.1523780822753906
1700852546675558000,1.513557861328125,3.0649654865264893,-6.826775550842285,-1.1666593551635742
1700852546692541400,1.53054150390625,2.3941802978515625,-6.798498153686523,-0.8500471115112305
1700852546709540000,1.5475400390625,1.8250586986541748,-6.405622482299805,0.0666799545288086
1700852546726523400,1.5645234375,2.0672168731689453,-5.975139617919922,1.3654470443725586
1700852546743506400,1.58150634765625,2.067936897277832,-5.565370082855225,2.2698068618774414
1700852546760492500,1.598492431640625,1.625910758972168,-5.152466773986816,2.373912811279297
1700852546777498600,1.61549853515625,1.4028496742248535,-4.809676170349121,2.5092592239379883
1700852546794484200,1.632484130859375,1.5056343078613281,-4.139224529266357,2.54931640625
1700852546811475700,1.649475830078125,1.4986928701400757,-3.2557291984558105,2.5208568572998047
1700852546828465000,1.66646484375,1.372863531112671,-1.8209562301635742,2.563394546508789
1700852546845446100,1.683446044921875,1.059317946434021,-0.3153848648071289,2.4811878204345703
1700852546862443000,1.700443115234375,0.7842508554458618,1.2020463943481445,2.134894371032715
1700852546879435300,1.717435302734375,0.3654426038265228,2.197211742401123,1.9979286193847656
1700852546896425700,1.73442578125,-0.18286211788654327,2.9314956665039062,1.9473514556884766
1700852546913403400,1.7514033203125,-0.6408882141113281,3.175774574279785,2.15946626663208
1700852546930396400,1.768396484375,-0.436572790145874,3.403219223022461,2.3124008178710938
1700852546947391000,1.785390869140625,0.039388507604599,3.5933806896209717,2.722897529602051
1700852546964376800,1.802376953125,0.5992370247840881,4.10561990737915,3.1905951499938965
1700852546981367000,1.819366943359375,0.3416597843170166,4.588021278381348,3.6022233963012695
1700852546998357000,1.83635693359375,-0.5173388123512268,4.827845573425293,3.771851062774658
1700852547015347500,1.853347412109375,-1.062821626663208,4.895994663238525,4.3724045753479
1700852547032339200,1.870339111328125,-0.5934038162231445,4.794105052947998,5.6263017654418945
1700852547049328600,1.88732861328125,-0.20290499925613403,4.8751068115234375,6.689178466796875
1700852547066317000,1.904317138671875,-0.7085336446762085,5.4369916915893555,7.66805362701416
1700852547083310000,1.92131005859375,-1.740561604499817,6.137698173522949,8.235250473022461
1700852547100316200,1.938316162109375,-2.469862937927246,6.322869300842285,8.940178871154785
1700852547117289200,1.955289306640625,-2.0060911178588867,6.018256187438965,9.560807228088379
1700852547134286800,1.972286865234375,-1.6939419507980347,5.434819221496582,9.323429107666016
1700852547151277300,1.98927734375,-1.7983605861663818,5.043352127075195,8.487080574035645
1700852547168267300,2.006267333984375,-1.9655370712280273,4.700883865356445,7.693753719329834
1700852547185247700,2.023247802734375,-1.3320648670196533,3.5661749839782715,7.776525497436523
1700852547202247700,2.04024755859375,-0.6919243931770325,1.197786808013916,8.87016487121582
1700852547219236400,2.057236328125,-0.6852802634239197,-0.10907840728759766,9.133424758911133
1700852547236229400,2.0742294921875,-1.2972095012664795,-0.5908718109130859,9.268123626708984
1700852547253206800,2.091206787109375,-1.4272812604904175,-1.1476459503173828,9.341483116149902
1700852547270208300,2.108208251953125,-0.20499885082244873,-1.7800326347351074,9.112713813781738
1700852547287197700,2.12519775390625,1.8771591186523438,-3.0078935623168945,8.977945327758789
1700852547304188700,2.142188720703125,3.5803778171539307,-4.419165134429932,8.354593276977539
1700852547321179400,2.159179443359375,4.5131120681762695,-5.2659478187561035,7.381974697113037
1700852547338168800,2.1761689453125,4.4436726570129395,-5.539593696594238,6.194761276245117
1700852547355150300,2.193150390625,4.221075534820557,-5.532408714294434,4.798741340637207
1700852547372146700,2.210146728515625,4.660580635070801,-5.300582408905029,3.3800458908081055
1700852547389138700,2.227138671875,5.070554256439209,-4.647686004638672,1.7320003509521484
1700852547406131700,2.244131591796875,5.261409759521484,-3.688145160675049,-0.14211368560791016
1700852547423116800,2.26111669921875,4.9470601081848145,-2.8571019172668457,-1.6630206108093262
1700852547440109600,2.278109619140625,4.63909387588501,-2.1669206619262695,-2.477048873901367
1700852547457101300,2.295101318359375,4.393494606018066,-1.6591062545776367,-2.920877456665039
1700852547474087400,2.31208740234375,4.494070529937744,-1.483778715133667,-3.362704277038574
1700852547491081000,2.3290810546875,4.668673038482666,-1.520545244216919,-3.8543334007263184
1700852547508070100,2.346070068359375,4.893595218658447,-1.9967339038848877,-4.100362777709961
1700852547525051400,2.363051513671875,5.00027322769165,-2.5359673500061035,-4.172327041625977
1700852547542048000,2.380048095703125,5.094205379486084,-2.930661916732788,-4.195589065551758
1700852547559038700,2.397038818359375,5.032614707946777,-2.969785690307617,-5.070054531097412
1700852547576034000,2.414033935546875,4.604496002197266,-3.2103705406188965,-5.891166687011719
1700852547593014000,2.431013916015625,4.507745742797852,-3.7778878211975098,-6.27902889251709
1700852547610013200,2.44801318359375,4.565760135650635,-4.881089210510254,-6.0484724044799805
1700852547627002600,2.465002685546875,4.804434776306152,-5.681513786315918,-5.904576778411865
1700852547643988700,2.48198876953125,4.892102241516113,-6.241222858428955,-5.941765308380127
1700852547660982300,2.498982177734375,4.757192611694336,-6.528995513916016,-6.186645030975342
1700852547677971200,2.51597119140625,4.868165016174316,-6.932733535766602,-6.303452968597412
1700852547694944800,2.53294482421875,4.789341449737549,-7.278041362762451,-6.504639625549316
1700852547711949000,2.549948974609375,5.090920925140381,-7.259110450744629,-6.365861892700195
1700852547728931600,2.566931640625,5.122513771057129,-7.502257823944092,-5.507741928100586
1700852547745933300,2.583933349609375,3.8355865478515625,-8.160920143127441,-3.9695773124694824
1700852547762919700,2.600919677734375,1.51114022731781,-7.806405067443848,-4.079649925231934
1700852547779912200,2.617912109375,-0.7665187120437622,-8.0635404586792,-4.464115142822266
1700852547796905500,2.634905517578125,-1.097489356994629,-8.588810920715332,-3.9442405700683594
1700852547813888300,2.65188818359375,1.016687273979187,-8.622125625610352,-2.6902332305908203
1700852547830880500,2.668880615234375,3.0253987312316895,-8.924155235290527,-0.2704000473022461
1700852547847875300,2.685875244140625,2.750781297683716,-8.814406394958496,1.496903419494629
1700852547864854300,2.702854248046875,0.9276479482650757,-8.710236549377441,3.224900245666504
1700852547881850400,2.719850341796875,-0.11025741696357727,-8.205663681030273,3.862900733947754
1700852547898846200,2.73684619140625,0.09880781173706055,-7.75377082824707,4.292245864868164
1700852547915837200,2.753837158203125,1.515063762664795,-6.785521984100342,4.601458549499512
1700852547932832500,2.77083251953125,2.7225186824798584,-5.2859206199646,4.685400009155273
1700852547949813000,2.78781298828125,3.264493227005005,-3.5136313438415527,4.849276542663574
1700852547966809300,2.804809326171875,3.5231497287750244,-1.3390474319458008,5.395174026489258
1700852547983794400,2.82179443359375,2.747810125350952,0.6405768394470215,5.510927677154541
1700852548000782000,2.838781982421875,1.7749931812286377,2.1827149391174316,4.984103202819824
1700852548017773300,2.855773193359375,1.0106145143508911,3.090841770172119,4.418666362762451
1700852548034765800,2.872765869140625,0.8868755102157593,3.486177682876587,3.8563523292541504
1700852548051751700,2.889751708984375,1.3825147151947021,3.5962371826171875,3.626567840576172
1700852548068726000,2.90672607421875,1.9791908264160156,3.3606834411621094,4.202442169189453
1700852548085735700,2.923735595703125,2.2242627143859863,3.4565224647521973,4.85676383972168
1700852548102723800,2.940723876953125,1.8225207328796387,3.7356162071228027,4.972723484039307
1700852548119715600,2.957715576171875,0.7729301452636719,3.9644765853881836,5.167689800262451
1700852548136706600,2.97470654296875,-0.6550224423408508,4.363016605377197,6.06537389755249
1700852548153692700,2.991692626953125,-1.9283583164215088,4.727035999298096,7.693068981170654
1700852548170686200,3.008686279296875,-2.818147897720337,5.125714302062988,9.018438339233398
1700852548187676000,3.025676025390625,-3.2300403118133545,5.768490791320801,9.62739372253418
1700852548204666000,3.042666015625,-4.021285533905029,6.520838737487793,10.401895523071289
1700852548221653000,3.059653076171875,-4.675662994384766,6.913924217224121,11.141531944274902
1700852548238645800,3.076645751953125,-3.653341293334961,7.023366451263428,10.766158103942871
1700852548255637200,3.09363720703125,-1.6104977130889893,6.740547180175781,10.529167175292969
1700852548272623000,3.110623046875,-0.7409418821334839,6.260224342346191,9.939960479736328
1700852548289616600,3.12761669921875,-0.6754228472709656,4.249861717224121,9.571158409118652
1700852548306607900,3.14460791015625,-0.23902463912963867,2.5128941535949707,9.647346496582031
1700852548323597300,3.161597412109375,0.8270766139030457,1.2225885391235352,10.370999336242676
1700852548340576800,3.17857666015625,1.5939843654632568,0.08125114440917969,11.457742691040039
1700852548357573000,3.195572998046875,2.410586357116699,-0.6583986282348633,11.179752349853516
1700852548374572000,3.212572021484375,2.796454429626465,-1.8381729125976562,10.672723770141602
1700852548391557600,3.2295576171875,3.073916435241699,-3.392324447631836,10.381446838378906
1700852548408535600,3.24653564453125,3.610497236251831,-4.518589973449707,9.70454216003418
1700852548425528000,3.263528076171875,4.400163650512695,-5.711892604827881,8.762262344360352
1700852548442529800,3.28052978515625,5.199690818786621,-6.965511322021484,8.042258262634277
1700852548459518200,3.297518310546875,5.522057056427002,-7.32165002822876,7.163942337036133
1700852548476498000,3.314497802734375,5.51598596572876,-6.8888325691223145,5.961470603942871
1700852548493501700,3.331501708984375,4.812298774719238,-6.458338737487793,4.223923683166504
1700852548510485200,3.3484853515625,3.956225872039795,-6.109487056732178,2.067350387573242
1700852548527468000,3.365468017578125,2.8492655754089355,-5.981418609619141,-0.04300975799560547
1700852548544468700,3.38246875,2.8185834884643555,-6.1259307861328125,-1.9927310943603516
1700852548561459000,3.399458984375,3.0451738834381104,-6.184627056121826,-3.737460136413574
1700852548578449200,3.41644921875,3.4035279750823975,-6.31036901473999,-4.930969715118408
1700852548595439400,3.433439453125,3.385745048522949,-6.432660102844238,-5.6400370597839355
1700852548612429300,3.45042919921875,2.88452410697937,-6.459522247314453,-6.276921272277832
1700852548629419800,3.467419677734375,2.276931047439575,-6.2940521240234375,-6.857117176055908
1700852548646409700,3.48440966796875,1.8044177293777466,-6.176826000213623,-7.043416976928711
1700852548663399700,3.501399658203125,1.5566033124923706,-6.3458757400512695,-6.894760608673096
1700852548680389600,3.5183896484375,1.8210983276367188,-6.34978723526001,-7.186830043792725
1700852548697380000,3.535380126953125,2.475191116333008,-6.400489807128906,-7.1701178550720215
1700852548714370000,3.5523701171875,2.8775320053100586,-6.512643814086914,-6.992911338806152
1700852548731363600,3.569363525390625,3.2051784992218018,-6.880262851715088,-6.540946960449219
1700852548748347100,3.58634716796875,3.3127636909484863,-7.311243057250977,-6.101064682006836
1700852548765330000,3.603329833984375,3.141580104827881,-7.657522201538086,-5.846754550933838
1700852548782331000,3.620330810546875,2.8001303672790527,-7.894118309020996,-5.884632110595703
1700852548799310000,3.63731005859375,2.978519916534424,-7.737926483154297,-6.193735122680664
1700852548816311000,3.65431103515625,3.6308135986328125,-8.0530424118042,-6.045124053955078
1700852548833290800,3.671290771484375,4.505227088928223,-9.114129066467285,-3.8945212364196777
1700852548850291200,3.688291259765625,4.337766647338867,-9.126372337341309,-2.8563246726989746
1700852548867281400,3.705281494140625,2.86838436126709,-8.762245178222656,-3.1221022605895996
1700852548884271600,3.722271728515625,0.8110602498054504,-9.360634803771973,-2.7500691413879395
1700852548901261600,3.739261474609375,-0.6809214353561401,-9.694562911987305,-2.5302681922912598
1700852548918249200,3.756249267578125,-0.49880659580230713,-9.496485710144043,-2.24893856048584
1700852548935244500,3.77324462890625,0.8841961622238159,-9.941463470458984,-0.6497611999511719
1700852548952221400,3.790221435546875,2.9698472023010254,-10.071839332580566,1.2037410736083984
1700852548969222000,3.807221923828125,4.026506423950195,-9.737869262695312,2.5189781188964844
1700852548986212400,3.82421240234375,3.8384883403778076,-9.182138442993164,3.3215103149414062
1700852549003207000,3.84120703125,2.616875171661377,-8.254682540893555,4.037304878234863
1700852549020192300,3.858192138671875,2.096858024597168,-6.958049774169922,4.925806999206543
1700852549037182700,3.8751826171875,2.394331932067871,-5.171019077301025,5.659238815307617
1700852549054172700,3.892172607421875,2.54858136177063,-3.1731858253479004,6.149900436401367
1700852549071163000,3.909162841796875,2.1754262447357178,-1.2265734672546387,6.299424648284912
1700852549088153300,3.9261533203125,1.699332356452942,0.510096549987793,6.25233793258667
1700852549105132500,3.943132568359375,1.2482558488845825,1.5822434425354004,6.272966384887695
1700852549122133200,3.96013330078125,0.7629119753837585,2.3008551597595215,6.626245021820068
1700852549139122200,3.9771220703125,0.25569280982017517,2.858903408050537,6.848333835601807
1700852549156114700,3.99411474609375,0.19562247395515442,3.350861072540283,6.694581985473633
1700852549173116400,4.011116455078125,0.29531627893447876,3.8199057579040527,6.396551132202148
1700852549190095000,4.02809521484375,0.23837333917617798,4.205661773681641,5.945520401000977
1700852549207082200,4.045082275390625,0.1764770746231079,4.163276195526123,5.977782726287842
1700852549224074000,4.062073974609375,-0.18743360042572021,3.956388473510742,6.0940775871276855
1700852549241064400,4.079064453125,-0.7229050397872925,3.7121143341064453,6.348844051361084
1700852549258054100,4.09605419921875,-1.4334826469421387,4.228989124298096,6.173485279083252
1700852549275033900,4.113033935546875,-1.2558605670928955,4.841163635253906,6.773338794708252
1700852549292034600,4.13003466796875,-0.5853366851806641,5.394473075866699,7.762862205505371
1700852549309022000,4.14702197265625,-0.2213110327720642,5.427694320678711,8.779297828674316
1700852549326017300,4.164017333984375,-0.8902169466018677,5.2401018142700195,9.38814640045166
1700852549342995000,4.180994873046875,-1.9940366744995117,5.12409782409668,9.289495468139648
1700852549359995000,4.197994873046875,-2.923081398010254,5.159509658813477,8.70166015625
1700852549376980500,4.21498046875,-2.946816921234131,5.195729732513428,8.40573787689209
1700852549393969400,4.231969482421875,-2.220534324645996,3.668492317199707,9.272294044494629
1700852549410967300,4.24896728515625,-1.8797295093536377,1.9362282752990723,9.78041934967041
1700852549427955700,4.265955810546875,-1.780788779258728,0.8546900749206543,9.4810152053833
1700852549444943400,4.282943359375,-1.7650387287139893,0.04437446594238281,9.309467315673828
1700852549461935900,4.299935791015625,-0.7941011190414429,0.00811767578125,8.681443214416504
1700852549478928000,4.316927978515625,0.5747267007827759,-0.5854105949401855,8.722670555114746
1700852549495914200,4.333914306640625,1.3787975311279297,-1.4197402000427246,8.552112579345703
1700852549512903400,4.3509033203125,1.8885493278503418,-2.500880241394043,7.689517021179199
1700852549529897000,4.36789697265625,2.6536307334899902,-3.6117982864379883,6.633909702301025
1700852549546889200,4.38488916015625,3.711752414703369,-4.269564628601074,5.685197353363037
1700852549563876600,4.401876708984375,4.137704849243164,-4.826983451843262,4.91735315322876
1700852549580864000,4.418864013671875,4.1414690017700195,-4.817455291748047,3.714204788208008
1700852549597859300,4.435859375,3.8436765670776367,-4.4197678565979,2.3770484924316406
1700852549614847000,4.452846923828125,3.7262420654296875,-3.5594940185546875,0.7419376373291016
1700852549631837200,4.469837158203125,3.42692232131958,-2.844161033630371,-0.8161969184875488
1700852549648816400,4.48681640625,3.0255250930786133,-2.3542866706848145,-2.0913500785827637
1700852549665816800,4.50381689453125,2.519317626953125,-2.0342187881469727,-3.195981502532959
1700852549682808300,4.520808349609375,2.061466932296753,-1.7838473320007324,-4.244226932525635
1700852549699797800,4.5377978515625,1.7461950778961182,-1.667304515838623,-5.093042373657227
1700852549716788000,4.5547880859375,1.9760000705718994,-1.688425064086914,-5.404388904571533
1700852549733767400,4.571767333984375,2.495478630065918,-1.726210594177246,-5.668039321899414
1700852549750766000,4.58876611328125,2.838038921356201,-1.9470882415771484,-5.873087406158447
1700852549767760100,4.605760009765625,3.2594070434570312,-2.135922431945801,-5.9855055809021
1700852549784748300,4.622748291015625,3.50278377532959,-2.380037784576416,-6.028095722198486
1700852549801738500,4.639738525390625,3.786844253540039,-2.504793643951416,-6.026327133178711
1700852549818726100,4.65672607421875,3.957050323486328,-2.76191782951355,-5.754809379577637
1700852549835731000,4.67373095703125,4.588967323303223,-2.7418994903564453,-5.385353088378906
1700852549852704300,4.690704345703125,4.778562545776367,-3.122610092163086,-5.101681232452393
1700852549869703200,4.707703125,4.655816555023193,-3.7939748764038086,-4.848977565765381
1700852549886691800,4.72469189453125,4.3922224044799805,-4.730688095092773,-4.733281135559082
1700852549903676400,4.741676513671875,4.765573501586914,-5.2732157707214355,-5.00625467300415
1700852549920656100,4.75865625,5.312277793884277,-5.4462995529174805,-4.946630954742432
1700852549937662200,4.775662109375,5.635899543762207,-5.983236312866211,-3.7916135787963867
1700852549954649600,4.792649658203125,4.813826560974121,-6.70705509185791,-2.8625478744506836
1700852549971629000,4.809629150390625,3.4908008575439453,-7.0417633056640625,-3.0414600372314453
1700852549988620300,4.826620361328125,2.5383129119873047,-7.5311455726623535,-3.453202724456787
1700852550005620000,4.843619873046875,2.1273279190063477,-8.303682327270508,-3.1089701652526855
1700852550022603800,4.860603759765625,2.8706164360046387,-8.026253700256348,-2.742068290710449
1700852550039597800,4.877597900390625,4.279262542724609,-7.423910140991211,-1.3896799087524414
1700852550056593200,4.89459326171875,4.518605709075928,-7.098383903503418,0.2446269989013672
1700852550073580500,4.91158056640625,3.774790048599243,-6.548746109008789,1.3573541641235352
1700852550090568000,4.92856787109375,1.8760206699371338,-5.953304767608643,1.5455684661865234
1700852550107563500,4.9455634765625,0.34040626883506775,-5.084685802459717,1.2182445526123047
1700852550124551000,4.962551025390625,-0.2689403295516968,-4.0561089515686035,1.354248046875
1700852550141541000,4.979541015625,-0.0646606907248497,-2.7183656692504883,1.8824968338012695
1700852550158530800,4.99653076171875,0.019569888710975647,-1.18873929977417,2.355217933654785
1700852550175521300,5.013521240234375,-0.30049028992652893,0.20954036712646484,2.6551895141601562
1700852550192511500,5.030511474609375,-0.5566645860671997,1.4954261779785156,2.816622734069824
1700852550209501700,5.047501708984375,-0.8197184205055237,2.2576465606689453,3.0657901763916016
1700852550226491600,5.06449169921875,-0.9020982384681702,2.4854893684387207,3.231624126434326
1700852550243471000,5.08147119140625,-0.9712771773338318,2.4158387184143066,3.2796802520751953
1700852550260471800,5.098471923828125,-0.7944830060005188,2.4061436653137207,3.367626667022705
1700852550277464300,5.11546435546875,-0.37173402309417725,2.481973171234131,3.567244052886963
1700852550294449700,5.13244970703125,0.09523099660873413,2.7244439125061035,3.8145923614501953
1700852550311443500,5.149443359375,0.5994481444358826,3.0428543090820312,4.213137149810791
1700852550328431400,5.166431396484375,0.839837372303009,3.286597728729248,4.944002151489258
1700852550345412000,5.183412109375,0.3269497752189636,3.100083351135254,6.035559177398682
1700852550362409700,5.20040966796875,-0.73964923620224,3.004718780517578,6.85446310043335
1700852550379405300,5.2174052734375,-2.2596445083618164,3.3277297019958496,7.412032604217529
1700852550396393000,5.23439306640625,-3.502253532409668,4.045486927032471,7.49074125289917
1700852550413372700,5.25137255859375,-3.2542836666107178,4.146343231201172,7.828732967376709
1700852550430373400,5.268373291015625,-1.3606065511703491,3.7920475006103516,8.349273681640625
1700852550447363600,5.285363525390625,0.4153429865837097,3.492727756500244,8.862370491027832
1700852550464350500,5.3023505859375,0.8503500819206238,3.8726272583007812,8.126741409301758
1700852550481345500,5.319345458984375,-0.07325583696365356,4.503868579864502,7.105621337890625
1700852550498324200,5.33632421875,-0.8580541610717773,4.6489739418029785,6.9982476234436035
1700852550515316500,5.35331640625,-0.6749600768089294,2.896697521209717,8.34841251373291
1700852550532316700,5.370316650390625,0.20100080966949463,0.8865847587585449,9.355889320373535
1700852550549301800,5.3873017578125,0.8115321397781372,-0.8227396011352539,9.593465805053711
1700852550566296800,5.404296875,1.0450129508972168,-1.3915557861328125,9.215370178222656
1700852550583271400,5.421271484375,1.1562538146972656,-0.9582576751708984,8.775022506713867
1700852550600274700,5.438274658203125,1.1601812839508057,-1.0763578414916992,8.951515197753906
1700852550617267500,5.455267333984375,1.0830631256103516,-1.6079330444335938,8.989337921142578
1700852550634254600,5.472254638671875,0.7720009088516235,-2.8457164764404297,8.841917037963867
1700852550651244800,5.489244873046875,0.6286258697509766,-4.084444522857666,7.826615333557129
1700852550668235000,5.506235107421875,1.5621157884597778,-4.873836517333984,6.893841743469238
1700852550685225000,5.523224853515625,2.3340351581573486,-4.3464884757995605,5.4990458488464355
1700852550702212900,5.540212890625,1.9829633235931396,-3.1408638954162598,3.458860397338867
1700852550719208200,5.557208251953125,1.58745539188385,-2.041929244995117,1.6135826110839844
1700852550736195600,5.574195556640625,1.850692868232727,-1.5403046607971191,0.5429606437683105
1700852550753178000,5.59117822265625,2.5795114040374756,-1.5182461738586426,-0.21129989624023438
1700852550770166300,5.608166259765625,3.1608641147613525,-1.797400951385498,-1.2318105697631836
1700852550787166000,5.625166015625,3.405337333679199,-2.118119239807129,-2.506096363067627
1700852550804156200,5.64215625,3.351094961166382,-2.4403700828552246,-3.7210912704467773
1700852550821146000,5.65914599609375,3.2152814865112305,-2.6009674072265625,-4.7923583984375
1700852550838136000,5.676135986328125,3.255317211151123,-2.689034938812256,-5.588271141052246
1700852550855115800,5.69311572265625,3.3244428634643555,-2.8495025634765625,-5.918323516845703
1700852550872114000,5.710114013671875,3.5814173221588135,-2.8893840312957764,-6.314624786376953
1700852550889106700,5.727106689453125,3.711474895477295,-2.912404775619507,-6.869842052459717
1700852550906099200,5.74409912109375,3.7700610160827637,-3.313793182373047,-7.109162330627441
1700852550923083300,5.761083251953125,3.791487216949463,-3.5844900608062744,-7.366497039794922
1700852550940081000,5.778080810546875,3.889592170715332,-4.02031135559082,-7.341498851776123
1700852550957067000,5.79506689453125,4.097550392150879,-4.3527984619140625,-7.282260894775391
1700852550974057200,5.81205712890625,4.42879581451416,-4.80409049987793,-6.80422306060791
1700852550991044600,5.829044677734375,4.806188583374023,-5.366478443145752,-5.725553512573242
1700852551008040000,5.8460400390625,4.857245445251465,-5.860981464385986,-5.224997520446777
1700852551025017000,5.86301708984375,4.804754734039307,-6.425695896148682,-4.914872646331787
1700852551042007300,5.88000732421875,4.392763614654541,-7.330133438110352,-4.380709648132324
1700852551059008800,5.8970087890625,3.5494446754455566,-7.691666603088379,-4.3464436531066895
1700852551075997200,5.9139970703125,2.721806049346924,-7.8155436515808105,-4.0016560554504395
1700852551092977700,5.930977783203125,2.5341808795928955,-8.558113098144531,-2.53017520904541
1700852551109978400,5.947978271484375,2.8212180137634277,-8.47401237487793,-0.9083900451660156
1700852551126967000,5.964967041015625,1.9003360271453857,-7.773833751678467,-0.35820865631103516
1700852551143949600,5.981949462890625,0.07653820514678955,-6.966231822967529,-0.36795806884765625
1700852551160948700,5.99894873046875,-1.608491063117981,-6.5118913650512695,-0.013798713684082031
1700852551177939000,6.01593896484375,-1.9371507167816162,-6.423913478851318,0.910731315612793
1700852551194935300,6.032935302734375,-0.8004736304283142,-6.378509521484375,1.774907112121582
1700852551211916500,6.04991650390625,0.8114678859710693,-6.161952018737793,2.4215240478515625
1700852551228913000,6.066912841796875,2.1685009002685547,-5.165334701538086,2.478142738342285
1700852551245898200,6.083898193359375,2.980687141418457,-3.5182909965515137,2.1084070205688477
1700852551262889200,6.10088916015625,2.4798786640167236,-1.8215208053588867,1.9890680313110352
1700852551279879000,6.11787890625,1.4834438562393188,-0.2676372528076172,2.2691307067871094
1700852551296870000,6.134869873046875,0.5761644244194031,0.9548888206481934,2.570720672607422
1700852551313859800,6.15185986328125,-0.04268771409988403,1.6696338653564453,2.7794322967529297
1700852551330847200,6.16884716796875,-0.16507843136787415,1.8719053268432617,3.179492950439453
1700852551347842800,6.1858427734375,0.29904288053512573,2.23042631149292,3.5385403633117676
1700852551364830000,6.202829833984375,0.5815796852111816,2.415205478668213,3.961636543273926
1700852551381817600,6.219817626953125,0.7488505840301514,2.896153450012207,4.514750003814697
1700852551398813000,6.23681298828125,0.4691632390022278,3.4120302200317383,4.957082748413086
1700852551415800600,6.253800537109375,-0.029684364795684814,3.907736301422119,5.318775653839111
1700852551432793000,6.27079296875,-0.4307990074157715,4.276520252227783,5.652055263519287
1700852551449762600,6.287762451171875,-0.6345329284667969,4.366946697235107,6.234625339508057
1700852551466771000,6.30477099609375,-0.3619740307331085,4.193684101104736,6.986787796020508
1700852551483761200,6.32176123046875,0.2980446219444275,3.9780287742614746,7.843324661254883
1700852551500747800,6.338747802734375,0.8415646553039551,4.08371114730835,8.373764038085938
1700852551517729300,6.355729248046875,0.8894680738449097,4.611182689666748,8.549184799194336
1700852551534720800,6.372720703125,0.4609833359718323,5.104361534118652,8.575927734375
1700852551551721500,6.389721435546875,-0.5468361973762512,5.393009185791016,8.362565994262695
1700852551568713500,6.40671337890625,-0.949358344078064,4.99680233001709,8.477683067321777
1700852551585700000,6.4237001953125,-1.2391074895858765,3.160050392150879,9.312873840332031
1700852551602687500,6.4406875,-1.0036609172821045,1.3187813758850098,9.73199462890625
1700852551619684900,6.457684814453125,-0.570512056350708,0.8357887268066406,9.282297134399414
1700852551636672000,6.474672119140625,-0.32471442222595215,0.6415834426879883,9.506387710571289
1700852551653662200,6.491662109375,0.07068604230880737,0.9751911163330078,9.390460968017578
1700852551670649600,6.508649658203125,0.4013363718986511,0.775181770324707,9.138461112976074
1700852551687645400,6.5256455078125,0.24557113647460938,-0.7972702980041504,8.958370208740234
1700852551704632800,6.5426328125,0.523271918296814,-2.417980670928955,8.493099212646484
1700852551721622800,6.559622802734375,1.2425954341888428,-3.8709611892700195,8.297271728515625
1700852551738610200,6.576610107421875,2.236820936203003,-4.443374156951904,7.4310431480407715
1700852551755605800,6.593605712890625,3.1706290245056152,-4.1531476974487305,6.006942272186279
1700852551772593200,6.61059326171875,3.713987350463867,-3.5636157989501953,4.551389217376709
1700852551789583000,6.6275830078125,3.455488443374634,-2.8674511909484863,2.9866509437561035
1700852551806573300,6.6445732421875,2.703362226486206,-2.1261868476867676,1.0919303894042969
1700852551823563500,6.6615634765625,1.841310977935791,-1.6576972007751465,-0.8727307319641113
1700852551840553500,6.678553466796875,1.6005526781082153,-1.5910792350769043,-2.3201961517333984
1700852551857543700,6.695543701171875,1.6372597217559814,-1.8421316146850586,-3.220520496368408
1700852551874534000,6.712533935546875,1.9482980966567993,-2.1044247150421143,-3.827821731567383
1700852551891521300,6.729521240234375,2.037999391555786,-2.218872308731079,-4.53525447845459
1700852551908516600,6.7465166015625,1.9665145874023438,-2.2684836387634277,-5.3494367599487305
1700852551925491500,6.763491455078125,1.7359777688980103,-2.218809127807617,-6.178577899932861
1700852551942484000,6.78048388671875,1.5964537858963013,-2.1797666549682617,-6.8218488693237305
1700852551959476500,6.7974765625,1.6260267496109009,-1.932255744934082,-7.068029403686523
1700852551976462600,6.814462646484375,1.848154067993164,-1.786576747894287,-7.120369911193848
1700852551993453800,6.831453857421875,2.165212631225586,-1.8715522289276123,-6.952962875366211
1700852552010445600,6.848445556640625,2.3727784156799316,-2.454434394836426,-6.520484447479248
1700852552027436500,6.8654365234375,2.522274971008301,-3.0186967849731445,-6.405527114868164
1700852552044428500,6.882428466796875,2.822610378265381,-3.492475986480713,-6.41571044921875
1700852552061413400,6.899413330078125,2.958611249923706,-4.048185348510742,-6.401322364807129
1700852552078407000,6.916406982421875,3.435342788696289,-4.432993412017822,-6.106775283813477
1700852552095395600,6.9333955078125,3.8492016792297363,-4.959761619567871,-5.380691051483154
1700852552112387000,6.950386962890625,4.279842853546143,-5.568215370178223,-4.418644428253174
1700852552129376500,6.96737646484375,4.850704193115234,-5.566339015960693,-3.5836033821105957
1700852552146367500,6.984367431640625,3.978829860687256,-6.021349906921387,-2.637248992919922
1700852552163356400,7.0013564453125,2.2903966903686523,-6.05949068069458,-3.3655943870544434
1700852552180345900,7.018345947265625,1.5870569944381714,-6.435826301574707,-3.366647720336914
1700852552197335800,7.035335693359375,1.5804108381271362,-7.593380928039551,-1.6259207725524902
1700852552214328600,7.05232861328125,1.9614379405975342,-7.499422073364258,-0.3450441360473633
1700852552231316000,7.06931591796875,1.7846348285675049,-7.044022560119629,0.4653501510620117
1700852552248316700,7.086316650390625,1.022072434425354,-6.594151020050049,0.9320249557495117
1700852552265306600,7.103306640625,0.49777325987815857,-6.568632125854492,1.671525001525879
1700852552282297000,7.120297119140625,0.6425145268440247,-6.751090049743652,2.748189926147461
1700852552299286800,7.137286865234375,1.6052823066711426,-6.463352680206299,3.3422927856445312
1700852552316277200,7.15427734375,2.4349124431610107,-5.51883602142334,3.5660276412963867
1700852552333256700,7.171256591796875,2.412320137023926,-3.652435302734375,3.503403663635254
1700852552350257400,7.18825732421875,1.5593297481536865,-1.547144889831543,3.4338150024414062
1700852552367247600,7.20524755859375,0.3568592667579651,0.42029237747192383,3.510741710662842
1700852552384237600,7.222237548828125,-0.788607120513916,2.0193047523498535,3.487104892730713
1700852552401227800,7.239227783203125,-1.6385059356689453,2.927290916442871,3.3107423782348633
1700852552418218000,7.256218017578125,-1.8214430809020996,3.218172550201416,3.1599979400634766
1700852552435208000,7.2732080078125,-1.3732531070709229,3.2141036987304688,3.11090087890625
1700852552452195300,7.2901953125,-0.5466391444206238,3.330742835998535,2.888688087463379
1700852552469191000,7.30719091796875,0.1275641918182373,3.3158230781555176,2.651319980621338
1700852552486178300,7.32417822265625,0.9231630563735962,3.290968418121338,3.1089091300964355
1700852552503162000,7.341162109375,0.6647635698318481,3.604856491088867,4.0310797691345215
1700852552520156000,7.358156005859375,-1.3517073392868042,4.189114093780518,4.782132148742676
1700852552537151200,7.375151123046875,-3.7451629638671875,5.077168941497803,5.6348161697387695
1700852552554137600,7.3921376953125,-5.273200988769531,5.8076887130737305,6.521400451660156
1700852552571130000,7.409130126953125,-4.703668594360352,5.843581676483154,7.871995449066162
1700852552588119300,7.426119384765625,-2.865732192993164,5.549753189086914,8.972187995910645
1700852552605098200,7.44309814453125,-1.6109622716903687,5.2795209884643555,9.417856216430664
1700852552622099500,7.460099365234375,-1.4626123905181885,4.984216690063477,9.729524612426758
1700852552639086800,7.4770869140625,-2.5229692459106445,5.022605895996094,10.024569511413574
1700852552656082200,7.494082275390625,-2.798267126083374,4.646312236785889,10.613901138305664
1700852552673070800,7.51107080078125,-1.0568716526031494,3.915188789367676,10.258070945739746
1700852552690049300,7.52804931640625,0.5822149515151978,1.1079673767089844,9.965800285339355
1700852552707036700,7.54503662109375,2.0494673252105713,-1.2634611129760742,8.000373840332031
1700852552724040200,7.562040283203125,3.680494785308838,-2.198333740234375,6.161359786987305
1700852552741027600,7.579027587890625,4.396056652069092,-2.276036262512207,5.9184417724609375
1700852552758022700,7.596022705078125,4.0392913818359375,-1.2135639190673828,5.593038082122803
1700852552775002000,7.613002197265625,2.7091410160064697,-1.70493745803833,6.388821601867676
1700852552792000800,7.630000732421875,1.9021042585372925,-2.7502198219299316,6.521623611450195
1700852552808988000,7.64698779296875,2.0532338619232178,-3.4503579139709473,5.960425853729248
1700852552825970200,7.66397021484375,2.707801103591919,-4.1387739181518555,6.047801971435547
1700852552842968800,7.68096875,2.802994728088379,-4.1936354637146,5.876918315887451
1700852552859960800,7.6979609375,2.406597852706909,-3.298090934753418,4.828314781188965
1700852552876951000,7.714950927734375,1.7376240491867065,-2.4088621139526367,3.516162872314453
1700852552893930800,7.7319306640625,1.9316973686218262,-1.1791582107543945,1.3595294952392578
1700852552910931700,7.748931640625,2.094379186630249,-0.9201855659484863,-0.20775508880615234
1700852552927921400,7.76592138671875,2.4312305450439453,-1.0923762321472168,-1.6024169921875
1700852552944902400,7.78290234375,2.409058094024658,-1.3512778282165527,-2.71976900100708
1700852552961901600,7.799901611328125,2.0727622509002686,-1.5325627326965332,-3.547591209411621
1700852552978890000,7.816889892578125,1.480075716972351,-1.7219228744506836,-4.173243522644043
1700852552995873000,7.833873046875,1.1943517923355103,-1.640568733215332,-4.843475818634033
1700852553012872200,7.8508720703125,1.1401817798614502,-1.2904369831085205,-5.453904151916504
1700852553029862100,7.867862060546875,1.3718152046203613,-1.0636892318725586,-5.692710876464844
1700852553046852400,7.884852294921875,1.6545969247817993,-0.9875328540802002,-5.827054023742676
1700852553063830800,7.901830810546875,1.7840888500213623,-1.0787231922149658,-5.985408782958984
1700852553080830000,7.918829833984375,1.7378109693527222,-1.3343162536621094,-6.179589748382568
1700852553097825300,7.9358251953125,1.9325778484344482,-1.448559045791626,-6.642991065979004
1700852553114812700,7.952812744140625,2.2475054264068604,-1.6018149852752686,-6.8391923904418945
1700852553131803000,7.969802978515625,2.8287715911865234,-1.930457592010498,-6.686557292938232
1700852553148793000,7.98679296875,3.4125208854675293,-2.7102835178375244,-6.164302349090576
1700852553165779000,8.003779052734375,3.7442336082458496,-3.706876039505005,-5.589148998260498
1700852553182773500,8.0207734375,4.333898544311523,-4.449079513549805,-5.421451568603516
1700852553199763200,8.03776318359375,4.874547958374023,-4.892141819000244,-5.3426103591918945
1700852553216753700,8.054753662109375,5.189417839050293,-5.366851806640625,-4.067063331604004
1700852553233726500,8.0717265625,4.240784645080566,-6.104804039001465,-2.2342000007629395
1700852553250734600,8.088734619140626,2.604252576828003,-6.303309440612793,-1.776219367980957
1700852553267723000,8.105722900390624,1.6488094329833984,-6.93019962310791,-1.397812843322754
1700852553284712700,8.122712646484375,1.5862466096878052,-7.915946006774902,-1.3262863159179688
1700852553301705200,8.139705322265625,1.8878772258758545,-7.7433319091796875,-0.9836235046386719
1700852553318691600,8.156691650390625,2.3302133083343506,-7.13437557220459,-0.004511833190917969
1700852553335686700,8.173686767578126,2.341221332550049,-6.856239318847656,1.2161531448364258
1700852553352674600,8.190674560546874,1.9503002166748047,-6.872351169586182,2.162832260131836
1700852553369664500,8.20766455078125,2.0483648777008057,-6.792426109313965,2.5083847045898438
1700852553386654700,8.22465478515625,2.678927421569824,-6.403501033782959,2.3494338989257812
1700852553403648300,8.241648193359374,3.334273338317871,-5.025515079498291,2.0324602127075195
1700852553420632300,8.25863232421875,3.025029420852661,-3.1787619590759277,2.0101356506347656
1700852553437624300,8.275624267578126,2.0171351432800293,-1.01991605758667,1.888563632965088
1700852553454615000,8.292614990234375,0.6174823641777039,0.7980203628540039,2.037306308746338
1700852553471605200,8.309605224609374,-0.7632671594619751,2.2232651710510254,2.166609287261963
1700852553488595200,8.32659521484375,-1.8704713582992554,2.8110647201538086,2.5261573791503906
1700852553505585400,8.34358544921875,-2.297527551651001,2.8174562454223633,2.532278537750244
1700852553522576000,8.360575927734375,-1.9004185199737549,2.709902763366699,2.4086008071899414
1700852553539562800,8.377562744140626,-0.9656988978385925,2.6471810340881348,2.731428623199463
1700852553556556800,8.394556884765626,-0.4696781635284424,2.9306273460388184,3.132882595062256
1700852553573548000,8.411548095703125,-0.7658198475837708,3.4654011726379395,3.613509178161621
1700852553590536200,8.4285361328125,-1.4912683963775635,3.952831268310547,3.828746795654297
1700852553607526100,8.445526123046875,-2.0788674354553223,4.030847072601318,4.28931999206543
1700852553624522200,8.462522216796875,-2.045015573501587,3.9152002334594727,5.078264236450195
1700852553641506600,8.479506591796875,-1.9036054611206055,3.7473955154418945,5.929542541503906
1700852553658496500,8.49649658203125,-1.7504040002822876,3.564974784851074,7.0655999183654785
1700852553675486500,8.513486572265625,-1.893648386001587,3.401021957397461,8.53084945678711
1700852553692477000,8.530476806640625,-2.085627555847168,3.6164064407348633,9.504129409790039
1700852553709467000,8.547466796875,-2.7861194610595703,3.987584114074707,10.449174880981445
1700852553726454300,8.564454345703124,-4.020942687988281,4.249569416046143,11.347500801086426
1700852553743446800,8.58144677734375,-5.327812194824219,4.608376502990723,11.304429054260254
1700852553760440000,8.598440185546876,-5.723836421966553,3.603630542755127,11.467630386352539
1700852553777427500,8.615427490234374,-4.761091232299805,1.2580146789550781,11.651508331298828
1700852553794417400,8.63241748046875,-3.0009946823120117,-0.47081947326660156,11.320411682128906
1700852553811405000,8.649405029296876,-1.3301479816436768,-0.8703813552856445,10.516368865966797
1700852553828400400,8.666400390625,-0.0778343677520752,-0.43355369567871094,9.595444679260254
1700852553845387800,8.6833876953125,1.281601071357727,-0.5370969772338867,9.16962718963623
1700852553862377700,8.700377685546876,2.684370517730713,-2.0821104049682617,9.893360137939453
1700852553879365000,8.717365234375,2.8287274837493896,-4.245722770690918,10.098403930664062
1700852553896360700,8.734360595703125,2.0963048934936523,-5.912249565124512,9.215557098388672
1700852553913339600,8.751339599609375,1.2693926095962524,-6.758867263793945,7.9411211013793945
1700852553930338300,8.76833837890625,1.6982431411743164,-6.249584197998047,6.249906063079834
1700852553947328300,8.785328369140625,3.230456829071045,-5.192868232727051,4.413902282714844
1700852553964324600,8.80232470703125,4.4921369552612305,-4.181544780731201,2.5614500045776367
1700852553981308700,8.81930859375,4.92000150680542,-3.5592737197875977,0.8538150787353516
1700852553998298600,8.836298583984375,4.463569164276123,-3.446869373321533,-0.8336896896362305
1700852554015288800,8.853288818359376,3.692765235900879,-3.594025135040283,-2.6456122398376465
1700852554032279000,8.870279052734375,3.2154598236083984,-3.479487419128418,-4.144006252288818
1700852554049269200,8.887269287109374,2.9233696460723877,-3.216634511947632,-4.858620643615723
1700852554066259500,8.904259521484375,2.7745537757873535,-2.9556148052215576,-5.272888660430908
1700852554083236000,8.921236083984375,2.523066282272339,-2.7378737926483154,-5.747501850128174
1700852554100242000,8.938241943359374,2.2579879760742188,-2.5702009201049805,-6.226309776306152
1700852554117218800,8.95521875,2.0203795433044434,-2.5531437397003174,-6.857439041137695
1700852554134219500,8.972219482421876,1.832838535308838,-2.57513689994812,-7.5883331298828125
1700852554151199200,8.98919921875,2.033670425415039,-2.4024085998535156,-8.188336372375488
1700852554168200000,9.006199951171874,2.343870162963867,-2.286329746246338,-8.399707794189453
1700852554185190100,9.023190185546875,2.4981088638305664,-2.2330005168914795,-8.277250289916992
1700852554202181400,9.040181396484375,2.6389310359954834,-2.2097620964050293,-7.9421067237854
1700852554219168800,9.057168701171875,2.2943172454833984,-2.607856512069702,-7.801059722900391
1700852554236153900,9.07415380859375,1.832658290863037,-3.3979382514953613,-7.880598545074463
1700852554253160400,9.091160400390624,1.703526496887207,-4.38693904876709,-8.039435386657715
1700852554270140400,9.108140380859375,2.2484116554260254,-4.883903503417969,-7.89552640914917
1700852554287130600,9.125130615234376,3.0235867500305176,-5.182474613189697,-6.844456672668457
1700852554304120800,9.142120849609375,4.044301509857178,-5.605884552001953,-5.0263166427612305
1700852554321110800,9.15911083984375,4.3364033699035645,-6.642800331115723,-2.319566249847412
1700852554338101000,9.17610107421875,2.9593148231506348,-7.411449432373047,-1.297287940979004
1700852554355091000,9.193091064453125,1.3066377639770508,-7.724073886871338,-1.9068827629089355
1700852554372081400,9.210081298828126,0.7067526578903198,-8.47224235534668,-1.5160202980041504
1700852554389070800,9.22707080078125,0.6014735102653503,-8.841208457946777,-0.5959110260009766
1700852554406059800,9.244059814453125,2.058215379714966,-8.027701377868652,0.656951904296875
1700852554423054000,9.26105419921875,2.9621429443359375,-7.591587066650391,2.5389862060546875
1700852554440041700,9.278041748046874,2.4410581588745117,-7.297844886779785,3.3755578994750977
1700852554457032000,9.295031982421875,1.64235520362854,-7.1019086837768555,2.9529314041137695
1700852554474019300,9.312019287109376,1.3920834064483643,-6.861021995544434,2.5839080810546875
1700852554491014400,9.329014404296874,1.422369122505188,-5.809162139892578,2.976133346557617
1700852554508002300,9.346002197265625,0.8231157064437866,-4.195677280426025,3.6771602630615234
1700852554524985000,9.362985107421874,-0.28429076075553894,-2.0809359550476074,4.098638534545898
1700852554541982500,9.379982421875,-1.267868995666504,-0.06944036483764648,4.466568946838379
1700852554558968600,9.396968505859375,-2.0396599769592285,1.3894343376159668,4.710115909576416
1700852554575966500,9.413966552734376,-2.1294891834259033,2.203756332397461,4.757734298706055
1700852554592965600,9.430965576171875,-1.4941858053207397,2.512965202331543,4.375309467315674
1700852554609943000,9.447943115234375,-0.5498948097229004,2.859046459197998,4.102295398712158
1700852554626929200,9.46492919921875,0.2813239097595215,3.3653640747070312,3.940439224243164
1700852554643912700,9.48191259765625,0.6881966590881348,3.813392162322998,3.953157901763916
1700852554660899800,9.49889990234375,0.9357984066009521,3.9913878440856934,4.343554973602295
1700852554677889000,9.515888916015625,0.5379847288131714,4.073378086090088,4.427990436553955
1700852554694882800,9.5328828125,0.15220171213150024,3.991105079650879,4.50214958190918
1700852554711883500,9.549883544921874,0.06116652488708496,4.137665271759033,5.010411262512207
1700852554728856300,9.566856201171875,-0.051852524280548096,4.376094818115234,6.270171165466309
1700852554745854500,9.5838544921875,-0.3668610751628876,4.759058952331543,7.977900505065918
1700852554762853600,9.600853515625,-1.4123380184173584,5.270965576171875,8.809871673583984
1700852554779830800,9.617830810546875,-2.3181519508361816,5.565156936645508,9.116899490356445
1700852554796829200,9.6348291015625,-2.0069875717163086,5.782804489135742,9.417387962341309
1700852554813825500,9.651825439453125,-1.116880178451538,6.13773775100708,9.39302921295166
1700852554830802400,9.668802490234375,-0.47989943623542786,5.9368510246276855,9.7252197265625
1700852554847806700,9.685806640625,-0.9860936403274536,5.5375871658325195,9.70559024810791
1700852554864794400,9.70279443359375,-1.844358205795288,3.462338924407959,10.240398406982422
1700852554881782500,9.719782470703125,-1.7488489151000977,1.1831789016723633,9.59536075592041
1700852554898777300,9.73677734375,0.19754213094711304,0.2262420654296875,8.588876724243164
1700852554915750400,9.75375048828125,2.3166556358337402,-0.9913835525512695,8.641487121582031
1700852554932755000,9.7707548828125,4.2059526443481445,-1.2077455520629883,7.5421624183654785
1700852554949745200,9.7877451171875,6.0245280265808105,-2.23464298248291,7.5671844482421875
1700852554966735000,9.804735107421875,7.164272308349609,-4.022226333618164,8.530938148498535
1700852554983722500,9.821722412109375,6.584268093109131,-4.95723819732666,8.960714340209961
1700852555000716500,9.838716552734375,4.733705520629883,-4.816573619842529,8.53758430480957
1700852555017707300,9.855707275390625,2.547703504562378,-3.5858888626098633,7.3523125648498535
1700852555034685200,9.872685302734375,1.2159100770950317,-1.8901567459106445,5.724278450012207
1700852555051685600,9.889685546875,0.7923569679260254,-1.1756515502929688,4.656769752502441
1700852555068675800,9.90667578125,1.0724778175354004,-0.9514122009277344,3.2467522621154785
1700852555085661700,9.92366162109375,1.493299126625061,-0.8925509452819824,1.6263518333435059
1700852555102646300,9.940646240234376,1.7653876543045044,-1.1781206130981445,-0.19412469863891602
1700852555119646200,9.957646240234375,1.9619892835617065,-1.646406650543213,-1.8896923065185547
1700852555136636200,9.97463623046875,1.242687702178955,-2.003236770629883,-3.393077850341797
1700852555153626000,9.991626220703125,0.24094262719154358,-1.9071173667907715,-4.709542274475098
1700852555170612700,10.00861279296875,0.27619320154190063,-1.4735918045043945,-5.507418632507324
1700852555187610000,10.025610107421874,0.7781473398208618,-1.3601250648498535,-5.972275733947754
1700852555204596500,10.042596435546875,1.7407804727554321,-1.5205600261688232,-6.357180595397949
1700852555221586400,10.05958642578125,2.612891912460327,-2.01806640625,-6.94675874710083
1700852555238566400,10.07656640625,3.7289843559265137,-2.551107168197632,-7.4825663566589355
1700852555255566800,10.09356689453125,4.095335006713867,-3.047577381134033,-7.576825141906738
1700852555272552700,10.110552734375,3.858038902282715,-3.1600730419158936,-7.32584285736084
1700852555289551400,10.12755126953125,3.2473931312561035,-2.965426445007324,-7.0802764892578125
1700852555306518800,10.144518798828125,2.8043508529663086,-3.1574888229370117,-6.393012046813965
1700852555323527400,10.16152734375,2.9540324211120605,-3.7808353900909424,-5.425868988037109
1700852555340517400,10.178517333984376,3.5424859523773193,-4.581890106201172,-4.7669291496276855
1700852555357507800,10.1955078125,4.32783317565918,-5.388593673706055,-4.845322132110596
1700852555374497500,10.21249755859375,5.133780479431152,-5.6536102294921875,-4.742445468902588
1700852555391487700,10.22948779296875,5.582610607147217,-5.328892707824707,-4.05490255355835
1700852555408478000,10.24647802734375,5.166727066040039,-5.868541717529297,-2.2223305702209473
1700852555425455000,10.263455078125,3.4523444175720215,-5.712202072143555,-2.4314279556274414
1700852555442447400,10.280447265625,2.2100024223327637,-5.818874359130859,-3.1180763244628906
1700852555459438000,10.29743798828125,2.029158115386963,-6.891706943511963,-2.663428783416748
1700852555476427800,10.314427734375,2.5472826957702637,-7.2490386962890625,-1.468137264251709
1700852555493417500,10.33141748046875,3.2647175788879395,-6.8730788230896,0.6656150817871094
1700852555510409700,10.34840966796875,2.6760809421539307,-6.4987287521362305,2.64066219329834
1700852555527398700,10.365398681640626,1.047744631767273,-5.678264617919922,3.6714611053466797
1700852555544391000,10.382390869140625,-1.0366389751434326,-4.690002918243408,4.002620697021484
1700852555561378800,10.39937890625,-2.3999183177948,-3.8535351753234863,4.014843940734863
1700852555578372900,10.416372802734376,-2.0633301734924316,-2.759359836578369,3.973534107208252
1700852555595358700,10.433358642578124,-1.2685432434082031,-1.5891151428222656,3.7827630043029785
1700852555612350200,10.45035009765625,-0.5842415690422058,-0.1406235694885254,3.059251308441162
1700852555629341000,10.4673408203125,-0.29873692989349365,1.1190505027770996,2.4885878562927246
1700852555646331400,10.484331298828126,-0.03533637523651123,2.3300814628601074,2.3744029998779297
1700852555663318500,10.501318603515625,-0.5296728610992432,3.2827072143554688,1.9629788398742676
1700852555680310800,10.518310791015624,-1.2039563655853271,3.707242250442505,1.6412525177001953
1700852555697300500,10.535300537109375,-1.4748425483703613,3.628000259399414,1.723402976989746
1700852555714292000,10.5522919921875,-1.2423498630523682,3.318178653717041,2.245887279510498
1700852555731279000,10.569279052734375,-1.0190380811691284,3.2900209426879883,2.7608213424682617
1700852555748273400,10.5862734375,-1.3534064292907715,3.5291552543640137,3.115830421447754
1700852555765259500,10.603259521484375,-1.9054657220840454,3.890718936920166,3.6755294799804688
1700852555782252500,10.62025244140625,-2.5231246948242188,4.088633060455322,4.153505802154541
1700852555799243500,10.637243408203124,-2.9136295318603516,4.187784671783447,4.572926044464111
1700852555816230700,10.654230712890625,-2.6739602088928223,4.147309303283691,4.891105651855469
1700852555833227500,10.6712275390625,-1.9036471843719482,3.9905214309692383,5.452193260192871
1700852555850220300,10.68822021484375,-1.1976382732391357,4.104421615600586,5.931872367858887
1700852555867210500,10.70521044921875,-1.2037945985794067,4.3524088859558105,6.548810958862305
1700852555884200700,10.72220068359375,-1.619368076324463,4.756570339202881,7.508025169372559
1700852555901190000,10.73918994140625,-2.0871403217315674,5.113193035125732,8.265109062194824
1700852555918179300,10.756179443359375,-2.6916451454162598,5.12443733215332,8.586387634277344
1700852555935163000,10.773162841796875,-2.7951908111572266,4.634584426879883,8.790160179138184
1700852555952160800,10.790160888671876,-2.0171895027160645,2.739304542541504,9.507227897644043
1700852555969148400,10.8071484375,0.03779721260070801,0.4571094512939453,10.176780700683594
1700852555986143700,10.824143798828125,2.0653629302978516,-0.8559999465942383,10.627450942993164
1700852556003116800,10.84111669921875,2.2748541831970215,-1.543900489807129,10.98477554321289
1700852556020118000,10.858117919921876,1.3940021991729736,-1.0652427673339844,10.080350875854492
1700852556037117000,10.875116943359375,1.518556833267212,-0.8538818359375,9.452583312988281
1700852556054099500,10.892099365234374,2.6755781173706055,-0.9818763732910156,8.800169944763184
1700852556071081500,10.90908154296875,3.674593448638916,-1.6209831237792969,7.92584753036499
1700852556088082000,10.92608203125,4.285594463348389,-3.078845977783203,8.143011093139648
1700852556105061400,10.943061279296876,3.5125138759613037,-3.1350488662719727,7.266805648803711
1700852556122062000,10.96006201171875,1.871163249015808,-2.096055030822754,5.4897236824035645
1700852556139049500,10.977049560546876,0.9665573835372925,-0.254824161529541,3.3669047355651855
1700852556156044800,10.994044921875,1.2057193517684937,1.1200690269470215,1.947916030883789
1700852556173033200,11.011033203125,1.6364086866378784,1.73429536819458,0.8615937232971191
1700852556190021600,11.028021728515625,1.7725292444229126,1.453139305114746,0.1336817741394043
1700852556207013000,11.04501318359375,2.2143335342407227,0.8780298233032227,-0.7258996963500977
1700852556224003600,11.062003662109374,2.594698429107666,0.09628152847290039,-1.4258356094360352
1700852556240992500,11.078992431640625,3.280075788497925,-0.64385986328125,-1.8302149772644043
1700852556257983000,11.09598291015625,4.134494781494141,-1.0554208755493164,-2.5975914001464844
1700852556274984400,11.112984375,4.3207783699035645,-1.5493378639221191,-3.162771224975586
1700852556291963100,11.129963134765624,4.331198692321777,-1.823117733001709,-3.5870933532714844
1700852556308953600,11.14695361328125,4.250029563903809,-2.1897854804992676,-3.7828402519226074
1700852556325942500,11.163942626953125,4.32476806640625,-2.201200485229492,-4.2669243812561035
1700852556342929200,11.18092919921875,4.631066799163818,-2.3620314598083496,-4.558648586273193
1700852556359926000,11.197926025390625,5.236410140991211,-2.7077953815460205,-4.429468631744385
1700852556376913400,11.214913330078126,5.791015625,-3.3560032844543457,-4.14811372756958
1700852556393903600,11.231903564453125,6.064397811889648,-3.9399287700653076,-4.019941329956055
1700852556410891300,11.248891357421876,5.694677352905273,-4.320440292358398,-4.393082141876221
1700852556427884000,11.265884033203125,5.098377227783203,-4.617107391357422,-5.14536190032959
1700852556444885800,11.2828857421875,4.8424882888793945,-4.858458518981934,-5.7573957443237305
1700852556461864000,11.299864013671876,4.556900501251221,-5.1404218673706055,-4.8851237297058105
1700852556478853400,11.316853271484375,2.82759165763855,-5.7349724769592285,-2.98297119140625
1700852556495844900,11.333844970703124,0.47833073139190674,-4.812650680541992,-3.152980327606201
1700852556512834300,11.350834228515625,0.5846684575080872,-4.5955071449279785,-3.0255980491638184
1700852556529824500,11.367824462890624,3.6791982650756836,-5.360301494598389,-1.7188467979431152
1700852556546814200,11.384814208984375,6.882397651672363,-6.0317606925964355,-0.5021190643310547
1700852556563791600,11.40179150390625,8.031105995178223,-6.0215864181518555,1.2092199325561523
1700852556580792000,11.4187919921875,4.805247783660889,-5.893787860870361,1.9032325744628906
1700852556597787100,11.435787109375,-0.7319585084915161,-5.163946628570557,0.2917442321777344
1700852556614774800,11.45277490234375,-5.066829204559326,-4.567317008972168,-1.0526018142700195
1700852556631764700,11.4697646484375,-5.740471839904785,-3.7622077465057373,-1.1378841400146484
1700852556648756000,11.486755859375,-3.304436206817627,-2.784797191619873,-0.45699405670166016
1700852556665747700,11.503747802734376,-0.7459111213684082,-1.8983445167541504,0.000148773193359375
1700852556682734300,11.520734375,0.4443495273590088,-0.7314243316650391,0.19178390502929688
1700852556699726300,11.537726318359375,-0.13404935598373413,0.39435911178588867,0.15881729125976562
1700852556716704800,11.554704833984376,-1.9038338661193848,1.4010484218597412,-0.2832145690917969
1700852556733705500,11.57170556640625,-3.4253029823303223,2.097672700881958,-0.9992427825927734
1700852556750695000,11.58869482421875,-3.506528854370117,2.3186988830566406,-1.3813495635986328
1700852556767683300,11.605683349609375,-1.9985864162445068,2.223799228668213,-1.0023269653320312
1700852556784681000,11.622680908203124,-0.38644832372665405,1.811830997467041,-0.5616259574890137
1700852556801664000,11.6396640625,0.72899329662323,1.5955419540405273,-0.1395092010498047
1700852556818656000,11.656656005859375,0.5681307315826416,1.6925106048583984,0.694150447845459
1700852556835646000,11.67364599609375,-0.3918604254722595,2.030064105987549,1.7298669815063477
1700852556852636200,11.69063623046875,-2.0625624656677246,2.3361659049987793,2.3497824668884277
1700852556869615600,11.70761572265625,-3.5276436805725098,2.515522003173828,2.8285984992980957
1700852556886605800,11.724605712890625,-3.5536961555480957,2.3615779876708984,3.422013759613037
1700852556903606300,11.741606201171875,-2.5225167274475098,2.1391687393188477,4.048520565032959
1700852556920596500,11.758596435546876,-1.1054227352142334,2.1879849433898926,5.2477240562438965
1700852556937586700,11.775586669921875,-1.5231881141662598,2.7176876068115234,5.7720184326171875
1700852556954576600,11.79257666015625,-2.6111645698547363,3.1241254806518555,6.846992015838623
1700852556971566600,11.809566650390625,-3.7435946464538574,3.3368563652038574,7.889552593231201
1700852556988556800,11.826556884765624,-4.348543167114258,3.550809383392334,8.337723731994629
1700852557005547000,11.843547119140625,-4.022181987762451,4.057949542999268,8.014360427856445
1700852557022524700,11.860524658203126,-3.0657997131347656,3.01033353805542,9.196268081665039
1700852557039529500,11.877529541015624,-1.6631178855895996,0.5356869697570801,10.753220558166504
1700852557056517000,11.89451708984375,-0.37660861015319824,-0.5409860610961914,11.089205741882324
1700852557073496800,11.911496826171875,-0.7844564914703369,-1.0475492477416992,11.876182556152344
1700852557090497300,11.928497314453125,-1.6582177877426147,-0.4989309310913086,12.822210311889648
1700852557107487200,11.9454873046875,-2.3360910415649414,0.007892608642578125,13.826007843017578
1700852557124477700,11.962477783203125,-2.2173609733581543,-0.3206052780151367,14.402294158935547
1700852557141467400,11.97946728515625,-1.792840600013733,-1.5770578384399414,14.221236228942871
1700852557158457900,11.996457763671875,-1.190047025680542,-2.886752128601074,12.609066009521484
1700852557175447800,12.01344775390625,0.1389041543006897,-3.589982032775879,10.314878463745117
1700852557192439300,12.030439208984374,1.9809390306472778,-3.3796353340148926,7.5314202308654785
1700852557209427000,12.047427001953125,3.5729973316192627,-2.483020305633545,4.916810035705566
1700852557226418200,12.064418212890626,4.482474327087402,-1.423248291015625,3.0396385192871094
1700852557243408400,12.081408447265625,4.145910263061523,-0.8768539428710938,1.505528450012207
1700852557260398300,12.0983984375,3.2607474327087402,-0.6428842544555664,-0.07335996627807617
1700852557277388500,12.115388427734375,2.4136416912078857,-0.938967227935791,-1.4525847434997559
1700852557294378500,12.13237841796875,2.3904552459716797,-1.468611717224121,-2.86433744430542
1700852557311368400,12.149368408203125,3.0371155738830566,-2.199765205383301,-3.806021213531494
1700852557328358700,12.166358642578125,3.730912208557129,-2.8554933071136475,-4.213975429534912
1700852557345349000,12.18334912109375,4.396302223205566,-2.8422698974609375,-4.783111572265625
1700852557362338300,12.20033837890625,4.353549480438232,-2.6663990020751953,-5.527676105499268
1700852557379328800,12.217328857421874,3.932697296142578,-2.5869953632354736,-6.199979782104492
1700852557396319000,12.234319091796875,3.644176721572876,-2.60292387008667,-6.828455924987793
1700852557413298700,12.251298583984376,3.4810280799865723,-2.955105781555176,-7.092462539672852
1700852557430299100,12.268299072265625,3.394502878189087,-3.479513645172119,-7.29132080078125
1700852557447286800,12.285286865234376,4.06784200668335,-4.323390007019043,-7.010822772979736
1700852557464281900,12.30228173828125,4.876698017120361,-5.026524543762207,-6.623845100402832
1700852557481269200,12.319269287109375,5.460242748260498,-5.414424896240234,-6.393276214599609
1700852557498259500,12.336259521484376,5.753296852111816,-5.441453456878662,-6.450041770935059
1700852557515249400,12.35324951171875,5.244691848754883,-5.569948196411133,-6.6526408195495605
1700852557532240000,12.370239990234374,5.10439395904541,-5.5583624839782715,-6.705374717712402
1700852557549229800,12.387229736328125,5.060888767242432,-6.065459251403809,-5.658606052398682
1700852557566220000,12.404219970703124,4.920156478881836,-7.014067649841309,-3.7898640632629395
1700852557583210000,12.4212099609375,4.268082618713379,-6.94356107711792,-3.2229089736938477
1700852557600200000,12.438199951171875,3.412503242492676,-6.939924240112305,-3.1810855865478516
1700852557617184500,12.4551845703125,2.711836338043213,-7.3675432205200195,-2.8896937370300293
1700852557634171600,12.472171630859375,1.9646475315093994,-7.5480499267578125,-1.7799491882324219
1700852557651170300,12.48917041015625,0.20592910051345825,-7.812183380126953,-0.28464317321777344
1700852557668160300,12.50616015625,-0.8359452486038208,-7.782444477081299,1.2542295455932617
1700852557685150500,12.523150390625,-0.9273725152015686,-7.744964122772217,2.5135860443115234
1700852557702130000,12.5401298828125,-0.21349847316741943,-7.486882209777832,3.428701400756836
1700852557719130600,12.557130615234374,0.7972947359085083,-6.88577938079834,3.7738075256347656
1700852557736118000,12.574117919921875,1.853153109550476,-5.927412509918213,3.9989757537841797
1700852557753113300,12.59111328125,2.55989933013916,-4.355255126953125,4.206579208374023
1700852557770087400,12.60808740234375,2.408215284347534,-2.6425704956054688,4.24179220199585
1700852557787091200,12.62509130859375,1.3571281433105469,-1.1530108451843262,4.126525402069092
1700852557804081400,12.642081298828124,-0.07823735475540161,0.06628131866455078,3.832137107849121
1700852557821071000,12.659071044921875,-1.4839763641357422,0.8850488662719727,3.644693374633789
1700852557838061000,12.67606103515625,-2.3273677825927734,1.370889663696289,3.8880257606506348
1700852557855051500,12.693051513671875,-2.495110511779785,1.6826996803283691,4.153501510620117
1700852557872041200,12.710041259765624,-2.41363787651062,2.0118045806884766,4.561635971069336
1700852557889031700,12.72703173828125,-2.257713556289673,2.5909204483032227,5.03367280960083
1700852557906011100,12.74401123046875,-2.488178014755249,3.340142250061035,6.113918781280518
1700852557923011800,12.76101171875,-3.2228429317474365,4.099229335784912,7.327296733856201
1700852557940001800,12.778001708984375,-4.381900310516357,4.442822456359863,7.986539363861084
1700852557956991700,12.79499169921875,-5.299617767333984,4.484190940856934,8.363292694091797
1700852557973982500,12.811982421875,-6.003939151763916,4.285712718963623,8.729665756225586
1700852557990972200,12.82897216796875,-6.193976879119873,4.391521453857422,8.816471099853516
1700852558007961900,12.8459619140625,-6.416343688964844,4.588894844055176,9.122218132019043
1700852558024952000,12.8629521484375,-6.920193672180176,4.973599910736084,9.21276569366455
1700852558041942300,12.8799423828125,-7.4453125,5.255693435668945,9.024977684020996
1700852558058943200,12.896943115234375,-7.197816371917725,4.985067844390869,8.693381309509277
1700852558075922400,12.91392236328125,-5.740642070770264,4.43508768081665,8.398473739624023
1700852558092906200,12.93090625,-4.100425720214844,4.028861999511719,8.223810195922852
1700852558109902600,12.947902587890624,-3.2869858741760254,4.082396984100342,8.225517272949219
1700852558126892800,12.964892822265625,-3.266859531402588,3.4988107681274414,8.495951652526855
1700852558143882500,12.981882568359374,-3.1693825721740723,1.672656536102295,8.945384979248047
1700852558160872700,12.998872802734375,-2.1938207149505615,-0.740452766418457,9.72783088684082
1700852558177862700,13.015862548828125,-1.435041069984436,-3.235555648803711,11.178812980651855
1700852558194850600,13.0328505859375,-0.9963010549545288,-3.054889678955078,11.307806015014648
1700852558211846000,13.049845947265625,-0.43171799182891846,-2.222675323486328,11.65201473236084
1700852558228834600,13.06683447265625,0.8490407466888428,-2.000796318054199,11.338983535766602
1700852558245821400,13.083821533203125,2.6879563331604004,-3.149911403656006,11.129071235656738
1700852558262813200,13.100813232421874,4.370846748352051,-4.755527019500732,10.166875839233398
1700852558279798300,13.11779833984375,4.990305423736572,-5.457736968994141,7.7303338050842285
1700852558296790800,13.134790771484376,5.288330554962158,-5.0840373039245605,5.132368087768555
1700852558313783600,13.151783447265625,5.547940731048584,-3.919935703277588,2.903860569000244
1700852558330776000,13.168776123046875,5.451937675476074,-2.416856288909912,0.6396965980529785
1700852558347763500,13.185763427734376,4.626835346221924,-1.6217217445373535,-0.9311237335205078
1700852558364754000,13.20275390625,3.9509189128875732,-1.6820578575134277,-2.175365924835205
1700852558381743900,13.219743896484376,3.612966299057007,-1.8231968879699707,-3.3215370178222656
1700852558398723300,13.236723388671875,3.5596485137939453,-1.890455722808838,-3.8144021034240723
1700852558415733200,13.253733154296874,3.241793632507324,-1.8895459175109863,-4.083240985870361
1700852558432714200,13.27071435546875,2.7373437881469727,-1.855426549911499,-4.446850299835205
1700852558449704200,13.2877041015625,2.36759352684021,-1.5876801013946533,-4.890700817108154
1700852558466692600,13.304692626953125,2.496837854385376,-1.271956443786621,-5.357327461242676
1700852558483686100,13.32168603515625,2.867997169494629,-1.4442768096923828,-5.584664344787598
1700852558500674600,13.338674560546876,3.183730363845825,-1.7275357246398926,-6.102179527282715
1700852558517664300,13.355664306640625,3.626739025115967,-2.1485795974731445,-6.692174911499023
1700852558534653700,13.37265380859375,4.159099578857422,-2.4534988403320312,-6.955812454223633
1700852558551645400,13.3896455078125,4.79025936126709,-2.950127124786377,-6.648210525512695
1700852558568635000,13.406634765625,5.385699272155762,-3.760939598083496,-5.710321426391602
1700852558585624800,13.423624755859375,5.9311747550964355,-4.756713390350342,-4.6154985427856445
1700852558602614800,13.44061474609375,5.940174102783203,-5.576225280761719,-4.22695255279541
1700852558619605000,13.45760498046875,6.1536865234375,-5.947117805480957,-5.161094665527344
1700852558636595000,13.474594970703125,6.6317138671875,-6.200977802276611,-5.041715145111084
1700852558653585000,13.4915849609375,6.10714054107666,-7.3369951248168945,-3.082310676574707
1700852558670575400,13.508575439453125,4.995759010314941,-7.756577014923096,-1.7786831855773926
1700852558687555300,13.525555419921876,3.9284720420837402,-7.39417839050293,-1.9988417625427246
1700852558704559000,13.54255908203125,2.7734267711639404,-7.94401216506958,-2.671175003051758
1700852558721545500,13.55954541015625,2.327322244644165,-8.03744125366211,-3.5516648292541504
1700852558738535400,13.576535400390625,2.6930594444274902,-7.761297225952148,-2.989445209503174
1700852558755526400,13.5935263671875,3.308852434158325,-8.119041442871094,0.23571205139160156
1700852558772515000,13.61051513671875,2.8445894718170166,-8.062393188476562,3.177431106567383
1700852558789505500,13.627505615234375,0.5627866983413696,-7.12299919128418,4.027355194091797
1700852558806495700,13.644495849609376,-2.593104839324951,-5.539778709411621,3.601564407348633
1700852558823476700,13.661476806640625,-5.053152084350586,-3.851285934448242,2.950894355773926
1700852558840476000,13.678475830078124,-5.703499794006348,-2.4061717987060547,2.6623449325561523
1700852558857466000,13.695466064453125,-4.3071208000183105,-1.0955119132995605,3.1561083793640137
1700852558874453800,13.712453857421876,-3.130044460296631,0.4247121810913086,3.422412395477295
1700852558891448600,13.729448486328126,-2.6432223320007324,1.7725472450256348,3.026524543762207
1700852558908423700,13.746423583984376,-2.4350314140319824,2.448676109313965,2.7502999305725098
1700852558925418200,13.763418212890626,-1.855377435684204,2.9177937507629395,2.623304843902588
1700852558942395000,13.780394775390626,-1.7502472400665283,3.005420207977295,2.7539515495300293
1700852558959398400,13.7973984375,-1.780214786529541,2.889374256134033,2.6949052810668945
1700852558976386000,13.814385986328125,-1.2778292894363403,2.80781888961792,2.557356357574463
1700852558993378300,13.83137841796875,-0.2737475633621216,2.756175994873047,2.4738078117370605
1700852559010363000,13.84836279296875,0.7378149032592773,2.964714527130127,3.0547609329223633
1700852559027357000,13.86535693359375,0.49769890308380127,3.2399630546569824,4.093933582305908
1700852559044347100,13.88234716796875,-0.5522046089172363,3.3291854858398438,5.295554161071777
1700852559061341000,13.8993408203125,-1.139228343963623,2.815988540649414,6.266435146331787
1700852559078329600,13.91632958984375,-0.6145354509353638,2.4146785736083984,7.035682678222656
1700852559095319300,13.9333193359375,0.10315430164337158,2.453888416290283,7.911104679107666
1700852559112308200,13.95030810546875,0.38488781452178955,3.0954537391662598,9.027959823608398
1700852559129300500,13.967300537109375,0.04902315139770508,3.924537181854248,10.183612823486328
1700852559146289400,13.984289306640624,-0.6964913606643677,4.150272369384766,10.850347518920898
1700852559163279000,14.001279052734375,-1.4953720569610596,4.396631717681885,10.713720321655273
1700852559180265700,14.018265625,-2.253178358078003,4.59776496887207,10.283853530883789
1700852559197258200,14.03525830078125,-2.603976249694824,3.4739394187927246,10.615842819213867
1700852559214250200,14.052250244140625,-2.1483287811279297,1.6570730209350586,10.5672025680542
1700852559231239000,14.069239013671876,-1.2450480461120605,0.09332942962646484,10.561657905578613
1700852559248232400,14.086232421875,-0.6697392463684082,-0.5206298828125,10.91229248046875
1700852559265219600,14.103219482421874,-0.7820181846618652,-0.08067131042480469,10.260470390319824
1700852559282209000,14.120208984375,-0.6140153408050537,-0.25931835174560547,9.55125617980957
1700852559299197400,14.137197509765626,0.3947024345397949,-1.443446159362793,9.452342987060547
1700852559316196900,14.15419677734375,1.5644334554672241,-2.943425178527832,9.038806915283203
1700852559333198000,14.171197998046875,2.274405002593994,-4.367043495178223,8.07769775390625
1700852559350167600,14.18816748046875,2.6842093467712402,-4.516890048980713,6.488600254058838
1700852559367168500,14.20516845703125,3.2407286167144775,-3.731494426727295,5.027769565582275
1700852559384158500,14.222158447265626,3.4501514434814453,-2.6167221069335938,3.4836058616638184
1700852559401148400,14.2391484375,3.3028016090393066,-1.5891070365905762,1.8927249908447266
1700852559418136800,14.25613671875,2.7820165157318115,-1.0334935188293457,0.6992096900939941
1700852559435130400,14.27313037109375,2.1690423488616943,-0.7748470306396484,-0.02439117431640625
1700852559452107800,14.290107666015626,1.506978154182434,-0.8616271018981934,-0.5528445243835449
1700852559469107700,14.307107666015625,1.3876947164535522,-0.8255505561828613,-1.0854253768920898
1700852559486100000,14.324099853515625,1.433802604675293,-0.6969728469848633,-1.6606731414794922
1700852559503089000,14.3410888671875,1.535904049873352,-0.46849775314331055,-2.3653993606567383
1700852559520068400,14.358068359375,1.4830965995788574,-0.6599164009094238,-2.804121494293213
1700852559537068800,14.37506884765625,1.6236926317214966,-0.985929012298584,-3.318922519683838
1700852559554048800,14.392048828125,1.7701818943023682,-1.5336072444915771,-3.804004669189453
1700852559571049000,14.409049072265624,1.850813388824463,-2.309771776199341,-4.865129470825195
1700852559588035800,14.426035888671874,2.6159656047821045,-2.856436014175415,-5.973586082458496
1700852559605032400,14.443032470703125,3.438516616821289,-3.1784780025482178,-6.619994163513184
1700852559622011100,14.46001123046875,4.226274490356445,-3.3573215007781982,-6.8032121658325195
1700852559638998800,14.476998779296874,4.693075656890869,-3.4584460258483887,-6.55499267578125
1700852559655997400,14.49399755859375,4.786003112792969,-3.6927244663238525,-6.201008319854736
1700852559672991200,14.5109912109375,4.600794315338135,-4.4254536628723145,-5.7930707931518555
1700852559689979400,14.5279794921875,4.450575351715088,-5.14570426940918,-5.863631248474121
1700852559706969600,14.544969482421875,4.593040466308594,-5.748657703399658,-5.721839904785156
1700852559723959800,14.561959716796874,5.16292142868042,-5.731301307678223,-5.102304458618164
1700852559740944000,14.57894384765625,5.045851230621338,-6.002856254577637,-3.4919252395629883
1700852559757940000,14.59593994140625,3.6166093349456787,-6.079671382904053,-2.7978601455688477
1700852559774919200,14.612919189453125,2.1133406162261963,-5.660794734954834,-3.3638195991516113
1700852559791918300,14.62991845703125,1.2431663274765015,-6.1001996994018555,-2.505289077758789
1700852559808912000,14.646911865234374,0.4733799397945404,-6.602390766143799,-1.0627384185791016
1700852559825900000,14.663900146484375,-0.21461528539657593,-7.366692543029785,0.4993782043457031
1700852559842879700,14.680879638671875,-1.1393625736236572,-7.119161605834961,-0.4014472961425781
1700852559859869700,14.69786962890625,-1.2070891857147217,-6.951730728149414,-1.8245835304260254
1700852559876869600,14.71486962890625,0.16521163284778595,-6.467045307159424,-2.303081512451172
1700852559893861400,14.731861328125,2.2221906185150146,-5.9919328689575195,-1.603090763092041
1700852559910850600,14.7488505859375,3.5600762367248535,-5.161563873291016,-0.3397941589355469
1700852559927840500,14.765840576171875,3.05710768699646,-4.590207576751709,1.2510690689086914
1700852559944830700,14.782830810546875,1.4147460460662842,-3.5345559120178223,1.6794843673706055
1700852559961820700,14.799820556640626,-0.5149686932563782,-2.2453293800354004,1.6253509521484375
1700852559978810600,14.816810546875,-2.1065011024475098,-1.036344051361084,1.766920566558838
1700852559995800600,14.833800537109376,-2.775481939315796,0.05626106262207031,2.5641884803771973
1700852560012790800,14.850790771484375,-2.8021981716156006,1.3546533584594727,3.2665982246398926
1700852560029770800,14.867770751953126,-2.83158540725708,1.6491093635559082,4.181626796722412
1700852560046771000,14.88477099609375,-2.3843955993652344,2.2031726837158203,5.900458812713623
1700852560063756500,14.901756591796875,-3.1804282665252686,2.572207450866699,6.930691242218018
1700852560080756000,14.918755859375,-5.166449546813965,3.016268253326416,7.014104843139648
1700852560097730800,14.935730712890624,-6.560506343841553,3.1553564071655273,7.047505855560303
1700852560114719000,14.952718994140625,-6.727139472961426,3.045966625213623,7.146797180175781
1700852560131724000,14.96972412109375,-5.885443687438965,2.7467899322509766,7.198659896850586
1700852560148711400,14.98671142578125,-4.5056633949279785,2.5483651161193848,7.082998752593994
1700852560165701400,15.003701416015625,-3.117504358291626,2.466154098510742,6.804218292236328
1700852560182691600,15.020691650390624,-2.0112533569335938,2.2621445655822754,6.641000747680664
1700852560199671600,15.037671630859375,-1.456526756286621,2.136777877807617,6.648504257202148
1700852560216672300,15.05467236328125,-1.3582561016082764,2.199305534362793,6.772397994995117
1700852560233661700,15.07166162109375,-1.4909677505493164,2.474607467651367,7.182462692260742
1700852560250652000,15.08865185546875,-1.6491937637329102,2.947011947631836,7.256954193115234
1700852560267641600,15.1056416015625,-1.3958088159561157,3.1906394958496094,7.096944332122803
1700852560284632000,15.122632080078125,-0.5287280082702637,3.1976161003112793,7.229015350341797
1700852560301622000,15.1396220703125,-0.28566646575927734,1.8911452293395996,8.763853073120117
1700852560318612200,15.1566123046875,-1.4945480823516846,0.3682098388671875,9.981696128845215
1700852560335599400,15.173599365234375,-3.466552734375,-0.7975864410400391,10.34156608581543
1700852560352594700,15.1905947265625,-4.6958184242248535,-0.8916540145874023,10.082489967346191
1700852560369582000,15.20758203125,-3.9167816638946533,-0.028383255004882812,9.679922103881836
1700852560386572500,15.224572509765625,-1.5763992071151733,0.4519081115722656,9.217309951782227
1700852560403562200,15.241562255859375,0.608771800994873,-0.5363883972167969,8.924498558044434
1700852560420552400,15.258552490234376,1.829315423965454,-2.2793445587158203,8.440978050231934
1700852560437542700,15.275542724609375,2.2308201789855957,-3.706136703491211,7.51703405380249
1700852560454532400,15.292532470703126,2.5595998764038086,-3.855344295501709,6.502448081970215
1700852560471520000,15.30952001953125,2.96809458732605,-2.8398594856262207,5.118674278259277
1700852560488515000,15.32651513671875,3.17095947265625,-1.3467321395874023,3.405548095703125
1700852560505503000,15.3435029296875,3.098418951034546,-0.1935138702392578,1.6903910636901855
1700852560522493000,15.360492919921874,2.961827278137207,0.29720067977905273,0.14500045776367188
1700852560539483000,15.37748291015625,3.3240296840667725,0.042887210845947266,-1.1228861808776855
1700852560556473000,15.39447314453125,3.7886810302734375,-0.38208818435668945,-1.9572701454162598
1700852560573463000,15.411463134765626,3.429527997970581,-0.5689163208007812,-2.4669151306152344
1700852560590453200,15.428453369140625,2.299849033355713,-0.37270069122314453,-3.0787315368652344
1700852560607443000,15.44544287109375,1.0675162076950073,0.13126611709594727,-3.6613311767578125
1700852560624433400,15.462433349609375,0.5778127908706665,0.6169896125793457,-4.122145175933838
1700852560641423400,15.47942333984375,1.1008760929107666,0.5542950630187988,-4.157824516296387
1700852560658413300,15.496413330078125,2.095100164413452,0.1366276741027832,-4.187326908111572
1700852560675401200,15.513401123046876,3.0669350624084473,-0.22742700576782227,-4.425611972808838
1700852560692395300,15.530395263671876,3.6670055389404297,-0.2071380615234375,-4.892182350158691
1700852560709384200,15.54738427734375,3.6979923248291016,-0.278073787689209,-4.901074409484863
1700852560726370800,15.564370849609375,3.600367546081543,-0.5169920921325684,-4.583974838256836
1700852560743366100,15.5813662109375,3.7375903129577637,-0.7253456115722656,-4.231161594390869
1700852560760353800,15.598353759765626,4.242974281311035,-1.106804370880127,-3.801185131072998
1700852560777336600,15.615336669921875,5.227351188659668,-1.614180088043213,-3.7921223640441895
1700852560794334000,15.632333984375,6.0692033767700195,-2.7118496894836426,-4.165117263793945
1700852560811324000,15.649323974609375,7.100032806396484,-4.017168045043945,-4.286930084228516
1700852560828313900,15.66631396484375,7.523260116577148,-4.917486667633057,-4.164931774139404
1700852560845304000,15.683303955078125,6.2856035232543945,-5.4558539390563965,-4.007817268371582
1700852560862294000,15.7002939453125,4.586259841918945,-4.907012462615967,-4.752993106842041
1700852560879275000,15.71727490234375,3.906179428100586,-4.971676826477051,-4.751774311065674
1700852560896274200,15.734274169921875,3.954845428466797,-6.428584575653076,-3.6316676139831543
1700852560913264000,15.75126416015625,4.535201549530029,-7.140189170837402,-2.2963685989379883
1700852560930243600,15.76824365234375,3.271425485610962,-6.986485004425049,-1.2064237594604492
1700852560947244300,15.785244384765624,-0.057367369532585144,-6.686068058013916,-0.8929567337036133
1700852560964234200,15.802234130859375,-2.6411421298980713,-6.577661991119385,-0.3681354522705078
1700852560981224400,15.819224365234374,-2.4782795906066895,-6.2671356201171875,0.7111968994140625
1700852560998211800,15.8362119140625,-0.05839024484157562,-5.571753025054932,1.5894274711608887
1700852561015207200,15.853207275390625,2.115072011947632,-4.538977146148682,1.9909334182739258
1700852561032194600,15.870194580078126,3.145716667175293,-3.075623035430908,1.787076473236084
1700852561049184800,15.887184814453125,2.3783700466156006,-1.535229206085205,1.3034887313842773
1700852561066172400,15.90417236328125,0.42620331048965454,-0.39375877380371094,1.3258824348449707
1700852561083180500,15.9211806640625,-1.3541265726089478,0.8191804885864258,1.8084969520568848
1700852561100154600,15.938154541015624,-2.5329675674438477,2.1707820892333984,2.13576602935791
1700852561117144800,15.955144775390625,-3.380612373352051,3.0944180488586426,2.2266292572021484
1700852561134134800,15.972134765625,-3.308241367340088,3.320916175842285,2.283909320831299
1700852561151113000,15.989113037109375,-2.26935076713562,3.1977148056030273,2.572500228881836
1700852561168106200,16.006106201171875,-1.2904671430587769,3.072977066040039,2.7775282859802246
1700852561185105200,16.023105224609374,-0.8198139667510986,2.9474759101867676,2.692683219909668
1700852561202095400,16.040095458984375,-0.6059415936470032,2.898251533508301,3.21290922164917
1700852561219074600,16.057074462890625,-0.5215511918067932,3.013160228729248,3.955821990966797
1700852561236075300,16.0740751953125,-0.17776882648468018,2.9809837341308594,4.975353717803955
1700852561253065200,16.091065185546874,-0.01829349994659424,3.0239181518554688,5.678868293762207
1700852561270055400,16.108055419921875,0.0797196626663208,3.114330291748047,6.369701385498047
1700852561287045600,16.125045654296876,0.4870043992996216,3.359621524810791,7.573145866394043
1700852561304035600,16.14203564453125,0.7579377889633179,3.8545751571655273,8.636964797973633
1700852561321025500,16.159025634765626,0.31093060970306396,4.186961650848389,9.640430450439453
1700852561338015700,16.176015625,-0.5183324217796326,4.223202228546143,10.352334022521973
1700852561355006000,16.193005859375,-1.4601600170135498,4.436244487762451,10.283628463745117
1700852561371995600,16.20999560546875,-2.4021670818328857,4.970226287841797,9.632135391235352
1700852561388985600,16.226985595703123,-3.1428709030151367,4.632730007171631,9.499139785766602
1700852561405973200,16.24397314453125,-2.8701634407043457,2.7772607803344727,9.992816925048828
1700852561422968800,16.26096875,-1.6064846515655518,1.1713504791259766,10.128447532653809
1700852561439963000,16.277962890625,-0.2794361114501953,-0.4587688446044922,10.746992111206055
1700852561456946200,16.2949462890625,0.33128583431243896,-0.28000736236572266,10.701207160949707
1700852561473936100,16.31193603515625,0.142167329788208,0.49936389923095703,10.367807388305664
1700852561490926300,16.32892626953125,0.4621313810348511,0.4979667663574219,10.27163314819336
1700852561507916800,16.345916748046875,0.8331630229949951,-0.5482769012451172,10.193717002868652
1700852561524903200,16.362903076171875,1.0821421146392822,-2.4413156509399414,10.074012756347656
1700852561541890300,16.379890380859376,1.3162810802459717,-4.058156967163086,9.54603099822998
1700852561558898000,16.39689794921875,1.7268327474594116,-4.569888591766357,8.317631721496582
1700852561575876600,16.413876708984375,2.3812332153320312,-3.962202548980713,6.38505220413208
1700852561592866600,16.430866455078124,3.0257303714752197,-3.0726475715637207,4.459117889404297
1700852561609856500,16.4478564453125,3.421938419342041,-2.5180716514587402,2.8476881980895996
1700852561626846500,16.464846435546875,3.2423810958862305,-2.5243101119995117,1.6844711303710938
1700852561643836700,16.481836669921876,2.6039791107177734,-2.6219468116760254,0.20125865936279297
1700852561660827000,16.498826904296877,1.9197120666503906,-2.7820630073547363,-1.401771068572998
1700852561677817000,16.515817138671874,1.756870150566101,-2.8178067207336426,-2.4621434211730957
1700852561694804200,16.53280419921875,1.7653257846832275,-2.6569766998291016,-3.3313183784484863
1700852561711799300,16.54979931640625,1.7298064231872559,-2.495816230773926,-4.033202171325684
1700852561728787000,16.566786865234373,1.9758532047271729,-2.203151226043701,-4.764012336730957
1700852561745774300,16.5837744140625,2.2641477584838867,-2.0448946952819824,-5.56776237487793
1700852561762769400,16.600769287109376,2.3735997676849365,-2.0278639793395996,-6.307559967041016
1700852561779748400,16.617748291015626,2.4974234104156494,-2.026247501373291,-6.9121294021606445
1700852561796736500,16.634736572265624,2.6568777561187744,-2.1653902530670166,-7.380256175994873
1700852561813737200,16.6517373046875,2.93717622756958,-2.5173988342285156,-7.49736213684082
1700852561830727200,16.66872705078125,3.2724852561950684,-3.0014257431030273,-7.271842956542969
1700852561847717000,16.685717041015625,3.716524124145508,-3.284325122833252,-7.357440948486328
1700852561864707300,16.702707275390626,3.8638195991516113,-3.5930163860321045,-7.279791355133057
1700852561881695000,16.719695068359375,4.097475051879883,-3.9303488731384277,-7.254212379455566
1700852561898672000,16.736672119140625,4.233500003814697,-4.481927394866943,-6.829649925231934
1700852561915675100,16.753675048828125,4.625105381011963,-5.170718193054199,-6.2599639892578125
1700852561932670000,16.770669921875,5.307211875915527,-5.594823837280273,-5.749707221984863
1700852561949657600,16.78765771484375,5.325822830200195,-6.31418514251709,-4.384429454803467
1700852561966647600,16.8046474609375,3.642648696899414,-6.671769618988037,-4.247979640960693
1700852561983637000,16.821636962890626,1.859843134880066,-6.293126106262207,-5.239492416381836
1700852562000628500,16.83862841796875,1.0782378911972046,-6.582659721374512,-5.105944633483887
1700852562017618000,16.855617919921876,0.9625062942504883,-7.522147178649902,-3.9710984230041504
1700852562034602800,16.872602783203124,1.8510627746582031,-7.36544132232666,-2.9960570335388184
1700852562051602400,16.8896025390625,2.0886576175689697,-7.6740217208862305,-1.756575584411621
1700852562068588000,16.906588134765624,1.9662448167800903,-7.784520149230957,-0.6623258590698242
1700852562085577700,16.92357763671875,1.8412628173828125,-7.791802406311035,0.6070375442504883
1700852562102568200,16.940568115234374,1.8493542671203613,-7.7545166015625,2.3881263732910156
1700852562119545000,16.957545166015624,2.181702136993408,-7.333408355712891,4.178142547607422
1700852562136550700,16.974550537109376,2.343369722366333,-6.102849006652832,5.55387020111084
1700852562153537300,16.991537353515625,1.6653764247894287,-4.363211631774902,6.247943878173828
1700852562170529000,17.008529052734374,0.5084556937217712,-2.371241569519043,6.376711845397949
1700852562187518500,17.0255185546875,-0.4632122814655304,-0.4289083480834961,6.465853691101074
1700852562204508400,17.04250830078125,-0.9415877461433411,1.2476134300231934,6.481687545776367
1700852562221498400,17.059498291015625,-1.1056804656982422,2.571911334991455,6.657506465911865
1700852562238486000,17.076486083984374,-1.1608383655548096,3.433994770050049,6.585036277770996
1700852562255480300,17.093480224609376,-1.2023435831069946,3.6629929542541504,6.3749566078186035
1700852562272469000,17.110468994140625,-1.3479554653167725,3.6352715492248535,5.814497470855713
1700852562289458400,17.12745849609375,-1.4967044591903687,3.6463279724121094,4.956121921539307
1700852562306448600,17.14444873046875,-1.3445348739624023,3.8124070167541504,4.20305061340332
1700852562323438600,17.1614384765625,-1.2771799564361572,3.992053508758545,4.198124885559082
1700852562340428800,17.1784287109375,-1.5662364959716797,4.07664680480957,4.767221927642822
1700852562357418800,17.195418701171874,-1.6880110502243042,4.155948638916016,5.552759647369385
1700852562374391800,17.212391845703124,-2.20043683052063,4.203091144561768,5.832414627075195
1700852562391398700,17.229398681640625,-2.485696792602539,4.324463844299316,5.763637542724609
1700852562408377300,17.24637744140625,-2.53507924079895,4.558403491973877,6.247277736663818
1700852562425379300,17.26337939453125,-2.2060387134552,5.045021057128906,7.1892805099487305
1700852562442371000,17.28037109375,-2.194462537765503,5.238982200622559,8.610357284545898
1700852562459356400,17.2973564453125,-2.2732017040252686,5.291824817657471,9.513570785522461
1700852562476339000,17.3143388671875,-2.570753812789917,5.040575981140137,9.43591022491455
1700852562493330400,17.331330322265625,-2.494812250137329,4.822004318237305,9.21428108215332
1700852562510322400,17.348322509765627,-2.111093282699585,4.201460838317871,9.460405349731445
1700852562527309800,17.365309814453123,-1.2748445272445679,2.1739368438720703,10.485160827636719
1700852562544301000,17.382301025390625,-0.5214542746543884,0.8372716903686523,10.820286750793457
1700852562561292000,17.3992919921875,-0.2025306224822998,-0.43482398986816406,11.298532485961914
1700852562578277600,17.416277587890626,0.0018271207809448242,-1.1708860397338867,11.278900146484375
1700852562595271400,17.433271484375,0.836067795753479,-1.1535263061523438,10.834213256835938
1700852562612262400,17.450262451171874,1.959681510925293,-1.1765785217285156,10.329071044921875
1700852562629248800,17.467248779296874,3.0634303092956543,-1.5671014785766602,9.714471817016602
1700852562646240500,17.484240478515623,3.261375904083252,-2.9577503204345703,9.24106216430664
1700852562663230000,17.50122998046875,2.7514286041259766,-4.452880382537842,8.05008316040039
1700852562680218000,17.518218017578125,2.554469108581543,-5.1376118659973145,6.011860370635986
1700852562697211600,17.535211669921875,3.169857978820801,-4.830277442932129,4.020870685577393
1700852562714202600,17.55220263671875,3.6538610458374023,-3.7158584594726562,2.165864944458008
1700852562731191800,17.56919189453125,3.334681510925293,-2.476712703704834,0.4682326316833496
1700852562748181200,17.58618115234375,2.456324577331543,-1.4509248733520508,-0.9786515235900879
1700852562765170200,17.603170166015627,1.4942233562469482,-0.8248834609985352,-2.016343593597412
1700852562782164200,17.620164306640625,1.0416831970214844,-0.626347541809082,-2.8111190795898438
1700852562799149600,17.637149658203125,0.9240223169326782,-0.6424169540405273,-3.575735092163086
1700852562816151800,17.65415185546875,0.7995925545692444,-0.7739615440368652,-4.220598220825195
1700852562833140200,17.67114013671875,0.838497519493103,-0.8052926063537598,-4.7188191413879395
1700852562850130200,17.688130126953126,1.0068025588989258,-0.8261206150054932,-5.093960762023926
1700852562867119900,17.705119873046876,0.9878031611442566,-0.8958687782287598,-5.8520073890686035
1700852562884110000,17.722110107421877,0.9687955975532532,-0.964224100112915,-6.596894264221191
1700852562901082000,17.73908203125,1.2747746706008911,-1.0593147277832031,-6.822171211242676
1700852562918090200,17.75609033203125,1.5479013919830322,-1.0978305339813232,-6.757630348205566
1700852562935080400,17.77308056640625,1.9926358461380005,-1.2265563011169434,-6.292607307434082
1700852562952070400,17.7900703125,2.2049639225006104,-1.497682809829712,-5.462997913360596
1700852562969069800,17.80706982421875,2.394531488418579,-2.0715949535369873,-4.709896564483643
1700852562986050600,17.824050537109375,2.784917116165161,-2.8578031063079834,-4.366613388061523
1700852563003040500,17.84104052734375,3.5035464763641357,-3.5777828693389893,-3.9773521423339844
1700852563020030500,17.858030517578126,4.145638942718506,-3.974879741668701,-3.5259056091308594
1700852563037015800,17.875015869140626,4.575490951538086,-4.071285247802734,-3.313206672668457
1700852563054010600,17.8920107421875,4.859346389770508,-4.70543909072876,-2.2791600227355957
1700852563071000600,17.90900048828125,4.604248046875,-5.445529460906982,-1.2130956649780273
1700852563087990500,17.925990478515626,3.756837844848633,-5.597139835357666,-1.7857351303100586
1700852563104980700,17.942980712890623,3.2893924713134766,-5.897216796875,-3.078505039215088
1700852563121970700,17.959970703125,3.4876513481140137,-6.397038459777832,-3.4963536262512207
1700852563138961400,17.97696142578125,3.7389767169952393,-6.418254852294922,-3.061464786529541
1700852563155951000,17.993951171875,3.1971282958984375,-6.273730278015137,-2.1375622749328613
1700852563172940500,18.0109404296875,1.6851153373718262,-6.342172622680664,-1.3102092742919922
1700852563189920300,18.027920166015626,0.2705565392971039,-6.149662017822266,-0.7427520751953125
1700852563206920700,18.044920654296874,-0.672635018825531,-6.31427001953125,0.2534646987915039
1700852563223911000,18.061910888671875,0.06614034622907639,-5.976320743560791,1.3897418975830078
1700852563240900900,18.07890087890625,1.1960152387619019,-5.186452388763428,2.061692237854004
1700852563257890800,18.095890869140625,2.32666015625,-3.787630558013916,2.015791893005371
1700852563274881000,18.112881103515626,2.3452563285827637,-2.0216050148010254,1.627303123474121
1700852563291860500,18.129860595703125,1.351468801498413,-0.45696258544921875,1.2871723175048828
1700852563308861400,18.146861328125,0.1541992425918579,0.8144207000732422,1.0237975120544434
1700852563325851100,18.16385107421875,-0.7081177234649658,1.7703642845153809,1.1515722274780273
1700852563342830600,18.18083056640625,-1.123538613319397,2.470524311065674,1.8898935317993164
1700852563359835400,18.19783544921875,-1.6116130352020264,2.999993324279785,2.34737491607666
1700852563376818700,18.214818603515624,-1.9112305641174316,3.0573368072509766,2.371962547302246
1700852563393814000,18.23181396484375,-1.693472146987915,2.9509944915771484,2.439242362976074
1700852563410801700,18.2488017578125,-1.0833051204681396,2.7247490882873535,3.0349931716918945
1700852563427791600,18.26579150390625,-0.5172299146652222,2.7628469467163086,4.162662029266357
1700852563444781600,18.282781494140625,-1.055222511291504,2.9312872886657715,5.256651401519775
1700852563461771500,18.299771484375,-2.285313844680786,3.2893152236938477,5.890026092529297
1700852563478760000,18.316760009765623,-3.3181748390197754,3.1123218536376953,6.7719268798828125
1700852563495735800,18.33373583984375,-3.2290334701538086,2.625159740447998,7.86964750289917
1700852563512741600,18.35074169921875,-2.3250811100006104,2.3211731910705566,9.180444717407227
1700852563529731800,18.36773193359375,-1.7910815477371216,2.535567283630371,10.092989921569824
1700852563546721800,18.3847216796875,-1.9742510318756104,3.2348737716674805,10.379590034484863
1700852563563712000,18.4017119140625,-1.8426743745803833,4.045665740966797,10.644996643066406
1700852563580701700,18.41870166015625,-1.594431757926941,4.669285774230957,10.356842041015625
1700852563597692000,18.43569189453125,-1.8724994659423828,4.844182968139648,9.656455993652344
1700852563614684200,18.45268408203125,-2.2572379112243652,4.522003173828125,9.1649751663208
1700852563631669500,18.46966943359375,-2.4955220222473145,2.797982692718506,9.517955780029297
1700852563648661800,18.486661865234375,-1.9840619564056396,1.5588865280151367,9.060710906982422
1700852563665652000,18.50365185546875,-1.0401602983474731,0.7629222869873047,9.175514221191406
1700852563682642200,18.52064208984375,-0.4831669330596924,0.27938270568847656,9.789752006530762
1700852563699632000,18.537632080078126,-0.15431153774261475,0.3415508270263672,10.007542610168457
1700852563716622000,18.5546220703125,-0.2292163372039795,0.10631942749023438,10.027597427368164
1700852563733612000,18.571612060546876,-0.07629096508026123,-0.45139408111572266,9.514026641845703
1700852563750599400,18.588599365234376,0.7440451383590698,-1.6574153900146484,9.049005508422852
1700852563767595000,18.605594970703127,2.1907248497009277,-2.906738758087158,8.651376724243164
1700852563784582100,18.62258203125,3.271657943725586,-3.553982734680176,7.862734794616699
1700852563801572000,18.639572021484376,3.804182291030884,-3.1625771522521973,6.289039611816406
1700852563818551800,18.6565517578125,3.832052707672119,-2.371689796447754,4.437828063964844
1700852563835551500,18.673551513671875,3.516944169998169,-1.457181453704834,2.4149837493896484
1700852563852543200,18.690543212890624,3.1338939666748047,-0.847498893737793,0.8179421424865723
1700852563869532200,18.7075322265625,2.773514986038208,-0.6160011291503906,-0.4897904396057129
1700852563886534100,18.7245341796875,2.5405526161193848,-0.7365708351135254,-1.716172218322754
1700852563903512600,18.7415126953125,2.358621597290039,-0.9889054298400879,-2.5746936798095703
1700852563920504000,18.758504150390625,2.1794285774230957,-1.1384906768798828,-3.603241443634033
1700852563937492700,18.77549267578125,1.9922617673873901,-1.2105116844177246,-4.361368656158447
1700852563954479600,18.792479736328126,1.822474718093872,-1.1781620979309082,-5.034442901611328
1700852563971475000,18.809474853515624,1.5733299255371094,-1.180527687072754,-5.633955478668213
1700852563988462300,18.82646240234375,1.566266655921936,-1.1647677421569824,-6.140912055969238
1700852564005461200,18.843461181640624,1.7382352352142334,-1.1788945198059082,-6.529521942138672
1700852564022439200,18.860439208984374,2.1656670570373535,-1.2524909973144531,-6.58445930480957
1700852564039432700,18.8774326171875,2.646381378173828,-1.5843088626861572,-6.369553089141846
1700852564056423000,18.8944228515625,3.1779658794403076,-1.8446896076202393,-5.985378265380859
1700852564073410300,18.911410400390626,3.7669501304626465,-2.083524703979492,-5.292964458465576
1700852564090405400,18.9284052734375,3.996849775314331,-2.432663917541504,-4.657962799072266
1700852564107393000,18.94539306640625,3.937012195587158,-3.0371899604797363,-4.153022289276123
1700852564124383000,18.962383056640626,4.08998441696167,-3.607161283493042,-3.8015546798706055
1700852564141373000,18.979373046875,4.887102127075195,-4.039884090423584,-3.691967487335205
1700852564158363100,18.996363037109376,5.8789381980896,-4.537715911865234,-2.9195284843444824
1700852564175353000,19.01335302734375,5.342081069946289,-4.945207595825195,-1.9713053703308105
1700852564192343000,19.030343017578126,3.132258653640747,-4.945428371429443,-2.3634390830993652
1700852564209330700,19.04733056640625,1.2626826763153076,-4.927258491516113,-3.086721420288086
1700852564226325800,19.06432568359375,0.6813323497772217,-6.079097747802734,-2.723665714263916
1700852564243313200,19.081313232421873,1.3589742183685303,-7.127501487731934,-2.167996883392334
1700852564260303000,19.09830322265625,2.72706937789917,-6.98675537109375,-1.5646610260009766
1700852564277293000,19.11529296875,3.1393370628356934,-6.527431964874268,-0.8631687164306641
1700852564294283300,19.132283203125,2.2097063064575195,-5.80610466003418,0.049408912658691406
1700852564311272700,19.149272705078126,0.8235844373703003,-5.0080060958862305,0.6652097702026367
1700852564328261400,19.166261474609374,-0.41312146186828613,-4.437992572784424,0.8637313842773438
1700852564345242600,19.18324267578125,-0.7552892565727234,-3.9848809242248535,1.0690641403198242
1700852564362246100,19.20024609375,-0.3218655586242676,-3.0596704483032227,0.7873706817626953
1700852564379233500,19.217233642578126,-0.1403617560863495,-1.678581714630127,0.39218616485595703
1700852564396223500,19.234223388671875,-0.3736540973186493,-0.18159246444702148,0.30714988708496094
1700852564413213400,19.25121337890625,-0.7851679921150208,1.093268871307373,0.5594234466552734
1700852564430190000,19.268190185546874,-1.2228364944458008,2.0315446853637695,0.8214483261108398
1700852564447193600,19.285193603515626,-1.5093038082122803,2.352313995361328,1.2159671783447266
1700852564464183600,19.30218359375,-1.4741380214691162,2.1915855407714844,1.958404541015625
1700852564481173500,19.319173583984377,-1.1357769966125488,2.1359376907348633,2.584366798400879
1700852564498163700,19.336163818359374,-1.1420093774795532,2.1443324089050293,3.166651725769043
1700852564515153400,19.3531533203125,-1.4572908878326416,2.4246644973754883,3.8409218788146973
1700852564532143400,19.370143310546876,-1.8587397336959839,2.679713249206543,4.439332962036133
1700852564549133800,19.3871337890625,-1.9330973625183105,2.9152207374572754,5.25482702255249
1700852564566124000,19.4041240234375,-2.074829578399658,2.939244270324707,5.880964279174805
1700852564583114000,19.421114013671875,-1.9964401721954346,2.9796838760375977,6.397373676300049
1700852564600104000,19.43810400390625,-1.7162151336669922,3.086801052093506,6.871318340301514
1700852564617093600,19.45509375,-1.3239903450012207,3.332712173461914,7.371796607971191
1700852564634083600,19.47208349609375,-1.2219325304031372,3.5803017616271973,7.9464921951293945
1700852564651084500,19.48908447265625,-1.0930559635162354,3.782252311706543,8.510866165161133
1700852564668064000,19.50606396484375,-0.9334782958030701,3.9294180870056152,9.164922714233398
1700852564685054000,19.523053955078126,-1.0784857273101807,4.080022811889648,9.538993835449219
1700852564702044000,19.5400439453125,-1.5110902786254883,4.045280456542969,9.843647956848145
1700852564719023600,19.557023681640626,-2.01460862159729,2.6059346199035645,10.581452369689941
1700852564736023800,19.57402392578125,-1.4596803188323975,1.3251805305480957,10.65971565246582
1700852564753013800,19.591013671875,-0.5062493085861206,0.08046531677246094,11.324533462524414
1700852564770004200,19.608004150390624,-0.27383100986480713,-0.03509807586669922,11.645633697509766
1700852564786983400,19.6249833984375,-0.7489670515060425,0.4128456115722656,11.246559143066406
1700852564803984000,19.64198388671875,-0.7698888778686523,0.30206966400146484,11.048076629638672
1700852564820974000,19.65897412109375,0.05359768867492676,-0.3567390441894531,10.876545906066895
1700852564837964300,19.67596435546875,0.8167954683303833,-1.4046516418457031,10.340856552124023
1700852564854954000,19.6929541015625,1.6150320768356323,-2.58273983001709,9.619489669799805
1700852564871944200,19.709944091796874,2.7469091415405273,-3.3460865020751953,8.693504333496094
1700852564888934400,19.726934326171875,3.5158097743988037,-3.1563425064086914,6.844279766082764
1700852564905924000,19.743924072265624,3.8656885623931885,-2.242547035217285,4.5965681076049805
1700852564922914300,19.760914306640625,3.602501392364502,-1.1992440223693848,2.445586681365967
1700852564939893800,19.777893798828124,3.0510079860687256,-0.7208762168884277,0.8020429611206055
1700852564956894500,19.79489453125,2.3481292724609375,-0.8836946487426758,-0.6493420600891113
1700852564973884200,19.81188427734375,2.1075782775878906,-1.3363466262817383,-1.6984949111938477
1700852564990874600,19.82887451171875,2.235640287399292,-1.788919448852539,-2.5376710891723633
1700852565007864600,19.845864501953123,2.2896888256073,-1.9150424003601074,-3.2920327186584473
1700852565024854300,19.862854248046876,2.024240255355835,-1.8646173477172852,-3.8951454162597656
1700852565041844700,19.8798447265625,1.8599021434783936,-1.527519702911377,-4.633363723754883
1700852565058834400,19.89683447265625,1.7887108325958252,-1.5012164115905762,-5.186911582946777
1700852565075824400,19.913824462890624,1.842149257659912,-1.6012327671051025,-5.7102766036987305
1700852565092814800,19.93081494140625,2.1288580894470215,-1.7417113780975342,-6.160613059997559
1700852565109804500,19.947804443359374,2.4741811752319336,-2.0044233798980713,-6.629291534423828
1700852565126794800,19.964794677734375,3.2656891345977783,-2.256167411804199,-6.637927532196045
1700852565143784700,19.98178466796875,3.985930919647217,-2.4585628509521484,-6.432249069213867
1700852565160774700,19.998774658203125,4.427196979522705,-2.7531943321228027,-6.018090724945068
1700852565177764900,20.015764892578126,4.4487996101379395,-3.23319673538208,-5.640618324279785
1700852565194752300,20.032752197265626,4.112147331237793,-3.9922900199890137,-5.191993713378906
1700852565211747300,20.049747314453125,4.2342143058776855,-4.632892608642578,-5.221175193786621
1700852565228734700,20.066734619140625,4.7101006507873535,-4.934671401977539,-5.212403774261475
1700852565245724700,20.083724609375,5.108772277832031,-4.791844844818115,-4.698763370513916
1700852565262715000,20.10071484375,4.734508514404297,-5.071366310119629,-3.290584087371826
1700852565279695400,20.1176953125,3.0997018814086914,-5.4186320304870605,-2.599588394165039
1700852565296685300,20.134685302734376,1.558893084526062,-5.530630588531494,-2.9329471588134766
1700852565313671200,20.151671142578124,0.8316203951835632,-6.146764755249023,-2.6610031127929688
1700852565330675000,20.168675048828124,0.6091334819793701,-6.559304237365723,-2.2335500717163086
1700852565347662600,20.18566259765625,0.8118535876274109,-6.229257583618164,-1.928105354309082
1700852565364657000,20.202656982421875,0.8582874536514282,-5.721432685852051,-1.4692111015319824
1700852565381626600,20.219626708984375,0.3277302384376526,-5.386656761169434,-0.5478048324584961
1700852565398632400,20.236632568359376,-0.6466796398162842,-5.372602462768555,0.35278892517089844
1700852565415622400,20.253622314453125,-1.3593928813934326,-5.547926902770996,0.874298095703125
1700852565432617500,20.270617431640623,-1.1993653774261475,-5.778587341308594,1.5166521072387695
1700852565449605000,20.287605224609376,0.07118085026741028,-5.151795864105225,2.4931840896606445
1700852565466595300,20.30459521484375,1.198547124862671,-3.4844980239868164,3.1476516723632812
1700852565483585000,20.3215849609375,1.3240864276885986,-1.4557514190673828,3.2355475425720215
1700852565500575200,20.3385751953125,0.982387125492096,0.20094871520996094,3.1315202713012695
1700852565517565200,20.355565185546876,0.6735718250274658,1.2552285194396973,2.9342308044433594
1700852565534554400,20.372554443359373,0.5329098105430603,1.8049321174621582,3.1581826210021973
1700852565551545300,20.38954541015625,0.31175071001052856,2.4252843856811523,3.3913044929504395
1700852565568535300,20.406535400390624,0.01270526647567749,2.9801998138427734,3.2608680725097656
1700852565585525200,20.423525146484376,-0.2758306860923767,3.2448501586914062,3.232717990875244
1700852565602504700,20.440504638671875,-0.19048792123794556,3.4960012435913086,3.197848320007324
1700852565619505400,20.45750537109375,-0.3920007646083832,3.2798256874084473,3.176701545715332
1700852565636495400,20.474495361328124,-0.2546800971031189,2.8067574501037598,3.5086851119995117
1700852565653485600,20.491485595703125,0.4558970332145691,2.1301960945129395,4.958862781524658
1700852565670475300,20.508475341796874,0.7928250432014465,1.921107292175293,6.180003643035889
1700852565687465200,20.52546533203125,0.27104276418685913,1.9181666374206543,7.281884670257568
1700852565704455700,20.54245556640625,-0.2733748257160187,2.4794201850891113,8.273268699645996
1700852565721445600,20.559445556640625,-0.5811107754707336,3.526493549346924,8.698713302612305
1700852565738435600,20.576435546875,-0.567425012588501,4.600090026855469,9.107276916503906
1700852565755423000,20.593423095703123,0.2895262837409973,5.04539155960083,9.726513862609863
1700852565772418300,20.610418212890625,1.2630053758621216,5.18253231048584,10.09322738647461
1700852565789405400,20.627405517578126,1.5267724990844727,5.521097183227539,9.88231372833252
1700852565806395400,20.6443955078125,0.9809489250183105,6.001924991607666,9.645483016967773
1700852565823380700,20.661380615234375,0.16963297128677368,5.984236240386963,9.92467975616455
1700852565840375600,20.67837548828125,-0.2597464621067047,4.47061014175415,10.848442077636719
1700852565857365800,20.69536572265625,0.11631673574447632,2.913020133972168,11.061015129089355
1700852565874355700,20.712355712890623,0.8638936877250671,1.1513175964355469,11.962841033935547
1700852565891333400,20.72933349609375,1.396892786026001,0.4199199676513672,12.270047187805176
1700852565908325600,20.74632568359375,1.5253373384475708,0.6502962112426758,11.65103530883789
1700852565925330400,20.763330322265624,2.0242300033569336,0.6725940704345703,10.756393432617188
1700852565942314000,20.78031396484375,3.2643790245056152,-0.1378765106201172,9.976722717285156
1700852565959303400,20.797303466796876,4.017050266265869,-1.6870861053466797,9.394706726074219
1700852565976285400,20.814285400390624,4.005537033081055,-3.365581512451172,8.806082725524902
1700852565993276200,20.831276123046877,3.505950450897217,-4.102568626403809,7.981040954589844
1700852566010270200,20.848270263671875,2.9589858055114746,-3.702549457550049,6.559960842132568
1700852566027257900,20.8652578125,2.912837028503418,-2.8189449310302734,4.7444539070129395
1700852566044246000,20.88224609375,2.8773458003997803,-2.0978240966796875,2.899394989013672
1700852566061237200,20.8992373046875,2.713367223739624,-1.908864974975586,1.3231053352355957
1700852566078226700,20.916226806640626,2.5147554874420166,-2.042572498321533,-0.2527914047241211
1700852566095217200,20.933217041015624,2.3737988471984863,-2.4465441703796387,-1.5629353523254395
1700852566112209200,20.950209228515625,2.294680118560791,-2.6664509773254395,-2.740780830383301
1700852566129197300,20.967197265625,2.059161901473999,-2.528904914855957,-3.676741123199463
1700852566146188500,20.9841884765625,1.8430888652801514,-2.342146396636963,-4.2845025062561035
1700852566163177000,21.001177001953124,1.828885555267334,-2.1874985694885254,-4.508999347686768
1700852566180165400,21.018165283203125,1.8818936347961426,-2.0051040649414062,-4.965245246887207
1700852566197155000,21.035155029296874,1.7910068035125732,-1.9555726051330566,-5.426950454711914
1700852566214146000,21.05214599609375,1.8418583869934082,-1.919506549835205,-5.701714515686035
1700852566231137000,21.069136962890624,2.0864415168762207,-2.0827767848968506,-5.767441749572754
1700852566248129500,21.086129638671874,2.5186572074890137,-2.7377212047576904,-5.531578063964844
1700852566265116000,21.103115966796874,3.3476529121398926,-3.4303677082061768,-4.9462385177612305
1700852566282108400,21.1201083984375,4.476809024810791,-3.8149490356445312,-4.095850944519043
1700852566299095000,21.137094970703124,5.016965866088867,-4.007786273956299,-3.86759090423584
1700852566316098600,21.1540986328125,4.5899529457092285,-4.202384948730469,-4.345634460449219
1700852566333086200,21.171086181640625,4.177352428436279,-4.59527587890625,-5.1172308921813965
1700852566350076400,21.188076416015626,4.760173320770264,-5.148900985717773,-5.579500198364258
1700852566367055600,21.2050556640625,5.333968639373779,-6.112574100494385,-4.562726020812988
1700852566384043800,21.222043701171874,4.898475646972656,-6.373680591583252,-3.89304256439209
1700852566401046300,21.23904638671875,3.5589394569396973,-6.341190338134766,-4.125063896179199
1700852566418036500,21.256036376953126,2.3904824256896973,-6.598418235778809,-4.35683012008667
1700852566435026200,21.273026123046876,2.5666332244873047,-6.683981895446777,-4.549821376800537
1700852566452016000,21.29001611328125,2.723568916320801,-6.676892280578613,-4.038442134857178
1700852566469006600,21.307006591796874,2.4858877658843994,-6.549985885620117,-2.489683151245117
1700852566485996500,21.32399658203125,1.1055172681808472,-6.241130828857422,-0.8031034469604492
1700852566502986500,21.340986572265624,-0.7032090425491333,-5.697844982147217,0.3986549377441406
1700852566519976400,21.3579765625,-1.5725719928741455,-5.256625652313232,1.0494098663330078
1700852566536966700,21.374966552734374,-0.9518249034881592,-4.96708345413208,1.510934829711914
1700852566553956600,21.39195654296875,0.44164156913757324,-4.461222171783447,1.4129066467285156
1700852566570946300,21.4089462890625,1.8808344602584839,-3.337512493133545,1.4526376724243164
1700852566587935700,21.425935791015625,2.183837652206421,-1.878493309020996,1.4384756088256836
1700852566604927000,21.442927001953127,1.757846713066101,-0.48716115951538086,2.049623966217041
1700852566621906000,21.459906005859374,0.5697793960571289,0.8804769515991211,2.3191356658935547
1700852566638895600,21.4768955078125,-0.6975206136703491,1.937981128692627,2.5729923248291016
1700852566655896600,21.493896484375,-1.3748055696487427,2.5023770332336426,2.8276495933532715
1700852566672884700,21.510884765625,-1.1540101766586304,2.63392972946167,3.0658583641052246
1700852566689876500,21.52787646484375,-0.22969460487365723,2.706303596496582,3.2518434524536133
1700852566706866700,21.54486669921875,0.5654763579368591,2.7325844764709473,3.779632091522217
1700852566723857000,21.56185693359375,0.680219292640686,2.841762065887451,4.763551712036133
1700852566740846600,21.5788466796875,-0.286281943321228,3.2514796257019043,5.133889198303223
1700852566757836800,21.5958369140625,-1.3971219062805176,3.4496335983276367,5.357880592346191
1700852566774824200,21.61282421875,-1.7496602535247803,3.3884453773498535,5.738020420074463
1700852566791816700,21.629816650390627,-1.0369406938552856,3.2303643226623535,6.411396503448486
1700852566808809500,21.6468095703125,-0.20140033960342407,3.1635794639587402,7.225197792053223
1700852566825786000,21.6637861328125,0.18848365545272827,3.2284631729125977,7.962676525115967
1700852566842776300,21.6807763671875,0.12876003980636597,3.446885585784912,8.55395221710205
1700852566859769000,21.69776904296875,-0.21537744998931885,3.955444812774658,8.888065338134766
