time,seconds_elapsed,z,y,x
1700852434688575700,0.14457568359375,-3.0875167846679688,-0.5975379943847656,0.535485029220581
1700852434705568000,0.161568115234375,-2.850922107696533,-0.5023407936096191,0.3026447296142578
1700852434722558700,0.178558837890625,-1.327195644378662,-0.521639347076416,-0.22303497791290283
1700852434739553300,0.19555322265625,0.04961204528808594,-0.9942221641540527,-0.48048627376556396
1700852434756537600,0.21253759765625,1.3491134643554688,-1.4090657234191895,-0.8392095565795898
1700852434773533200,0.229533203125,2.21732759475708,-1.927530288696289,-1.6275806427001953
1700852434790527000,0.24652685546875,1.7046074867248535,-2.0661373138427734,-2.1213440895080566
1700852434807516200,0.26351611328125,-0.628692626953125,-2.5673635005950928,-2.0163626670837402
1700852434824517400,0.280517333984375,-3.2520649433135986,-2.564392328262329,-1.6865589618682861
1700852434841491000,0.297490966796875,-4.037618637084961,-2.6012260913848877,-1.3515539169311523
1700852434858494000,0.314493896484375,-3.251037120819092,-2.796797513961792,-1.4820621013641357
1700852434875484700,0.331484619140625,-1.7680540084838867,-3.243673801422119,-1.8641068935394287
1700852434892473900,0.348473876953125,-0.11487340927124023,-3.7296323776245117,-2.251209259033203
1700852434909466400,0.36546630859375,0.983069896697998,-3.896604537963867,-2.2314822673797607
1700852434926453800,0.382453857421875,0.2986588478088379,-3.123246431350708,-2.866908311843872
1700852434943447600,0.399447509765625,-4.080055236816406,-2.6939008235931396,-2.3378477096557617
1700852434960440800,0.41644091796875,-7.017693519592285,-2.515355110168457,-1.2169318199157715
1700852434977428200,0.43342822265625,-6.269498825073242,-2.5592243671417236,-0.8506326675415039
1700852434994411500,0.45041162109375,-3.711916923522949,-3.06156063079834,-1.1821937561035156
1700852435011415000,0.4674150390625,-0.6979167461395264,-3.747192859649658,-0.8411674499511719
1700852435028407000,0.484406982421875,1.282060146331787,-4.0357770919799805,-1.0149550437927246
1700852435045397000,0.50139697265625,2.4447519779205322,-4.073488235473633,-1.744102954864502
1700852435062387700,0.5183876953125,1.824723720550537,-3.58020281791687,-2.4615864753723145
1700852435079381000,0.535381103515625,-0.9222204685211182,-3.697054862976074,-0.6021032333374023
1700852435096370200,0.5523701171875,-2.3282084465026855,-3.5512967109680176,1.4699020385742188
1700852435113362000,0.56936181640625,-1.866990089416504,-3.6067867279052734,3.107884407043457
1700852435130352600,0.5863525390625,-0.09959816932678223,-3.5541892051696777,3.5260448455810547
1700852435147338000,0.603337890625,1.6647534370422363,-3.563814401626587,3.369400978088379
1700852435164336400,0.62033642578125,2.097785711288452,-3.7493624687194824,2.9771366119384766
1700852435181329400,0.637329345703125,1.8938682079315186,-4.281471252441406,3.060967445373535
1700852435198317000,0.654317138671875,1.1829478740692139,-4.761406898498535,3.8594417572021484
1700852435215311600,0.6713115234375,0.2002154290676117,-4.986909866333008,5.163172721862793
1700852435232302600,0.688302490234375,-0.43330299854278564,-4.18138313293457,6.9447832107543945
1700852435249295000,0.705295166015625,-0.6807740330696106,-3.152660369873047,7.553260803222656
1700852435266282800,0.72228271484375,-0.20472204685211182,-2.9315457344055176,7.621960639953613
1700852435283276500,0.739276611328125,1.2913942337036133,-3.7270665168762207,8.590580940246582
1700852435300271600,0.756271728515625,2.843877077102661,-3.6971607208251953,9.598594665527344
1700852435317244400,0.773244384765625,3.3626720905303955,-2.554924488067627,8.390029907226562
1700852435334245600,0.79024560546875,2.249070167541504,-0.8187451362609863,6.569586753845215
1700852435351245300,0.807245361328125,1.3788986206054688,0.5713958740234375,5.2629265785217285
1700852435368232400,0.824232421875,1.4815438985824585,0.9933638572692871,4.565140247344971
1700852435385221400,0.841221435546875,1.9686954021453857,0.6194510459899902,4.169140815734863
1700852435402220300,0.85822021484375,1.721282958984375,0.251645565032959,3.8412528038024902
1700852435419210800,0.875210693359375,1.1574523448944092,0.5089402198791504,3.1020588874816895
1700852435436198400,0.892198486328125,0.34177595376968384,0.9732522964477539,2.3740735054016113
1700852435453196000,0.909196044921875,-0.3133445978164673,1.6568727493286133,2.099299430847168
1700852435470173400,0.92617333984375,-1.3481097221374512,2.1462483406066895,2.2750191688537598
1700852435487157000,0.943156982421875,-2.181905746459961,2.776182174682617,2.224480628967285
1700852435504156700,0.96015673828125,-3.161980628967285,3.321648597717285,2.0944857597351074
1700852435521156600,0.977156494140625,-3.777679443359375,3.6733031272888184,1.5138592720031738
1700852435538148000,0.994148193359375,-3.508199691772461,4.246308326721191,0.8112096786499023
1700852435555133000,1.0111328125,-3.1591928005218506,4.523953914642334,0.2581753730773926
1700852435572129300,1.02812939453125,-3.1477155685424805,4.684172630310059,0.2769460678100586
1700852435589122600,1.04512255859375,-3.133881092071533,5.052470684051514,0.6793022155761719
1700852435606114800,1.06211474609375,-3.145289659500122,5.42288875579834,1.467085838317871
1700852435623103700,1.079103759765625,-3.4428446292877197,5.478111267089844,2.3928775787353516
1700852435640089900,1.09608984375,-3.916228771209717,5.393646717071533,3.5338735580444336
1700852435657086000,1.1130859375,-4.085792541503906,5.446658134460449,4.321037292480469
1700852435674079700,1.130079833984375,-3.9185681343078613,5.169060707092285,4.295528888702393
1700852435691072800,1.14707275390625,-4.307441711425781,4.829405784606934,4.281437397003174
1700852435708066300,1.16406640625,-5.451152801513672,4.467184066772461,5.040576934814453
1700852435725051400,1.181051513671875,-6.312171936035156,3.857010841369629,6.104249000549316
1700852435742049000,1.198049072265625,-4.474349498748779,3.1152215003967285,6.357450485229492
1700852435759035400,1.215035400390625,-1.1417220830917358,2.7597427368164062,5.5129899978637695
1700852435776029200,1.232029296875,2.8415298461914062,2.6421866416931152,5.417740345001221
1700852435793010400,1.249010498046875,4.852542400360107,2.7740554809570312,6.068014144897461
1700852435810012000,1.266011962890625,3.771707534790039,2.541961669921875,7.022701263427734
1700852435827009500,1.283009521484375,1.3134961128234863,1.757296085357666,7.211899280548096
1700852435843994400,1.299994384765625,-0.06892573833465576,-0.11178112030029297,7.52403450012207
1700852435860987100,1.316987060546875,0.40525561571121216,-1.5228919982910156,7.160489082336426
1700852435877974500,1.333974609375,1.9137240648269653,-3.1188554763793945,7.851085186004639
1700852435894958000,1.3509580078125,3.2407991886138916,-4.340442657470703,8.456907272338867
1700852435911958800,1.367958740234375,4.013727188110352,-4.825154781341553,8.306784629821777
1700852435928943600,1.384943603515625,3.3871750831604004,-5.150010108947754,7.6485795974731445
1700852435945947000,1.40194677734375,2.199289560317993,-5.5407490730285645,6.72663688659668
1700852435962933200,1.418933349609375,1.299800992012024,-6.654947757720947,6.498713493347168
1700852435979928800,1.4359287109375,0.8683164715766907,-7.621708393096924,6.217581748962402
1700852435996915200,1.452915283203125,0.6083524823188782,-8.021955490112305,5.236303329467773
1700852436013908000,1.469907958984375,0.4827146828174591,-7.899839878082275,3.566603660583496
1700852436030901200,1.4869013671875,0.8839897513389587,-7.420413494110107,1.5834064483642578
1700852436047888600,1.503888671875,1.6235092878341675,-7.224242210388184,0.3561830520629883
1700852436064882400,1.52088232421875,1.1917304992675781,-7.08382511138916,-0.1392345428466797
1700852436081872000,1.537871826171875,0.7547575235366821,-6.651518821716309,-0.8424968719482422
1700852436098856000,1.55485595703125,1.8040237426757812,-6.061979293823242,-2.125899314880371
1700852436115857700,1.571857666015625,3.1694529056549072,-5.543098449707031,-3.59968900680542
1700852436132848400,1.588848388671875,4.210446357727051,-5.100564956665039,-4.912286758422852
1700852436149841400,1.60584130859375,4.798398971557617,-4.999220848083496,-5.958548545837402
1700852436166828800,1.622828857421875,5.083996295928955,-5.241067409515381,-5.658336162567139
1700852436183822800,1.63982275390625,5.404622554779053,-5.064298152923584,-5.003424644470215
1700852436200815900,1.65681591796875,5.303725242614746,-4.839055061340332,-4.926072120666504
1700852436217803300,1.67380322265625,4.882492542266846,-4.547172546386719,-5.275938987731934
1700852436234797000,1.690797119140625,4.286778450012207,-4.39681339263916,-5.796667098999023
1700852436251790000,1.7077900390625,4.000291347503662,-4.419039249420166,-6.152947902679443
1700852436268777000,1.72477685546875,4.684332370758057,-4.784402847290039,-6.415219783782959
1700852436285769500,1.74176953125,5.803378105163574,-4.857479095458984,-6.23056697845459
1700852436302764500,1.7587646484375,5.830783367156982,-4.617885112762451,-5.746009349822998
1700852436319756500,1.775756591796875,5.1366705894470215,-4.549932479858398,-5.257150650024414
1700852436336737800,1.79273779296875,4.338817119598389,-4.844248294830322,-4.837147235870361
1700852436353737200,1.8097373046875,4.234090805053711,-5.3335466384887695,-4.734292984008789
1700852436370719500,1.826719482421875,4.528254508972168,-5.664093494415283,-4.96488618850708
1700852436387717400,1.84371728515625,5.084432601928711,-6.18379020690918,-4.506163597106934
1700852436404699100,1.86069921875,5.6134562492370605,-6.514540672302246,-3.3786096572875977
1700852436421704000,1.877703857421875,5.594529628753662,-6.747470855712891,-2.001476764678955
1700852436438709000,1.894708984375,4.082016468048096,-7.308563709259033,-1.3803019523620605
1700852436455686100,1.91168603515625,1.557576298713684,-7.5684309005737305,-1.8971261978149414
1700852436472666600,1.92866650390625,-0.43526673316955566,-7.8376264572143555,-2.5079054832458496
1700852436489670000,1.945669921875,-0.6244885921478271,-8.358516693115234,-2.145482063293457
1700852436506657300,1.9626572265625,0.7957677245140076,-9.084012031555176,-0.11879348754882812
1700852436523651000,1.979651123046875,2.855032205581665,-8.675729751586914,0.8815584182739258
1700852436540644400,1.996644287109375,3.356870651245117,-8.054890632629395,1.4626522064208984
1700852436557632000,2.013632080078125,2.236023426055908,-7.7649359703063965,2.4642229080200195
1700852436574623700,2.030623779296875,0.8658294677734375,-7.458812713623047,3.8728017807006836
1700852436591620400,2.047620361328125,0.34470343589782715,-7.184511184692383,5.822929382324219
1700852436608594700,2.0645947265625,0.6597529649734497,-6.406818389892578,6.800044059753418
1700852436625597400,2.081597412109375,0.9057475924491882,-5.338064193725586,6.672868728637695
1700852436642582500,2.09858251953125,0.892333447933197,-3.8806028366088867,5.867818832397461
1700852436659573200,2.1155732421875,0.814914882183075,-2.3343148231506348,5.316059112548828
1700852436676574000,2.132573974609375,0.7485353350639343,-0.9367051124572754,5.426642417907715
1700852436693554000,2.149553955078125,0.5171199440956116,0.34886693954467773,6.219171524047852
1700852436710552600,2.166552490234375,0.2009723037481308,1.986243724822998,5.7172532081604
1700852436727542300,2.183542236328125,-0.5812985897064209,3.3108134269714355,4.9022111892700195
1700852436744532200,2.2005322265625,-1.3022871017456055,4.387896537780762,4.0134172439575195
1700852436761527000,2.217527099609375,-1.531186819076538,4.887699604034424,3.5410284996032715
1700852436778516700,2.234516845703125,-1.3513057231903076,4.964818000793457,3.4195117950439453
1700852436795501600,2.25150146484375,-1.066037893295288,4.988492012023926,3.8207497596740723
1700852436812504800,2.2685048828125,-0.608178973197937,5.311445236206055,4.019856929779053
1700852436829491200,2.2854912109375,-0.7448406219482422,5.524120807647705,4.319377422332764
1700852436846484000,2.30248388671875,-1.1290409564971924,5.930219650268555,4.677033424377441
1700852436863486200,2.319486328125,-2.1576106548309326,6.0422515869140625,5.612982749938965
1700852436880465200,2.336465087890625,-1.91256844997406,6.230912208557129,6.502678394317627
1700852436897460200,2.353460205078125,-1.5990893840789795,5.985705375671387,7.139013767242432
1700852436914455600,2.37045556640625,-0.3915567398071289,5.840732574462891,8.024856567382812
1700852436931445800,2.38744580078125,0.7345829606056213,5.673051357269287,8.16403579711914
1700852436948434200,2.40443408203125,1.2437142133712769,5.456375598907471,7.574502944946289
1700852436965429000,2.421428955078125,1.0919495820999146,5.136310577392578,6.826471328735352
1700852436982401300,2.4384013671875,0.7264982461929321,4.712380409240723,6.49223518371582
1700852436999413000,2.4554130859375,0.8113243579864502,4.149503231048584,6.216928005218506
1700852437016402000,2.47240185546875,1.6082664728164673,3.7481048107147217,6.033117294311523
1700852437033378300,2.48937841796875,2.048076868057251,2.7298927307128906,6.201756477355957
1700852437050384600,2.506384521484375,1.9379693269729614,1.2715063095092773,6.289303779602051
1700852437067369700,2.52336962890625,1.9300750494003296,0.12473058700561523,6.096083641052246
1700852437084368400,2.540368408203125,1.6245372295379639,-0.9249625205993652,6.7644853591918945
1700852437101361400,2.557361328125,0.2929809093475342,-2.0301499366760254,8.009353637695312
1700852437118348500,2.5743486328125,-0.11338186264038086,-2.241710662841797,8.181203842163086
1700852437135343000,2.591343017578125,-0.065574049949646,-2.6181631088256836,7.90679931640625
1700852437152333800,2.608333740234375,0.5342949628829956,-3.4743075370788574,7.603172302246094
1700852437169327000,2.6253271484375,1.4579427242279053,-4.590108394622803,7.037935256958008
1700852437186314200,2.642314208984375,1.8388924598693848,-5.910722255706787,6.191163063049316
1700852437203306200,2.65930615234375,1.3803260326385498,-6.939108848571777,5.121051788330078
1700852437220302800,2.676302734375,0.7363731861114502,-7.774750232696533,4.592389106750488
1700852437237276700,2.693276611328125,0.4485452175140381,-7.620355606079102,3.380678176879883
1700852437254286000,2.7102861328125,0.5511887669563293,-6.813615798950195,1.6439752578735352
1700852437271276000,2.727276123046875,0.8123213052749634,-5.792266845703125,0.018828392028808594
1700852437288264700,2.7442646484375,1.2978235483169556,-4.7774434089660645,-1.4880790710449219
1700852437305256200,2.761256103515625,1.815277338027954,-4.203888416290283,-2.717148780822754
1700852437322250200,2.778250244140625,2.31056547164917,-3.930981159210205,-3.535759449005127
1700852437339260000,2.795260009765625,2.526825428009033,-4.049112319946289,-3.659976005554199
1700852437356228600,2.812228515625,3.4538826942443848,-3.6999764442443848,-4.581280708312988
1700852437373221400,2.829221435546875,3.6786391735076904,-3.738996982574463,-5.520727157592773
1700852437390217500,2.846217529296875,3.7916412353515625,-3.7117533683776855,-6.278327941894531
1700852437407190300,2.863190185546875,3.893019676208496,-3.6057183742523193,-6.785616397857666
1700852437424192800,2.88019287109375,3.866363048553467,-3.567082405090332,-6.9759016036987305
1700852437441188400,2.897188232421875,3.8776259422302246,-3.53251051902771,-6.670755386352539
1700852437458168300,2.914168212890625,4.280513763427734,-3.32515025138855,-6.415049076080322
1700852437475171600,2.931171630859375,4.521556854248047,-3.3607277870178223,-6.181951522827148
1700852437492155100,2.948155029296875,4.707477569580078,-3.474308490753174,-5.883175849914551
1700852437509152000,2.965152099609375,4.8789873123168945,-3.6426405906677246,-5.550240516662598
1700852437526145800,2.982145751953125,4.775641918182373,-3.9896745681762695,-4.936458110809326
1700852437543134500,2.999134521484375,5.281937122344971,-4.214044570922852,-3.898942470550537
1700852437560131600,3.016131591796875,5.784027099609375,-4.498632907867432,-2.806929588317871
1700852437577117000,3.033116943359375,5.34611177444458,-4.799774169921875,-2.3088765144348145
1700852437594110500,3.0501103515625,4.381776809692383,-5.1373066902160645,-2.8195624351501465
1700852437611103700,3.067103759765625,3.9060933589935303,-5.582202911376953,-3.229811191558838
1700852437628084200,3.084084228515625,4.015205383300781,-6.479897975921631,-2.435530662536621
1700852437645075500,3.101075439453125,4.439827919006348,-6.998377799987793,-1.0683279037475586
1700852437662075400,3.118075439453125,4.466271877288818,-6.958053112030029,-0.036133766174316406
1700852437679067400,3.1350673828125,2.9638314247131348,-6.785660743713379,-0.1849040985107422
1700852437696060000,3.152059814453125,1.2833770513534546,-6.677215099334717,-0.9341726303100586
1700852437713048800,3.169048828125,0.950063169002533,-6.442880630493164,-0.7298545837402344
1700852437730045400,3.18604541015625,1.623573660850525,-6.171603202819824,1.0290822982788086
1700852437747021300,3.203021240234375,2.039757490158081,-5.829779624938965,3.3145484924316406
1700852437764028000,3.22002783203125,1.3800239562988281,-5.247297763824463,4.137700080871582
1700852437781017000,3.23701708984375,0.30247557163238525,-4.848422527313232,3.789891242980957
1700852437797997800,3.253997802734375,-0.7158125638961792,-4.898317337036133,2.9209136962890625
1700852437814987000,3.270987060546875,-0.5379201769828796,-4.425814628601074,1.8152332305908203
1700852437831983900,3.28798388671875,0.19783124327659607,-3.57912015914917,1.5055046081542969
1700852437848969700,3.3049697265625,0.8802539706230164,-2.500903606414795,1.5624361038208008
1700852437865985800,3.32198583984375,1.086708426475525,-1.1813130378723145,1.6916303634643555
1700852437882962700,3.338962646484375,0.8206300735473633,0.10153770446777344,1.716322898864746
1700852437899959000,3.355958984375,0.2155429571866989,1.2722396850585938,1.8018798828125
1700852437916948700,3.37294873046875,-0.9403056502342224,2.0848169326782227,1.88608980178833
1700852437933939700,3.389939697265625,-1.504076600074768,2.61016583442688,1.850938320159912
1700852437950931000,3.406930908203125,-1.4310903549194336,3.004115343093872,2.4118804931640625
1700852437967922400,3.42392236328125,-1.114743947982788,3.5457019805908203,2.8823304176330566
1700852437984911400,3.440911376953125,-1.1527013778686523,4.117629051208496,3.0726518630981445
1700852438001908000,3.457907958984375,-1.1836965084075928,4.460347652435303,3.1779470443725586
1700852438018886100,3.47488623046875,-1.3316712379455566,4.449060440063477,3.19449520111084
1700852438035888000,3.49188818359375,-1.5596058368682861,4.2516021728515625,3.355225086212158
1700852438052879400,3.50887939453125,-1.7845187187194824,4.257224082946777,3.9690752029418945
1700852438069860600,3.525860595703125,-1.5261881351470947,4.404130458831787,5.281520366668701
1700852438086865400,3.542865478515625,-1.3953137397766113,4.579014778137207,5.914140701293945
1700852438103850500,3.5598505859375,-1.4067271947860718,4.598495006561279,6.254070281982422
1700852438120832300,3.576832275390625,-1.2067594528198242,4.824464797973633,6.106142044067383
1700852438137827800,3.593827880859375,-1.2470307350158691,4.928414344787598,5.895556926727295
1700852438154816000,3.61081591796875,-1.4132275581359863,4.934835433959961,6.2461066246032715
1700852438171809300,3.627809326171875,-1.862414836883545,5.078150749206543,6.563827037811279
1700852438188805000,3.64480517578125,-2.2541961669921875,5.134847640991211,6.5351057052612305
1700852438205798000,3.6617978515625,-2.5322425365448,4.244228363037109,6.866022109985352
1700852438222787000,3.678787109375,-2.222233533859253,3.1127405166625977,7.262885570526123
1700852438239775000,3.69577490234375,-1.6737346649169922,2.3576788902282715,7.112029075622559
1700852438256769500,3.71276953125,-1.5101020336151123,1.144212245941162,7.478430271148682
1700852438273762000,3.729761962890625,-0.7608916163444519,0.22801446914672852,7.412296772003174
1700852438290751500,3.74675146484375,0.21797436475753784,-0.7796788215637207,7.471582412719727
1700852438307740200,3.763740234375,1.5628421306610107,-1.376551628112793,7.744268894195557
1700852438324731100,3.780731201171875,2.428283452987671,-1.7994208335876465,7.964434623718262
1700852438341728500,3.797728515625,2.7484328746795654,-2.4810729026794434,8.118380546569824
1700852438358715600,3.814715576171875,2.645481824874878,-3.576857566833496,8.040212631225586
1700852438375711500,3.83171142578125,2.643141508102417,-4.617583274841309,7.461300849914551
1700852438392710000,3.8487099609375,2.9630274772644043,-5.358657360076904,6.766441345214844
1700852438409698800,3.86569873046875,3.16317081451416,-5.318636894226074,5.429501533508301
1700852438426690600,3.882690673828125,2.8645689487457275,-5.0349555015563965,3.892148017883301
1700852438443681500,3.899681640625,2.4950830936431885,-4.542179584503174,2.349151611328125
1700852438460673300,3.91667333984375,2.2723441123962402,-4.081099510192871,1.08807373046875
1700852438477664500,3.93366455078125,1.884704351425171,-3.8611583709716797,-0.19075775146484375
1700852438494653200,3.950653076171875,1.5872447490692139,-3.8162477016448975,-1.4577865600585938
1700852438511642600,3.967642578125,1.8047763109207153,-3.6179580688476562,-2.646127223968506
1700852438528640800,3.984640869140625,2.039565324783325,-3.406322479248047,-3.756650447845459
1700852438545628000,4.0016279296875,2.327126979827881,-3.300602912902832,-4.494115352630615
1700852438562621700,4.01862158203125,2.3525359630584717,-3.397186040878296,-5.005922317504883
1700852438579603200,4.035603271484375,2.4498233795166016,-3.47580623626709,-5.393763542175293
1700852438596595500,4.052595458984375,2.6114962100982666,-3.5419838428497314,-5.43593692779541
1700852438613593000,4.069593017578125,2.7624974250793457,-3.793783187866211,-5.515502452850342
1700852438630589700,4.086589599609375,3.460615634918213,-3.960834264755249,-5.865127086639404
1700852438647578400,4.103578369140625,4.156914710998535,-4.208953380584717,-6.0128068923950195
1700852438664568000,4.120568115234375,4.861448287963867,-4.487591743469238,-5.893263816833496
1700852438681563000,4.13756298828125,5.451682090759277,-4.692427158355713,-5.485367774963379
1700852438698552800,4.154552734375,5.760926723480225,-4.766237258911133,-4.9739837646484375
1700852438715541800,4.171541748046875,5.48321533203125,-5.157630920410156,-4.64106559753418
1700852438732535000,4.18853515625,5.065108776092529,-5.521936416625977,-4.1800618171691895
1700852438749529300,4.205529296875,4.783331871032715,-5.845361232757568,-3.5302228927612305
1700852438766518000,4.22251806640625,4.6197404861450195,-5.964789390563965,-2.963656425476074
1700852438783509500,4.239509521484375,4.611553192138672,-6.018243312835693,-2.2657089233398438
1700852438800501000,4.2565009765625,4.535365104675293,-6.187827110290527,-1.3977932929992676
1700852438817483500,4.2734833984375,4.074587821960449,-6.650063514709473,-0.24706745147705078
1700852438834481200,4.290481201171875,3.360888719558716,-6.458598613739014,-0.13994407653808594
1700852438851477800,4.307477783203125,2.6818671226501465,-6.422287940979004,-0.2824087142944336
1700852438868466400,4.324466552734375,2.0866050720214844,-6.580986976623535,-0.23154067993164062
1700852438885458000,4.3414580078125,1.6568344831466675,-6.6388020515441895,0.05077552795410156
1700852438902449400,4.358449462890625,1.4411990642547607,-6.2232346534729,0.6055841445922852
1700852438919440600,4.375440673828125,1.0971407890319824,-5.892810821533203,1.5176849365234375
1700852438936432400,4.392432373046875,0.49872279167175293,-5.261958122253418,2.0135269165039062
1700852438953423600,4.409423583984375,-0.3182356357574463,-4.838726997375488,2.021885871887207
1700852438970412300,4.426412353515625,-0.47737348079681396,-4.769008636474609,1.9794178009033203
1700852438987396000,4.44339599609375,0.024497032165527344,-4.554607391357422,1.7746610641479492
1700852439004397800,4.460397705078125,0.952165961265564,-3.9119558334350586,1.4326171875
1700852439021389000,4.47738916015625,1.42146897315979,-2.719224214553833,1.1423311233520508
1700852439038380300,4.49438037109375,1.2950208187103271,-1.385129451751709,0.7733402252197266
1700852439055371800,4.511371826171875,0.9097023010253906,-0.17096376419067383,0.720128059387207
1700852439072363300,4.52836328125,0.3840884566307068,0.9620857238769531,0.7653722763061523
1700852439089354500,4.5453544921875,-0.2255319058895111,1.7347416877746582,0.606196403503418
1700852439106345700,4.562345703125,-0.7402186393737793,2.100327968597412,0.6972966194152832
1700852439123337500,4.57933740234375,-0.9190258383750916,2.2462031841278076,1.1679458618164062
1700852439140328700,4.59632861328125,-0.8710675239562988,2.564669609069824,1.6539545059204102
1700852439157309700,4.613309814453125,-0.8397719860076904,2.8038291931152344,2.2717361450195312
1700852439174311400,4.6303115234375,-0.9880214929580688,3.121363401412964,2.805880546569824
1700852439191313200,4.647313232421875,-1.2437262535095215,3.4005308151245117,3.403043270111084
1700852439208294400,4.66429443359375,-1.4848577976226807,3.450439214706421,4.468235015869141
1700852439225286000,4.681285888671875,-1.6568667888641357,3.554102897644043,5.614986896514893
1700852439242277000,4.698277099609375,-1.8082847595214844,3.6661672592163086,6.567435264587402
1700852439259268000,4.71526806640625,-1.769148588180542,3.8789587020874023,7.432497978210449
1700852439276259800,4.732259765625,-1.5909664630889893,4.213071823120117,8.197446823120117
1700852439293251300,4.749251220703125,-1.2891614437103271,4.6756744384765625,8.769344329833984
1700852439310242600,4.76624267578125,-0.912047266960144,4.909474849700928,8.974102020263672
1700852439327244300,4.783244384765625,-0.8241866827011108,4.975942611694336,8.737274169921875
1700852439344225300,4.800225341796875,-0.9698837995529175,4.956857681274414,8.143803596496582
1700852439361214700,4.817214599609375,-1.1653584241867065,4.906675338745117,7.493313312530518
1700852439378208300,4.834208251953125,-1.466783881187439,4.499247074127197,7.238465309143066
1700852439395199200,4.85119921875,-1.6915019750595093,3.2187633514404297,7.516862392425537
1700852439412190700,4.868190673828125,-1.6000902652740479,2.228404998779297,7.342029571533203
1700852439429171700,4.885171630859375,-1.5977553129196167,1.4121122360229492,7.500829696655273
1700852439446173700,4.902173583984375,-2.093559980392456,0.7463436126708984,8.079991340637207
1700852439463162400,4.919162353515625,-2.384561061859131,0.6797513961791992,8.208057403564453
1700852439480158700,4.93615869140625,-2.0672876834869385,0.6104645729064941,8.042562484741211
1700852439497144800,4.953144775390625,-1.4636564254760742,-0.13122797012329102,7.779616832733154
1700852439514139100,4.97013916015625,-0.2480275183916092,-1.1985187530517578,7.172253608703613
1700852439531130600,4.987130615234375,1.0559557676315308,-2.519925594329834,6.554786682128906
1700852439548119800,5.004119873046875,2.0401177406311035,-3.7148170471191406,5.898252487182617
1700852439565112800,5.02111279296875,2.7088589668273926,-4.386200904846191,5.142858505249023
1700852439582104600,5.0381044921875,3.061234951019287,-4.309913158416748,3.875577926635742
1700852439599088600,5.055088623046875,3.0642542839050293,-3.7928247451782227,2.1937952041625977
1700852439616087600,5.072087646484375,3.0050997734069824,-3.1942434310913086,0.6357011795043945
1700852439633076200,5.089076171875,2.957913398742676,-2.8345351219177246,-0.5692205429077148
1700852439650072600,5.106072509765625,2.925035238265991,-2.7113380432128906,-1.456921100616455
1700852439667052800,5.123052734375,2.8639073371887207,-2.6840670108795166,-2.1292738914489746
1700852439684053000,5.140052978515625,2.7030029296875,-2.6752960681915283,-2.6678452491760254
1700852439701044200,5.157044189453125,2.6650047302246094,-2.5990378856658936,-3.1351308822631836
1700852439718035700,5.17403564453125,2.6743931770324707,-2.5167269706726074,-3.85933256149292
1700852439735016400,5.191016357421875,2.835886001586914,-2.632685661315918,-4.2779998779296875
1700852439752018400,5.208018310546875,3.216745615005493,-2.732887029647827,-4.541073322296143
1700852439769009700,5.225009765625,3.603485345840454,-2.9891467094421387,-4.731436729431152
1700852439785991000,5.241990966796875,4.023714542388916,-3.266735553741455,-4.794499397277832
1700852439802994200,5.258994140625,4.586472511291504,-3.47141695022583,-4.817129611968994
1700852439819982300,5.275982421875,5.146534442901611,-3.661778688430786,-4.817113399505615
1700852439836975400,5.292975341796875,5.622275352478027,-3.8372111320495605,-4.673696517944336
1700852439853966600,5.309966552734375,5.840807914733887,-4.172086715698242,-4.1806321144104
1700852439870958000,5.3269580078125,5.578405380249023,-4.559736251831055,-3.809098243713379
1700852439887949600,5.343949462890625,5.254160404205322,-4.978532314300537,-3.458101272583008
1700852439904940800,5.36094091796875,4.992432594299316,-5.296025276184082,-3.222294807434082
1700852439921932300,5.377932373046875,5.065464019775391,-5.462525367736816,-3.118612289428711
1700852439938912800,5.394912841796875,5.423380374908447,-5.826764106750488,-2.5227651596069336
1700852439955915300,5.411915283203125,5.689785003662109,-6.38454532623291,-1.4629487991333008
1700852439972903700,5.428903564453125,5.2098588943481445,-6.493853569030762,-1.1159610748291016
1700852439989889800,5.445889892578125,4.183479309082031,-6.401981353759766,-1.448911190032959
1700852440006878200,5.462878173828125,3.0763092041015625,-6.5058979988098145,-1.5201406478881836
1700852440023880200,5.479880126953125,1.9774296283721924,-6.521062850952148,-1.4211139678955078
1700852440040871700,5.49687158203125,1.1825389862060547,-6.089325428009033,-1.2282428741455078
1700852440057863200,5.51386328125,0.814121663570404,-5.689365386962891,-0.3462972640991211
1700852440074854700,5.530854736328125,0.4557842016220093,-5.309861660003662,0.6022024154663086
1700852440091846100,5.54784619140625,-0.029643774032592773,-5.006380558013916,1.130845069885254
1700852440108832300,5.564832275390625,-0.4012700319290161,-4.838715553283691,1.3337736129760742
1700852440125828400,5.581828369140625,-0.5220738649368286,-4.740797996520996,0.9232950210571289
1700852440142807000,5.59880712890625,0.276915967464447,-4.460019111633301,0.7254858016967773
1700852440159801300,5.61580126953125,1.0363166332244873,-3.7372803688049316,0.8033847808837891
1700852440176804900,5.632804931640625,1.1176390647888184,-2.5524816513061523,0.8315191268920898
1700852440193794000,5.6497939453125,0.7191411256790161,-1.136824607849121,0.6429939270019531
1700852440210776300,5.6667763671875,0.5277513265609741,0.1563577651977539,0.6416902542114258
1700852440227770400,5.683770263671875,0.16937950253486633,1.1451377868652344,0.6050405502319336
1700852440244754000,5.70075390625,-0.38266074657440186,1.746568202972412,0.49265193939208984
1700852440261750500,5.71775048828125,-0.48628807067871094,1.9006617069244385,0.9829082489013672
1700852440278741000,5.734740966796875,-0.2905304729938507,2.1047890186309814,1.63206148147583
1700852440295735600,5.751735595703125,-0.21143609285354614,2.312676429748535,2.49398136138916
1700852440312726500,5.7687265625,-0.44831669330596924,2.5820422172546387,3.1437177658081055
1700852440329714700,5.785714599609375,-1.1944931745529175,2.893007278442383,3.5101585388183594
1700852440346714400,5.80271435546875,-1.7483367919921875,3.2373733520507812,4.0976338386535645
1700852440363699700,5.81969970703125,-2.177156925201416,3.477672576904297,5.290309429168701
1700852440380701400,5.836701416015625,-2.529958486557007,3.8603556156158447,6.525496959686279
1700852440397676300,5.85367626953125,-3.0089714527130127,4.108949184417725,7.5668439865112305
1700852440414679800,5.8706796875,-2.965507745742798,4.48635721206665,7.878705978393555
1700852440431675000,5.8876748046875,-2.64025616645813,4.621101379394531,8.017319679260254
1700852440448664300,5.904664306640625,-2.34613037109375,4.751031875610352,8.115859985351562
1700852440465655600,5.921655517578125,-2.2273354530334473,4.749573707580566,8.329477310180664
1700852440482647000,5.93864697265625,-1.9963898658752441,4.714635848999023,8.4176607131958
1700852440499628000,5.9556279296875,-1.835494041442871,4.688425064086914,8.184097290039062
1700852440516629800,5.972629638671875,-1.9812285900115967,4.490938186645508,7.580361843109131
1700852440533617200,5.9896171875,-1.9742443561553955,3.685945510864258,7.527337551116943
1700852440550612500,6.006612548828125,-1.78464674949646,2.806826591491699,7.423206806182861
1700852440567604000,6.02360400390625,-1.2434555292129517,2.0127010345458984,7.633060455322266
1700852440584593000,6.040593017578125,-0.9514046907424927,1.4643096923828125,8.371472358703613
1700852440601578500,6.05757861328125,-1.0852469205856323,1.4790821075439453,8.765607833862305
1700852440618578000,6.074577880859375,-1.3626437187194824,1.3756413459777832,8.572593688964844
1700852440635569400,6.0915693359375,-1.0086159706115723,0.5855526924133301,8.43721866607666
1700852440652560600,6.108560546875,-0.07403528690338135,-0.8104438781738281,8.526056289672852
1700852440669552000,6.12555224609375,0.8518845438957214,-2.529636859893799,8.949664115905762
1700852440686541000,6.142541015625,1.092783808708191,-3.8641796112060547,8.959798812866211
1700852440703537400,6.159537353515625,1.0263762474060059,-4.327868461608887,7.933507919311523
1700852440720526000,6.176526123046875,1.1323946714401245,-4.192774772644043,6.153295516967773
1700852440737515000,6.193514892578125,1.5515018701553345,-3.8908023834228516,4.401403427124023
1700852440754512000,6.210511962890625,2.34916353225708,-3.5588622093200684,2.797593116760254
1700852440771499500,6.22749951171875,2.900392532348633,-3.437073230743408,1.3742265701293945
1700852440788481300,6.244481201171875,3.1712775230407715,-3.3140997886657715,0.010205268859863281
1700852440805481500,6.2614814453125,3.229891777038574,-3.281331777572632,-1.2020106315612793
1700852440822475800,6.278475830078125,3.46596097946167,-3.2491695880889893,-2.191964626312256
1700852440839465700,6.2954658203125,3.6985111236572266,-3.4805378913879395,-2.807572364807129
1700852440856457200,6.312457275390625,3.9713997840881348,-3.5668232440948486,-3.2634425163269043
1700852440873448700,6.32944873046875,4.067117691040039,-3.7407469749450684,-3.6436409950256348
1700852440890422300,6.34642236328125,4.030836582183838,-3.8411765098571777,-4.067763805389404
1700852440907421400,6.36342138671875,4.070810317993164,-3.98075532913208,-4.364635944366455
1700852440924425000,6.380425048828125,4.189526557922363,-4.275863170623779,-4.5220537185668945
1700852440941395200,6.397395263671875,4.337106227874756,-4.5336737632751465,-4.717305660247803
1700852440958405000,6.414405029296875,4.618760108947754,-4.815502643585205,-4.67247200012207
1700852440975393000,6.43139306640625,4.92130184173584,-4.980376243591309,-4.655385971069336
1700852440992387800,6.448387939453125,5.087719917297363,-5.323667049407959,-4.615083694458008
1700852441009368000,6.4653681640625,5.289659023284912,-5.680372714996338,-4.649742126464844
1700852441026361000,6.482361083984375,5.353512763977051,-6.182643413543701,-4.631656169891357
1700852441043361800,6.49936181640625,5.462067604064941,-6.669585704803467,-4.524720191955566
1700852441060353300,6.516353271484375,5.5286946296691895,-6.8600358963012695,-4.623540878295898
1700852441077334300,6.533334228515625,5.086041450500488,-7.0768561363220215,-4.111398696899414
1700852441094336000,6.5503359375,4.223806858062744,-7.4443206787109375,-3.218259811401367
1700852441111316700,6.567316650390625,3.4739809036254883,-7.467604637145996,-3.08211088180542
1700852441128318700,6.584318603515625,2.6077322959899902,-7.670444011688232,-3.178724765777588
1700852441145311500,6.6013115234375,2.037532329559326,-8.167086601257324,-3.1057848930358887
1700852441162300200,6.618300048828125,1.772243618965149,-8.414833068847656,-2.9617552757263184
1700852441179283700,6.63528369140625,1.620245337486267,-7.8437819480896,-2.8968758583068848
1700852441196284200,6.6522841796875,1.284761905670166,-7.498001575469971,-2.0449485778808594
1700852441213262300,6.669262451171875,1.1917890310287476,-7.286870002746582,-0.2889442443847656
1700852441230269400,6.68626953125,0.970302939414978,-6.923483848571777,0.8463926315307617
1700852441247254000,6.70325390625,0.3833649158477783,-6.642882347106934,1.0606718063354492
1700852441264253400,6.72025341796875,-0.12726151943206787,-6.379086017608643,0.7636737823486328
1700852441281240600,6.737240478515625,-0.15835344791412354,-6.104336738586426,0.5299549102783203
1700852441298232300,6.754232421875,0.5154536962509155,-5.5490522384643555,0.7919692993164062
1700852441315223600,6.7712236328125,1.2645710706710815,-4.37748908996582,1.421621322631836
1700852441332214500,6.788214599609375,1.4335346221923828,-3.0241217613220215,2.205458641052246
1700852441349206300,6.805206298828125,1.0016162395477295,-1.588170051574707,3.1464738845825195
1700852441366207500,6.82220751953125,0.04020024836063385,-0.36446332931518555,3.3656606674194336
1700852441383189000,6.83918896484375,-0.9127901196479797,0.28570079803466797,3.5639138221740723
1700852441400180000,6.856179931640625,-1.5956554412841797,0.7519750595092773,4.212952613830566
1700852441417171700,6.873171630859375,-1.8444499969482422,1.2844734191894531,5.202259540557861
1700852441434163200,6.8901630859375,-1.5723252296447754,2.0267586708068848,5.990664482116699
1700852441451154000,6.90715380859375,-1.2205100059509277,2.6922707557678223,6.851287364959717
1700852441468145700,6.924145751953125,-0.8225699067115784,3.339219093322754,7.292863368988037
1700852441485137200,6.94113720703125,-0.5059186816215515,3.8524675369262695,7.512672424316406
1700852441502128000,6.958128173828125,0.0037494152784347534,4.222986221313477,7.731858730316162
1700852441519110100,6.975110107421875,0.5485883951187134,4.458223819732666,8.271442413330078
1700852441536109800,6.99210986328125,0.9887180924415588,4.86663293838501,8.821464538574219
1700852441553083400,7.00908349609375,1.0770846605300903,5.359164714813232,8.852550506591797
1700852441570091000,7.026091064453125,0.8129060864448547,5.705340385437012,8.999502182006836
1700852441587087400,7.04308740234375,0.4526602327823639,5.90634822845459,8.997354507446289
1700852441604076300,7.060076171875,-0.0005863718688488007,5.921719551086426,8.565552711486816
1700852441621055200,7.07705517578125,-0.6524069905281067,5.766341209411621,8.372259140014648
1700852441638055200,7.09405517578125,-1.6788725852966309,5.842360973358154,8.351633071899414
1700852441655048200,7.111048095703125,-2.9916017055511475,5.5416669845581055,8.610437393188477
1700852441672032500,7.128032470703125,-3.839212417602539,4.591420650482178,8.516239166259766
1700852441689024800,7.145024658203125,-3.072385787963867,3.361851692199707,8.276582717895508
1700852441706016300,7.162016357421875,-1.455808162689209,2.202206611633301,8.315006256103516
1700852441723011600,7.179011474609375,0.18916112184524536,1.8174128532409668,8.432992935180664
1700852441739998200,7.195998291015625,1.0298717021942139,1.692518711090088,8.60141372680664
1700852441756990700,7.21299072265625,1.1845207214355469,1.5457420349121094,8.356840133666992
1700852441773977300,7.229977294921875,0.826299250125885,0.7673544883728027,7.907821178436279
1700852441790970600,7.246970703125,0.5103719234466553,-0.6247344017028809,7.682326793670654
1700852441807962000,7.263962158203125,0.44327443838119507,-2.151191234588623,7.327823162078857
1700852441824953600,7.28095361328125,0.44658350944519043,-3.0553665161132812,6.454267501831055
1700852441841944800,7.29794482421875,0.8312885761260986,-3.1919078826904297,5.283807754516602
1700852441858937600,7.3149375,1.390683650970459,-2.9039573669433594,4.093096733093262
1700852441875940000,7.331940185546875,1.9363597631454468,-2.430602550506592,2.941802978515625
1700852441892929000,7.348928955078125,2.376145362854004,-2.2435789108276367,1.9588632583618164
1700852441909920500,7.36592041015625,2.8608951568603516,-2.984231948852539,1.9673032760620117
1700852441926910700,7.38291064453125,2.9906768798828125,-3.3042349815368652,1.6374616622924805
1700852441943904000,7.399904052734375,2.5784053802490234,-3.5182721614837646,1.1384086608886719
1700852441960894500,7.41689453125,1.9962730407714844,-3.5882484912872314,0.42895030975341797
1700852441977886000,7.433885986328125,1.6781195402145386,-3.5786070823669434,-0.35713672637939453
1700852441994877000,7.450876953125,1.8361527919769287,-3.775468111038208,-1.0191307067871094
1700852442011858400,7.4678583984375,2.1773152351379395,-4.209492206573486,-1.5769801139831543
1700852442028861400,7.484861328125,2.6749002933502197,-4.566601753234863,-2.2396345138549805
1700852442045846000,7.501845947265625,3.0238473415374756,-4.70402717590332,-3.1455798149108887
1700852442062842400,7.51884228515625,3.349268674850464,-4.699827194213867,-4.004348278045654
1700852442079833900,7.535833740234375,3.6591906547546387,-4.679642677307129,-4.749892234802246
1700852442096825300,7.552825439453125,3.912506341934204,-4.774558067321777,-5.3318376541137695
1700852442113816300,7.56981640625,4.213194370269775,-4.876224994659424,-5.787750720977783
1700852442130807800,7.586807861328125,4.410325050354004,-4.973034858703613,-6.11525821685791
1700852442147799000,7.603799072265625,4.503591537475586,-5.105223178863525,-6.387522220611572
1700852442164790500,7.62079052734375,4.739846229553223,-5.198990821838379,-6.5555315017700195
1700852442181781800,7.63778173828125,4.707087993621826,-5.510846138000488,-6.482117652893066
1700852442198773000,7.65477294921875,4.654675006866455,-5.7521162033081055,-6.219013214111328
1700852442215754000,7.67175390625,4.613182067871094,-5.965286731719971,-5.793128967285156
1700852442232755700,7.688755615234375,4.494876384735107,-6.050625801086426,-5.235914707183838
1700852442249736400,7.705736328125,3.8698854446411133,-6.571601867675781,-3.9589791297912598
1700852442266738400,7.722738525390625,3.0050852298736572,-6.54895544052124,-3.4430298805236816
1700852442283726600,7.7397265625,2.2410361766815186,-6.349681854248047,-3.5506129264831543
1700852442300724000,7.756723876953125,2.2719333171844482,-6.442840576171875,-3.133316993713379
1700852442317712400,7.77371240234375,2.692000150680542,-6.562216758728027,-1.8861665725708008
1700852442334701000,7.790701171875,2.397097110748291,-6.218352317810059,-0.7331199645996094
1700852442351694300,7.8076943359375,1.0869042873382568,-5.917563438415527,0.13997650146484375
1700852442368686300,7.824686279296875,-0.047567009925842285,-5.803409576416016,0.969202995300293
1700852442385677600,7.841677490234375,-0.5668114423751831,-5.886553764343262,1.8033246994018555
1700852442402669000,7.8586689453125,-0.19824576377868652,-5.8623738288879395,2.405390739440918
1700852442419658200,7.875658203125,0.44556093215942383,-5.7499308586120605,2.9809789657592773
1700852442436654000,7.892654052734375,1.1267119646072388,-5.162110805511475,3.0690221786499023
1700852442453643000,7.90964306640625,1.2406165599822998,-4.035367012023926,2.888176918029785
1700852442470634200,7.92663427734375,0.7207714915275574,-2.466181755065918,2.64064884185791
1700852442487623200,7.943623046875,-0.061051130294799805,-0.8201355934143066,2.4217453002929688
1700852442504619800,7.960619873046875,-0.6856472492218018,0.7653617858886719,2.384242057800293
1700852442521608200,7.977608154296875,-1.0675320625305176,1.9607491493225098,2.3735837936401367
1700852442538597000,7.99459716796875,-1.1310216188430786,2.6675593852996826,2.559311866760254
1700852442555593500,8.011593505859375,-0.878788948059082,2.9644291400909424,2.714777946472168
1700852442572582100,8.02858203125,-0.43946999311447144,3.150979995727539,3.012359619140625
1700852442589573600,8.04557373046875,-0.2923610806465149,3.394366502761841,3.2838754653930664
1700852442606564900,8.06256494140625,-0.6015268564224243,3.532935619354248,3.7556376457214355
1700852442623556400,8.079556396484374,-0.9015595316886902,3.496965169906616,4.18475341796875
1700852442640547600,8.096547607421876,-0.995492696762085,3.376549243927002,4.787751197814941
1700852442657538800,8.113538818359375,-0.9615534543991089,3.280679702758789,5.698458671569824
1700852442674530000,8.130530029296875,-1.0956487655639648,3.5761003494262695,6.293641567230225
1700852442691523800,8.14752392578125,-1.2348120212554932,3.9018819332122803,6.4882659912109375
1700852442708513000,8.164512939453125,-1.2108908891677856,4.218874931335449,6.733489990234375
1700852442725504300,8.181504150390625,-0.8720681667327881,4.5388898849487305,7.141957759857178
1700852442742495200,8.1984951171875,-0.8269321918487549,4.7258758544921875,7.867431640625
1700852442759486700,8.21548681640625,-1.4218881130218506,4.984593391418457,8.778411865234375
1700852442776468000,8.232468017578125,-2.7352137565612793,5.222169399261475,9.498283386230469
1700852442793469400,8.249469482421874,-3.8068935871124268,4.912147045135498,10.249753952026367
1700852442810461000,8.2664609375,-3.9632203578948975,4.185885429382324,10.671092987060547
1700852442827449900,8.283449951171875,-3.3440041542053223,3.7494282722473145,10.397745132446289
1700852442844445400,8.300445556640625,-2.6549150943756104,3.4228711128234863,10.039278984069824
1700852442861434600,8.3174345703125,-1.8774423599243164,3.268549919128418,9.360154151916504
1700852442878425900,8.33442578125,-1.245078444480896,2.672403335571289,8.685016632080078
1700852442895417300,8.351417236328125,-0.7026274800300598,1.8249330520629883,8.281922340393066
1700852442912408600,8.36840869140625,-0.47028452157974243,0.6222071647644043,8.16470718383789
1700852442929400000,8.385400146484375,-0.41159865260124207,-0.7174153327941895,8.020715713500977
1700852442946391300,8.402391357421875,-0.1819002628326416,-1.9033541679382324,7.781319618225098
1700852442963365000,8.419365234375,0.23592042922973633,-2.710129737854004,7.19842004776001
1700852442980373500,8.43637353515625,1.0876246690750122,-3.1868677139282227,6.280368328094482
1700852442997354800,8.453354736328125,1.7555279731750488,-3.2192277908325195,5.166793346405029
1700852443014356500,8.4703564453125,2.084545135498047,-2.8283510208129883,3.6984663009643555
1700852443031337200,8.487337158203125,2.241623878479004,-2.292300224304199,2.0992488861083984
1700852443048339200,8.504339111328125,2.325516700744629,-1.8638300895690918,0.7561550140380859
1700852443065330400,8.521330322265625,2.4667088985443115,-1.7209844589233398,-0.3668680191040039
1700852443082322000,8.538322021484374,2.6971473693847656,-1.8921332359313965,-1.3502297401428223
1700852443099313000,8.55531298828125,2.811898708343506,-2.0991642475128174,-2.314185619354248
1700852443116304400,8.572304443359375,3.046846866607666,-2.196723461151123,-3.2538204193115234
1700852443133285400,8.589285400390626,3.213691234588623,-2.454887628555298,-3.847532272338867
1700852443150287000,8.606287109375,3.2728967666625977,-2.6523001194000244,-4.311368465423584
1700852443167277600,8.623277587890625,3.2757863998413086,-2.790233850479126,-4.696369171142578
1700852443184259800,8.640259765625,3.271599769592285,-2.9150824546813965,-4.918760776519775
1700852443201261000,8.657260986328126,3.365708351135254,-3.0445141792297363,-4.878198146820068
1700852443218252300,8.674252197265625,3.1871490478515625,-3.1211841106414795,-4.95802116394043
1700852443235243500,8.691243408203125,3.3903374671936035,-3.055130958557129,-5.18079137802124
1700852443252233000,8.70823291015625,3.6398415565490723,-3.281264305114746,-4.82131814956665
1700852443269226200,8.725226318359375,4.093681335449219,-3.6822221279144287,-4.035895347595215
1700852443286217500,8.742217529296875,4.486739635467529,-4.339781284332275,-3.3691134452819824
1700852443303208700,8.759208740234374,4.618615627288818,-5.126847267150879,-2.9447431564331055
1700852443320200000,8.776199951171876,4.606577396392822,-5.408328533172607,-3.2749404907226562
1700852443337191200,8.793191162109375,4.484704971313477,-5.544305801391602,-3.499021530151367
1700852443354193700,8.810193603515625,4.329428195953369,-6.224461555480957,-2.8439536094665527
1700852443371169000,8.8271689453125,4.477655410766602,-7.1115851402282715,-1.8279328346252441
1700852443388152300,8.84415234375,4.887446403503418,-7.280306816101074,-1.4075140953063965
1700852443405159200,8.8611591796875,4.626443386077881,-7.703281402587891,-1.344167709350586
1700852443422148000,8.878148193359374,3.731365442276001,-7.7305097579956055,-1.7160935401916504
1700852443439139300,8.895139404296875,2.542652130126953,-7.2215681076049805,-1.4277868270874023
1700852443456130600,8.912130615234375,1.7813053131103516,-7.064000606536865,-0.018072128295898438
1700852443473110500,8.929110595703126,1.3613488674163818,-6.549402236938477,1.240713119506836
1700852443490117600,8.94611767578125,0.4295496940612793,-5.801520347595215,2.0175247192382812
1700852443507104300,8.963104248046875,-0.5851843357086182,-4.934752464294434,2.036219596862793
1700852443524087600,8.980087646484375,-1.5115094184875488,-3.9998838901519775,1.291743278503418
1700852443541087200,8.997087158203126,-1.5251688957214355,-3.0577545166015625,0.3431415557861328
1700852443558078200,9.014078125,-1.0747482776641846,-2.0922560691833496,-0.35633373260498047
1700852443575069700,9.031069580078125,-0.7185676693916321,-1.0828938484191895,-0.7371797561645508
1700852443592061000,9.04806103515625,-0.5379502773284912,-0.06872987747192383,-0.7149415016174316
1700852443609052400,9.065052490234375,-0.7498841881752014,0.7016992568969727,-0.8187885284423828
1700852443626041600,9.08204150390625,-1.1417473554611206,1.2581915855407715,-0.89300537109375
1700852443643037000,9.099036865234375,-1.2531441450119019,1.3128318786621094,-0.8113765716552734
1700852443660021200,9.116021240234375,-0.842729389667511,1.2003898620605469,-0.44741058349609375
1700852443677007000,9.133007080078125,-0.16287487745285034,1.2006373405456543,0.10818958282470703
1700852443693999600,9.14999951171875,0.31213176250457764,1.3093795776367188,0.877408504486084
1700852443710995000,9.166994873046875,0.5118366479873657,1.4733047485351562,1.76304292678833
1700852443727981600,9.183981689453125,0.4777050018310547,1.779789924621582,2.6227145195007324
1700852443744982300,9.200982177734375,0.06561253219842911,2.0416250228881836,3.6644797325134277
1700852443761971000,9.217970947265625,-0.012986242771148682,2.5312118530273438,5.190859794616699
1700852443778966000,9.234966064453126,-0.11719246208667755,3.0187578201293945,6.498100280761719
1700852443795952000,9.2519521484375,-0.0974045842885971,3.417910575866699,7.676059246063232
1700852443812942800,9.26894287109375,0.21776068210601807,4.020263195037842,8.621465682983398
1700852443829928400,9.285928466796875,0.3520873785018921,4.7155351638793945,9.916866302490234
1700852443846929400,9.302929443359375,0.09811656177043915,5.461774826049805,11.26323127746582
1700852443863922200,9.319922119140625,-0.32200148701667786,6.186761856079102,12.050281524658203
1700852443880913000,9.336912841796876,-1.0538015365600586,6.595259189605713,12.036104202270508
1700852443897904600,9.353904541015625,-1.9031299352645874,6.4386372566223145,11.652467727661133
1700852443914894600,9.37089453125,-2.35976243019104,5.213008880615234,11.455745697021484
1700852443931879400,9.38787939453125,-1.9560372829437256,4.212547779083252,10.780047416687012
1700852443948876800,9.404876708984375,-1.1009613275527954,3.34658145904541,10.629599571228027
1700852443965867000,9.421866943359374,-0.3642553985118866,2.511075496673584,10.763753890991211
1700852443982865200,9.438865234375,0.5004214644432068,1.9023847579956055,10.736282348632812
1700852443999853600,9.455853515625,1.020331859588623,1.5463447570800781,10.434026718139648
1700852444016843300,9.47284326171875,1.232438564300537,1.317884922027588,9.944477081298828
1700852444033834800,9.489834716796874,1.3531711101531982,0.721062183380127,9.59115982055664
1700852444050826000,9.506825927734376,1.6315348148345947,-0.42676830291748047,9.584416389465332
1700852444067817500,9.5238173828125,1.8879170417785645,-1.5666027069091797,9.35573673248291
1700852444084808700,9.54080859375,1.9625169038772583,-2.4726433753967285,8.736339569091797
1700852444101800200,9.55780029296875,1.8937830924987793,-2.715606212615967,7.086567401885986
1700852444118791200,9.574791259765625,2.005812406539917,-2.6795897483825684,5.167264938354492
1700852444135772000,9.59177197265625,2.243598699569702,-2.6291990280151367,3.3147335052490234
1700852444152774000,9.60877392578125,2.6096153259277344,-2.7973952293395996,1.7701072692871094
1700852444169765000,9.62576513671875,2.8423001766204834,-3.116269111633301,0.47560596466064453
1700852444186745900,9.642745849609375,2.867844343185425,-3.4174885749816895,-0.6842145919799805
1700852444203735000,9.659735107421875,2.987656593322754,-3.5539002418518066,-1.8873748779296875
1700852444220741000,9.6767412109375,3.219930410385132,-3.6677236557006836,-3.000627040863037
1700852444237719600,9.693719482421875,3.2961390018463135,-3.6776480674743652,-4.148469924926758
1700852444254721500,9.710721435546875,3.3136701583862305,-3.823643445968628,-4.83864688873291
1700852444271719000,9.727718994140625,3.3786070346832275,-4.008973598480225,-5.237401962280273
1700852444288704300,9.744704345703125,3.490351676940918,-4.178577423095703,-5.467172622680664
1700852444305686500,9.7616865234375,3.652143955230713,-4.354302406311035,-5.422611236572266
1700852444322684400,9.778684326171875,4.170309066772461,-4.361787796020508,-5.0988898277282715
1700852444339680800,9.7956806640625,4.482853412628174,-4.425018787384033,-4.829634666442871
1700852444356669200,9.812669189453125,4.946206092834473,-4.61290979385376,-4.322503089904785
1700852444373660700,9.82966064453125,5.141104698181152,-4.875522136688232,-3.724003314971924
1700852444390651600,9.846651611328125,4.984306335449219,-5.151878833770752,-3.277757167816162
1700852444407640600,9.863640625,4.432727813720703,-5.664006233215332,-3.0832691192626953
1700852444424626400,9.88062646484375,4.329461574554443,-5.97484016418457,-3.26216459274292
1700852444441625600,9.89762548828125,4.741170883178711,-6.235503196716309,-3.394301414489746
1700852444458606600,9.914606689453125,5.051810264587402,-6.839202880859375,-2.790940284729004
1700852444475608300,9.9316083984375,4.566349029541016,-7.0722832679748535,-2.4538722038269043
1700852444492597000,9.948596923828125,3.7878315448760986,-6.861125469207764,-2.941861152648926
1700852444509593600,9.965593505859376,3.234276056289673,-6.951961994171143,-3.489534854888916
1700852444526582300,9.982582275390625,2.6317646503448486,-7.253820419311523,-3.769143581390381
1700852444543573200,9.9995732421875,2.3136796951293945,-6.8608078956604,-3.5448546409606934
1700852444560564700,10.016564697265625,2.366997480392456,-6.358789920806885,-2.5749430656433105
1700852444577557000,10.033556884765625,1.796165108680725,-5.990462779998779,-1.2839441299438477
1700852444594547200,10.050547119140624,0.8919663429260254,-5.675615310668945,-0.2763080596923828
1700852444611528000,10.06752783203125,-0.15722966194152832,-5.455757141113281,0.30852794647216797
1700852444628530000,10.084530029296875,-0.9276047945022583,-5.368269443511963,0.6170825958251953
1700852444645521200,10.101521240234375,-0.7599629163742065,-5.011833190917969,0.9041213989257812
1700852444662512000,10.11851220703125,-0.19305890798568726,-4.225665092468262,1.387537956237793
1700852444679503600,10.135503662109375,0.2534891963005066,-3.1024656295776367,1.7283344268798828
1700852444696495000,10.1524951171875,0.4391200542449951,-1.7859749794006348,1.9910402297973633
1700852444713486300,10.169486328125,0.37897852063179016,-0.6308460235595703,2.382246971130371
1700852444730475300,10.186475341796875,0.07299768924713135,0.4404792785644531,2.8268861770629883
1700852444747469600,10.203469482421875,-0.6413655281066895,1.4431614875793457,3.0285205841064453
1700852444764450800,10.220450927734374,-1.3972015380859375,2.1042227745056152,3.619431495666504
1700852444781451500,10.237451416015626,-1.5789504051208496,2.619908332824707,4.605681419372559
1700852444798442800,10.25444287109375,-1.2491060495376587,3.1925997734069824,5.471846580505371
1700852444815434000,10.27143408203125,-0.7557873129844666,3.6674892902374268,6.067538261413574
1700852444832425200,10.28842529296875,-0.2052810937166214,4.202534198760986,6.052258491516113
1700852444849416700,10.305416748046875,-0.15119490027427673,4.483243465423584,5.742178440093994
1700852444866408000,10.322407958984375,-0.46661150455474854,4.400228500366211,5.776233673095703
1700852444883402800,10.33940283203125,-0.968227744102478,4.385683059692383,6.025611400604248
1700852444900386800,10.35638671875,-1.3343653678894043,4.441399574279785,6.665637493133545
1700852444917390600,10.373390625,-1.4718976020812988,4.581218719482422,7.238917827606201
1700852444934372900,10.390372802734374,-1.5123748779296875,4.851271629333496,7.783254146575928
1700852444951361800,10.40736181640625,-2.152871608734131,4.993006706237793,8.443533897399902
1700852444968359200,10.424359130859376,-3.0879709720611572,5.310787677764893,8.697687149047852
1700852444985345800,10.441345703125,-4.073205947875977,5.347681999206543,8.99644660949707
1700852445002338000,10.458338134765626,-4.414983749389648,5.307869911193848,9.193002700805664
1700852445019329300,10.475329345703125,-4.383493900299072,4.790600299835205,9.454761505126953
1700852445036320800,10.49232080078125,-4.05635929107666,3.4246158599853516,9.964075088500977
1700852445053312000,10.50931201171875,-3.2730236053466797,2.040501594543457,10.301783561706543
1700852445070303000,10.526302978515625,-2.225360631942749,0.9639682769775391,10.77217960357666
1700852445087281200,10.54328125,-1.4341509342193604,0.6624960899353027,10.867883682250977
1700852445104275200,10.560275146484376,-0.8793483972549438,0.8015694618225098,10.124393463134766
1700852445121272600,10.5772724609375,-0.3417026996612549,0.5262031555175781,9.471687316894531
1700852445138262000,10.594261962890625,0.5578063130378723,-0.18903493881225586,8.667407989501953
1700852445155252700,10.611252685546875,1.2201769351959229,-1.452010154724121,8.060811996459961
1700852445172237800,10.62823779296875,1.6696410179138184,-3.054680824279785,7.953395366668701
1700852445189232600,10.645232666015625,1.6478655338287354,-4.180630207061768,7.63899564743042
1700852445206226200,10.66222607421875,1.2132283449172974,-4.403596878051758,6.529393196105957
1700852445223220000,10.679219970703125,1.0897852182388306,-4.042708396911621,4.989605903625488
1700852445240211700,10.696211669921874,1.3790605068206787,-3.4795217514038086,3.0488948822021484
1700852445257201400,10.713201416015625,1.7313852310180664,-3.0510458946228027,1.0835351943969727
1700852445274190000,10.730190185546874,2.0884695053100586,-2.8411169052124023,-0.3320884704589844
1700852445291182600,10.7471826171875,2.16219425201416,-2.958878755569458,-1.367067813873291
1700852445308173000,10.764173095703125,2.1683995723724365,-3.0725436210632324,-2.4673690795898438
1700852445325165300,10.781165283203125,2.212923526763916,-3.1282784938812256,-3.5132040977478027
1700852445342163500,10.79816357421875,2.379542350769043,-3.2156219482421875,-4.301787853240967
1700852445359146000,10.81514599609375,2.6452085971832275,-3.267120361328125,-4.98923397064209
1700852445376146200,10.832146240234374,2.7776851654052734,-3.490321159362793,-5.511143207550049
1700852445393135600,10.849135498046875,3.039151191711426,-3.559600830078125,-5.9590277671813965
1700852445410128600,10.866128662109375,3.177483081817627,-3.7105324268341064,-6.100956916809082
1700852445427119600,10.88311962890625,3.266275405883789,-3.9643919467926025,-6.195920944213867
1700852445444110800,10.90011083984375,3.4311487674713135,-4.158571243286133,-6.399236679077148
1700852445461102300,10.917102294921875,3.6528499126434326,-4.416971206665039,-6.394410610198975
1700852445478091300,10.93409130859375,3.9354634284973145,-4.5314226150512695,-5.91696834564209
1700852445495087600,10.951087646484375,4.174776077270508,-4.846138000488281,-5.106394290924072
1700852445512076300,10.968076171875,4.235773086547852,-5.089767932891846,-4.637138366699219
1700852445529065000,10.98506494140625,3.9409618377685547,-5.52229642868042,-4.500152111053467
1700852445546061000,11.00206103515625,3.980156183242798,-5.889708042144775,-4.6138715744018555
1700852445563036700,11.01903662109375,4.242361068725586,-6.15709924697876,-4.51029634475708
1700852445580039700,11.036039794921875,4.279726028442383,-6.6391191482543945,-3.3556718826293945
1700852445597030100,11.053030029296876,3.6817522048950195,-6.921787738800049,-2.535782814025879
1700852445614024000,11.07002392578125,3.2688827514648438,-6.486208915710449,-2.0870399475097656
1700852445631015200,11.08701513671875,2.625453233718872,-6.259145736694336,-1.6168022155761719
1700852445648006100,11.104006103515625,1.7656824588775635,-6.2331953048706055,-1.556595802307129
1700852445664997600,11.12099755859375,1.0253061056137085,-6.130916595458984,-1.6765480041503906
1700852445681988900,11.13798876953125,0.8251819610595703,-6.102285861968994,-1.0518884658813477
1700852445698980000,11.15497998046875,0.5870968103408813,-6.203092575073242,0.7961864471435547
1700852445715960800,11.1719609375,-0.10132801532745361,-5.895294189453125,2.631354331970215
1700852445732964000,11.188964111328126,-1.4338489770889282,-5.225628852844238,3.33652400970459
1700852445749952500,11.205952392578125,-2.5975658893585205,-4.507502555847168,3.3045692443847656
1700852445766948900,11.222948974609375,-2.6770033836364746,-4.030121326446533,3.5065507888793945
1700852445783940000,11.239940185546875,-1.8554370403289795,-3.5686116218566895,3.5951499938964844
1700852445800927500,11.256927490234375,-0.12954246997833252,-2.683525562286377,3.672727584838867
1700852445817919000,11.2739189453125,0.9126870632171631,-1.419783592224121,3.804286003112793
1700852445834910500,11.290910400390626,1.0304675102233887,0.1624431610107422,3.8558006286621094
1700852445851891200,11.30789111328125,0.5036413073539734,1.9189424514770508,3.6371655464172363
1700852445868891400,11.324891357421874,-0.5042184591293335,3.1855340003967285,3.51181697845459
1700852445885885400,11.341885498046874,-1.468712568283081,3.9946401119232178,3.4688544273376465
1700852445902874000,11.3588740234375,-1.9381837844848633,4.2173075675964355,3.6012024879455566
1700852445919868000,11.375867919921875,-2.031552314758301,4.143224716186523,3.596376419067383
1700852445936857900,11.39285791015625,-2.0026373863220215,3.8945090770721436,3.848886489868164
1700852445953839900,11.40983984375,-1.5976897478103638,3.8066844940185547,4.426331996917725
1700852445970837800,11.426837646484374,-1.055301547050476,3.7580108642578125,5.313345909118652
1700852445987834000,11.443834228515625,-1.012751817703247,3.9348974227905273,5.789796829223633
1700852446004822800,11.46082275390625,-1.7633817195892334,3.774662971496582,5.886521816253662
1700852446021814300,11.477814208984375,-2.3841729164123535,3.5347485542297363,5.962436676025391
1700852446038805200,11.49480517578125,-2.6291441917419434,3.022958755493164,6.376521110534668
1700852446055794200,11.511794189453125,-1.9465148448944092,2.805846691131592,6.760562896728516
1700852446072790500,11.52879052734375,-1.117608904838562,2.7170982360839844,7.500394344329834
1700852446089777700,11.545777587890624,-0.6515578627586365,3.393197536468506,7.829853534698486
1700852446106770200,11.562770263671876,-1.155053734779358,4.048003673553467,7.7634077072143555
1700852446123761400,11.579761474609375,-1.963778018951416,4.608697414398193,7.805972099304199
1700852446140742100,11.5967421875,-2.946195602416992,4.3426361083984375,8.411304473876953
1700852446157744000,11.613744140625,-3.7788124084472656,3.101895809173584,9.104286193847656
1700852446174733300,11.6307333984375,-4.0303754806518555,2.077040672302246,9.403095245361328
1700852446191721000,11.647720947265626,-4.1230926513671875,1.381394386291504,9.755706787109375
1700852446208717800,11.6647177734375,-4.202932834625244,1.0027790069580078,10.109691619873047
1700852446225698800,11.68169873046875,-3.887084484100342,0.8571634292602539,10.401487350463867
1700852446242699800,11.69869970703125,-3.365626096725464,0.7602434158325195,10.304349899291992
1700852446259692000,11.715692138671875,-2.6349434852600098,0.6322751045227051,9.733283042907715
1700852446276683000,11.73268310546875,-1.6856287717819214,-0.013628005981445312,9.080151557922363
1700852446293674200,11.74967431640625,-0.6864498853683472,-1.0898799896240234,8.216732025146484
1700852446310665500,11.76666552734375,0.33216792345046997,-2.2526001930236816,7.306486129760742
1700852446327654100,11.783654052734375,1.1941380500793457,-3.3112215995788574,6.294218063354492
1700852446344650200,11.800650146484376,2.2144486904144287,-3.6694607734680176,5.198169231414795
1700852446361639200,11.81763916015625,2.8950743675231934,-3.2092981338500977,3.9075560569763184
1700852446378626800,11.834626708984375,3.114949941635132,-2.47670316696167,2.456552505493164
1700852446395625000,11.851625,3.1203839778900146,-1.8925981521606445,1.0117754936218262
1700852446412609800,11.86860986328125,3.251926898956299,-1.6523618698120117,0.0001087188720703125
1700852446429605400,11.88560546875,3.517951726913452,-1.7353863716125488,-0.7671828269958496
1700852446446598100,11.90259814453125,3.6775119304656982,-1.9910893440246582,-1.5153942108154297
1700852446463586600,11.919586669921875,3.838534355163574,-2.3266215324401855,-2.2783308029174805
1700852446480578000,11.936578125,3.685634136199951,-2.6366467475891113,-3.017430305480957
1700852446497569300,11.9535693359375,3.484992265701294,-2.810140609741211,-3.703310489654541
1700852446514549800,11.9705498046875,3.611750841140747,-2.832850694656372,-4.426299571990967
1700852446531538400,11.987538330078126,3.837695837020874,-2.890528678894043,-4.7630181312561035
1700852446548545500,12.004545654296875,4.039747714996338,-3.1316897869110107,-4.871729850769043
1700852446565523500,12.0215234375,4.251585483551025,-3.369746685028076,-4.967091083526611
1700852446582524200,12.038524169921875,4.374330043792725,-3.69795560836792,-5.142516136169434
1700852446599518000,12.05551806640625,4.504588603973389,-4.056576728820801,-5.406346321105957
1700852446616503800,12.07250390625,4.643486976623535,-4.468000888824463,-5.649759292602539
1700852446633488100,12.089488037109374,4.65607213973999,-4.904242992401123,-5.780762672424316
1700852446650493000,12.106492919921875,4.479029178619385,-5.490694046020508,-5.5942487716674805
1700852446667492400,12.123492431640624,4.48661470413208,-5.829472064971924,-5.453522205352783
1700852446684477200,12.140477294921874,4.570423126220703,-6.061924934387207,-5.3270134925842285
1700852446701463000,12.157463134765624,4.424508094787598,-6.350973606109619,-5.083627223968506
1700852446718455600,12.17445556640625,3.582345485687256,-6.740567684173584,-4.91723108291626
1700852446735446800,12.19144677734375,2.5940489768981934,-6.7465620040893555,-4.924413681030273
1700852446752427300,12.20842724609375,1.902246117591858,-6.83275842666626,-4.421541690826416
1700852446769429200,12.22542919921875,1.950805425643921,-6.88375186920166,-3.196331024169922
1700852446786420500,12.24242041015625,2.015354871749878,-6.673468589782715,-2.1762137413024902
1700852446803411500,12.259411376953125,1.381629467010498,-6.50615119934082,-1.6517539024353027
1700852446820390100,12.27639013671875,0.15453094244003296,-6.498227596282959,-0.703460693359375
1700852446837393400,12.293393310546875,-0.813485324382782,-6.67518424987793,0.8494052886962891
1700852446854386200,12.31038623046875,-0.8491852879524231,-6.703883171081543,3.1563806533813477
1700852446871376600,12.327376708984374,-0.3971075713634491,-6.00521993637085,4.784746170043945
1700852446888367600,12.34436767578125,-0.12444263696670532,-4.866216659545898,5.500679016113281
1700852446905358800,12.36135888671875,-0.013279616832733154,-3.4327645301818848,5.248614311218262
1700852446922347800,12.37834765625,-0.06492096930742264,-1.9026727676391602,4.472195625305176
1700852446939344100,12.39534423828125,-0.3438118100166321,-0.42369794845581055,3.8575243949890137
1700852446956326700,12.41232666015625,-0.6761674284934998,0.9143505096435547,3.5863451957702637
1700852446973316000,12.429316162109375,-1.2004860639572144,1.9468045234680176,3.530503749847412
1700852446990315000,12.44631494140625,-1.6002881526947021,2.756065845489502,3.46016788482666
1700852447007309000,12.46330908203125,-1.9170081615447998,3.3333325386047363,3.6808881759643555
1700852447024298800,12.480298828125,-1.8646833896636963,3.7394604682922363,3.802354335784912
1700852447041290200,12.497290283203125,-1.9402209520339966,3.9283151626586914,3.7769250869750977
1700852447058280200,12.5142802734375,-2.1640231609344482,3.6515884399414062,3.904287338256836
1700852447075271400,12.531271484375,-2.3149890899658203,3.4430642127990723,4.021435260772705
1700852447092263000,12.548262939453124,-2.569023370742798,3.201615810394287,4.423702239990234
1700852447109254000,12.56525390625,-2.5624194145202637,3.1335535049438477,4.703346252441406
1700852447126245400,12.582245361328125,-2.309044599533081,3.1794066429138184,4.808060169219971
1700852447143236600,12.599236572265625,-2.211827278137207,3.086789131164551,5.371435642242432
1700852447160225300,12.616225341796875,-2.0156867504119873,3.0484819412231445,6.36278772354126
1700852447177208000,12.6332080078125,-2.0753238201141357,3.315046787261963,7.309142112731934
1700852447194202000,12.6502021484375,-2.5656304359436035,3.6774659156799316,7.7882490158081055
1700852447211196000,12.66719580078125,-3.0837297439575195,3.75454044342041,8.288116455078125
1700852447228185300,12.684185302734376,-3.3394572734832764,3.724860668182373,8.889684677124023
1700852447245174800,12.7011748046875,-3.1858134269714355,3.857165813446045,9.192752838134766
1700852447262168800,12.7181689453125,-3.5242879390716553,4.007521152496338,9.394098281860352
1700852447279157800,12.73515771484375,-4.325811862945557,3.3715333938598633,9.527446746826172
1700852447296151300,12.7521513671875,-4.545500755310059,2.0077757835388184,9.740406036376953
1700852447313139200,12.76913916015625,-3.7668423652648926,1.2169699668884277,9.262239456176758
1700852447330129000,12.78612890625,-2.6500866413116455,0.5783791542053223,9.136795997619629
1700852447347124700,12.803124755859375,-1.4128851890563965,0.4573507308959961,9.040921211242676
1700852447364124700,12.820124755859375,-0.1498699188232422,0.6908245086669922,8.672805786132812
1700852447381118500,12.837118408203125,0.4674241542816162,0.6019840240478516,8.143702507019043
1700852447398106400,12.8541064453125,0.6753779649734497,0.20054244995117188,7.3455376625061035
1700852447415085600,12.87108544921875,1.0584849119186401,-0.6096324920654297,6.7972025871276855
1700852447432087600,12.888087646484376,1.3288675546646118,-1.529353141784668,6.635252952575684
1700852447449078500,12.90507861328125,1.3672466278076172,-2.223081588745117,6.219458103179932
1700852447466069800,12.92206982421875,1.5051469802856445,-2.335963726043701,5.486594200134277
1700852447483061000,12.93906103515625,1.8547155857086182,-2.0280776023864746,4.250335693359375
1700852447500052500,12.956052490234375,2.289074420928955,-1.6252622604370117,2.829277515411377
1700852447517043500,12.97304345703125,2.6463260650634766,-1.3280420303344727,1.4320497512817383
1700852447534028000,12.990028076171875,2.8152873516082764,-1.1473464965820312,0.29218387603759766
1700852447551026000,13.00702587890625,2.771632194519043,-1.1910996437072754,-0.5333132743835449
1700852447568027600,13.024027587890625,2.5978646278381348,-1.3147892951965332,-1.3618402481079102
1700852447585008600,13.041008544921874,2.528561592102051,-1.6315479278564453,-2.125448703765869
1700852447601997300,13.057997314453125,2.7399117946624756,-1.8832101821899414,-3.0363378524780273
1700852447618993400,13.074993408203126,3.106715202331543,-2.0939736366271973,-3.896124839782715
1700852447635982300,13.091982421875,3.688523292541504,-2.089533805847168,-4.613487720489502
1700852447652975000,13.10897509765625,4.135420322418213,-2.084120750427246,-4.983381271362305
1700852447669963300,13.12596337890625,4.400321006774902,-2.179237127304077,-4.889865398406982
1700852447686956000,13.1429560546875,4.343235015869141,-2.528891086578369,-4.574855804443359
1700852447703947300,13.159947265625,3.986926555633545,-2.961954116821289,-4.5424628257751465
1700852447720935000,13.176934814453125,3.5733370780944824,-3.4399733543395996,-4.84135627746582
1700852447737928200,13.19392822265625,3.539155960083008,-3.7917778491973877,-5.022121429443359
1700852447754922200,13.210922119140625,3.655971050262451,-4.327343940734863,-4.562522888183594
1700852447771901400,13.2279013671875,3.9696781635284424,-4.7589311599731445,-3.8576674461364746
1700852447788900400,13.244900390625,4.216355323791504,-5.057830333709717,-3.1977686882019043
1700852447805897000,13.26189697265625,4.308825969696045,-5.388506889343262,-2.907464027404785
1700852447822886000,13.278885986328126,4.5576653480529785,-5.682761192321777,-3.233419895172119
1700852447839876900,13.295876953125,4.766600608825684,-6.159685134887695,-3.1808061599731445
1700852447856873700,13.312873779296876,4.077240943908691,-6.44659423828125,-3.3460121154785156
1700852447873859300,13.329859375,3.59165620803833,-6.203113555908203,-3.833946704864502
1700852447890850600,13.3468505859375,3.1075406074523926,-6.410175323486328,-3.4390244483947754
1700852447907843000,13.363843017578125,2.922466516494751,-6.8227410316467285,-2.056220531463623
1700852447924830700,13.380830810546875,2.497530698776245,-6.482719421386719,-0.7619695663452148
1700852447941826300,13.397826416015626,1.1115996837615967,-5.797806262969971,-0.2942647933959961
1700852447958815500,13.4148154296875,-0.6191374063491821,-5.073112487792969,-0.16887664794921875
1700852447975806700,13.431806640625,-1.7241928577423096,-4.5666399002075195,0.1423635482788086
1700852447992780300,13.4487802734375,-1.7031306028366089,-4.255074501037598,0.9741926193237305
1700852448009789400,13.46578955078125,-0.7502682209014893,-4.006015300750732,1.971989631652832
1700852448026780200,13.4827802734375,0.1541498601436615,-3.611499309539795,2.536433219909668
1700852448043771400,13.499771484375,0.8435946702957153,-2.6026554107666016,2.5340728759765625
1700852448060762600,13.5167626953125,0.8448009490966797,-1.3302841186523438,2.004378318786621
1700852448077753900,13.53375390625,0.40344148874282837,0.024929523468017578,1.5537543296813965
1700852448094752300,13.550752197265625,-0.15197758376598358,1.1716017723083496,1.4234857559204102
1700852448111718400,13.567718505859375,-0.7001346945762634,1.9355521202087402,1.4756197929382324
1700852448128728300,13.584728271484375,-1.0108565092086792,2.3053746223449707,1.9162096977233887
1700852448145719000,13.601718994140626,-0.8325079083442688,2.6109747886657715,2.159080982208252
1700852448162706400,13.61870654296875,-0.5427423715591431,2.7658605575561523,2.3075003623962402
1700852448179714600,13.635714599609376,-0.21125739812850952,3.0173654556274414,2.7905683517456055
1700852448196692700,13.652692626953124,-0.11376452445983887,3.377403736114502,3.954984664916992
1700852448213673500,13.669673583984375,-0.5016513466835022,3.722644329071045,5.358027935028076
1700852448230675200,13.68667529296875,-1.381508469581604,4.019732475280762,6.356131076812744
1700852448247663600,13.70366357421875,-3.167234182357788,3.7798523902893066,6.872817516326904
1700852448264660200,13.72066015625,-4.073143005371094,3.4527688026428223,7.6517229080200195
1700852448281649000,13.73764892578125,-4.211935997009277,3.5859265327453613,8.377655029296875
1700852448298640000,13.754639892578124,-4.192903995513916,3.7949929237365723,9.811320304870605
1700852448315631400,13.77163134765625,-3.8435864448547363,4.260615348815918,11.361183166503906
1700852448332618500,13.788618408203124,-3.9479820728302,4.6660637855529785,12.151455879211426
1700852448349613600,13.805613525390624,-4.199085712432861,4.8792524337768555,11.727779388427734
1700852448366604800,13.822604736328126,-4.174776077270508,4.685649871826172,10.78292465209961
1700852448383591700,13.839591796875,-3.5309131145477295,4.500133991241455,9.656614303588867
1700852448400591600,13.856591552734375,-2.889010429382324,3.3502140045166016,9.348043441772461
1700852448417568000,13.873568115234375,-2.45749831199646,2.2817158699035645,8.908660888671875
1700852448434569700,13.89056982421875,-2.1913394927978516,1.6672992706298828,8.340129852294922
1700852448451550200,13.90755029296875,-1.8808140754699707,1.4655661582946777,8.09066390991211
1700852448468552200,13.92455224609375,-1.3904117345809937,1.4591326713562012,7.873438358306885
1700852448485543400,13.94154345703125,-0.6873356699943542,1.3919920921325684,7.3624372482299805
1700852448502534400,13.958534423828125,0.08410584926605225,0.8021588325500488,7.02158260345459
1700852448519526000,13.97552587890625,1.0672975778579712,-0.48392629623413086,7.382240295410156
1700852448536517000,13.99251708984375,1.927699089050293,-1.7403926849365234,7.576284408569336
1700852448553508000,14.009508056640625,1.9840553998947144,-2.8580322265625,7.260739803314209
1700852448570499300,14.026499267578124,1.7875158786773682,-3.3452463150024414,6.460309982299805
1700852448587488000,14.043488037109375,1.857008695602417,-3.2205963134765625,5.1748785972595215
1700852448604475400,14.060475341796876,2.3180525302886963,-2.7543468475341797,3.850482940673828
1700852448621468000,14.077468017578125,2.7037956714630127,-2.311886787414551,2.6217803955078125
1700852448638453800,14.094453857421875,2.691633701324463,-1.9543099403381348,1.158085823059082
1700852448655447000,14.111447021484375,2.6834349632263184,-1.6566567420959473,-0.2800750732421875
1700852448672435500,14.128435546875,2.5421087741851807,-1.4370956420898438,-1.3349804878234863
1700852448689431300,14.145431396484375,2.425398111343384,-1.271052598953247,-2.2825374603271484
1700852448706420700,14.162420654296875,2.3952479362487793,-1.2940194606781006,-2.8815479278564453
1700852448723410700,14.17941064453125,2.6153218746185303,-1.4219279289245605,-3.5007834434509277
1700852448740408800,14.196408935546875,2.9428534507751465,-1.7146117687225342,-3.9894680976867676
1700852448757393000,14.213392822265625,3.4765734672546387,-2.0201327800750732,-4.231454849243164
1700852448774384000,14.230384033203125,3.764315605163574,-2.2999370098114014,-4.600186824798584
1700852448791381000,14.247381103515625,3.8453447818756104,-2.4355103969573975,-5.009535789489746
1700852448808364800,14.26436474609375,3.6313796043395996,-2.7306723594665527,-5.107871055603027
1700852448825361000,14.28136083984375,3.594252347946167,-2.947218894958496,-5.125422477722168
1700852448842349600,14.298349609375,3.8408617973327637,-3.286370038986206,-5.0339035987854
1700852448859338200,14.315338134765625,4.330148220062256,-3.638914108276367,-4.800479888916016
1700852448876343800,14.33234375,4.580182075500488,-4.168842792510986,-4.5965094566345215
1700852448893321700,14.34932177734375,4.534151077270508,-4.712491035461426,-4.534121036529541
1700852448910323700,14.36632373046875,4.416677474975586,-5.096099853515625,-4.524233818054199
1700852448927312000,14.383311767578125,4.357560157775879,-5.259980201721191,-4.234257698059082
1700852448944308500,14.40030859375,4.2222466468811035,-5.787469863891602,-3.38620662689209
1700852448961297000,14.417296875,3.7975988388061523,-6.501269817352295,-2.4068517684936523
1700852448978288000,14.4342880859375,3.0851917266845703,-6.500738620758057,-2.722006320953369
1700852448995279400,14.451279296875,2.7023069858551025,-6.2779622077941895,-3.1434407234191895
1700852449012270600,14.4682705078125,2.3882088661193848,-6.397441864013672,-2.898651599884033
1700852449029262000,14.485261962890625,2.2375245094299316,-6.736045837402344,-2.0914530754089355
1700852449046253300,14.50225341796875,2.270531177520752,-6.405221462249756,-1.0357723236083984
1700852449063244500,14.51924462890625,1.2921260595321655,-6.149758338928223,0.1392955780029297
1700852449080235300,14.5362353515625,-0.03395521640777588,-5.589362621307373,1.0048818588256836
1700852449097226500,14.5532265625,-1.10252046585083,-4.900633335113525,1.2656383514404297
1700852449114218000,14.570218017578124,-1.4244904518127441,-4.413158416748047,1.377028465270996
1700852449131209000,14.587208984375,-0.8103859424591064,-4.039127349853516,1.6704988479614258
1700852449148200400,14.604200439453125,0.16052353382110596,-3.457418918609619,1.807206153869629
1700852449165189400,14.621189453125,0.9323539137840271,-2.467355728149414,2.0117053985595703
1700852449182174500,14.638174560546876,1.0635584592819214,-1.142014503479004,2.145751953125
1700852449199174400,14.65517431640625,0.6661475300788879,0.061242103576660156,2.3000545501708984
1700852449216165400,14.672165283203125,-0.025522351264953613,1.1115460395812988,2.601421356201172
1700852449233141800,14.689141845703125,-0.8324965834617615,1.9553546905517578,2.9681549072265625
1700852449250151700,14.706151611328124,-1.7621831893920898,2.3894286155700684,3.503438949584961
1700852449267138600,14.723138671875,-2.078096389770508,2.8807125091552734,4.204927444458008
1700852449284115500,14.740115478515625,-2.3769993782043457,3.0768446922302246,5.062568187713623
1700852449301121300,14.757121337890625,-2.314197540283203,3.3802237510681152,5.7873663902282715
1700852449318112500,14.774112548828125,-2.290323257446289,3.7546749114990234,6.108394145965576
1700852449335103500,14.791103515625,-2.306236505508423,4.038440704345703,6.2632927894592285
1700852449352094500,14.808094482421875,-2.263944149017334,4.175650596618652,6.503404140472412
1700852449369090000,14.825090087890626,-1.7536399364471436,4.308532238006592,6.999179840087891
1700852449386077200,14.8420771484375,-1.0581645965576172,4.3072967529296875,7.368062496185303
1700852449403059200,14.85905908203125,-0.24485139548778534,4.375298023223877,7.836227893829346
1700852449420059600,14.8760595703125,0.35719066858291626,4.843226432800293,8.304647445678711
1700852449437050600,14.893050537109374,0.43592724204063416,5.560263633728027,8.633560180664062
1700852449454041900,14.910041748046876,-0.4577617347240448,5.6778364181518555,9.216842651367188
1700852449471022800,14.92702294921875,-1.3807525634765625,6.058588981628418,9.024600982666016
1700852449488024600,14.944024658203125,-1.882341980934143,6.264292240142822,8.537793159484863
1700852449505015600,14.961015625,-1.6201848983764648,5.815714359283447,8.636771202087402
1700852449522006800,14.9780068359375,-0.7017345428466797,4.722243309020996,9.039215087890625
1700852449538998000,14.994998046875,0.07433626800775528,3.9291739463806152,8.771989822387695
1700852449555989200,15.0119892578125,0.30482223629951477,3.2549095153808594,8.663853645324707
1700852449572980200,15.028980224609375,0.16129714250564575,2.7197227478027344,8.619982719421387
1700852449589971700,15.0459716796875,0.2753449082374573,2.3523168563842773,8.615839004516602
1700852449606962400,15.06296240234375,0.49916309118270874,1.78118896484375,8.502613067626953
1700852449623943200,15.079943115234375,0.6690080165863037,0.7480144500732422,8.190038681030273
1700852449640945400,15.0969453125,0.9975398182868958,-0.47904443740844727,7.797198295593262
1700852449657936100,15.11393603515625,1.2059515714645386,-1.7676219940185547,7.332133769989014
1700852449674911700,15.130911865234374,1.573509931564331,-2.735689163208008,7.042043685913086
1700852449691912000,15.147911865234375,1.5122013092041016,-3.242353916168213,6.474360466003418
1700852449708907300,15.1649072265625,1.4139187335968018,-3.279196262359619,5.438638687133789
1700852449725903600,15.181903564453124,1.5813192129135132,-3.0363240242004395,4.201207160949707
1700852449742889500,15.198889404296875,1.8677481412887573,-2.914217948913574,2.7056846618652344
1700852449759886000,15.215885986328125,2.1249208450317383,-3.039475440979004,1.392308235168457
1700852449776874800,15.232874755859376,2.1956229209899902,-3.171248435974121,0.1035757064819336
1700852449793865700,15.24986572265625,1.9752066135406494,-3.103912591934204,-1.06036376953125
1700852449810852600,15.2668525390625,1.6827644109725952,-3.0184998512268066,-2.0417256355285645
1700852449827852800,15.283852783203125,1.384286642074585,-2.947481870651245,-3.2202062606811523
1700852449844842800,15.3008427734375,1.4633593559265137,-2.7948403358459473,-4.39519739151001
1700852449861825500,15.317825439453125,1.7482751607894897,-2.8555116653442383,-5.228090286254883
1700852449878823700,15.33482373046875,2.05957293510437,-3.033884048461914,-5.884777069091797
1700852449895813000,15.351813232421875,2.148622512817383,-3.160789728164673,-6.443096160888672
1700852449912804400,15.368804443359375,1.9845577478408813,-3.3347296714782715,-6.882613182067871
1700852449929795300,15.38579541015625,1.9157836437225342,-3.3941140174865723,-6.940577507019043
1700852449946786600,15.40278662109375,2.051243782043457,-3.3897156715393066,-6.691187858581543
1700852449963777800,15.41977783203125,2.210789203643799,-3.2956974506378174,-6.4749555587768555
1700852449980769000,15.43676904296875,2.4521031379699707,-3.5619614124298096,-5.7797722816467285
1700852449997760000,15.453760009765626,2.7350943088531494,-4.056262016296387,-4.977560520172119
1700852450014737400,15.4707373046875,2.7854220867156982,-4.413819313049316,-4.301591396331787
1700852450031735000,15.487735107421875,2.8370859622955322,-4.6631269454956055,-3.7963461875915527
1700852450048722400,15.504722412109375,3.1080377101898193,-4.928214073181152,-3.175985336303711
1700852450065725700,15.5217255859375,3.7913548946380615,-5.2467942237854,-2.2284512519836426
1700852450082716000,15.5387158203125,3.8754069805145264,-5.524562835693359,-1.6155662536621094
1700852450099707100,15.55570703125,3.1497840881347656,-5.202552318572998,-1.8277673721313477
1700852450116698400,15.572698486328125,2.5567307472229004,-4.920849800109863,-1.8060846328735352
1700852450133696300,15.5896962890625,1.9370369911193848,-5.4800214767456055,-1.2113819122314453
1700852450150680800,15.606680908203124,1.6645373106002808,-6.046968936920166,-0.28295040130615234
1700852450167669200,15.623669189453125,1.5211923122406006,-5.799460411071777,0.15029048919677734
1700852450184665900,15.640665771484375,0.7711037397384644,-5.561460494995117,0.4915494918823242
1700852450201655000,15.657655029296874,-0.11660254001617432,-5.190354347229004,0.8029575347900391
1700852450218644700,15.674644775390625,-0.5186623334884644,-5.0185136795043945,1.3401222229003906
1700852450235636700,15.69163671875,-0.06787759065628052,-4.915004730224609,1.9159307479858398
1700852450252628000,15.7086279296875,0.8099045157432556,-4.583294868469238,2.346133232116699
1700852450269619000,15.725618896484375,1.5989214181900024,-3.546614646911621,1.8767995834350586
1700852450286610400,15.7426103515625,1.7359471321105957,-2.1512227058410645,1.1469297409057617
1700852450303601400,15.759601318359374,1.4996566772460938,-0.889498233795166,0.8298006057739258
1700852450320592600,15.776592529296876,1.0378590822219849,0.2108173370361328,0.8034429550170898
1700852450337581300,15.793581298828125,0.6956896781921387,1.0460948944091797,1.1458334922790527
1700852450354577700,15.81057763671875,0.19116425514221191,1.6803593635559082,1.5099420547485352
1700852450371557400,15.827557373046876,-0.4061813950538635,2.197965145111084,1.7687969207763672
1700852450388555000,15.844554931640625,-1.0896021127700806,2.4568023681640625,2.187755584716797
1700852450405550800,15.86155078125,-1.4533828496932983,2.8119001388549805,2.5567851066589355
1700852450422539800,15.878539794921876,-1.6638542413711548,3.1556053161621094,3.206319808959961
1700852450439528400,15.895528564453125,-1.900497555732727,3.5898680686950684,3.997526168823242
1700852450456524500,15.912524658203125,-2.071798324584961,3.7211050987243652,5.067041873931885
1700852450473513200,15.92951318359375,-2.1522369384765625,3.746020793914795,6.112882614135742
1700852450490504400,15.94650439453125,-2.1579079627990723,3.864553928375244,6.816427230834961
1700852450507493000,15.9634931640625,-2.035614252090454,3.9733614921569824,7.685756683349609
1700852450524480800,15.980480712890625,-1.5717735290527344,4.370006084442139,8.557989120483398
1700852450541478100,15.99747802734375,-1.2153669595718384,4.9228901863098145,9.754020690917969
1700852450558458400,16.014458251953126,-1.1119822263717651,5.593881130218506,10.528759002685547
1700852450575455500,16.03145556640625,-1.3000056743621826,5.944169998168945,11.032634735107422
1700852450592451000,16.048451171875,-1.135331392288208,6.006136894226074,10.67286205291748
1700852450609443300,16.065443359375,-0.6551434397697449,5.993027687072754,9.423954010009766
1700852450626434000,16.08243408203125,-0.0015859901905059814,5.3776702880859375,8.69462776184082
1700852450643414500,16.09941455078125,0.5325527787208557,4.333283424377441,8.803932189941406
1700852450660416300,16.116416259765625,0.43042051792144775,3.6102852821350098,8.858692169189453
1700852450677400000,16.133400146484377,-0.2996944189071655,3.301909923553467,8.673992156982422
1700852450694388500,16.150388427734374,-1.061089038848877,3.059847354888916,8.419260025024414
1700852450711381000,16.167381103515623,-0.9052041172981262,2.954897403717041,8.244928359985352
1700852450728371000,16.184370849609376,-0.3263869285583496,2.3083014488220215,8.624551773071289
1700852450745363500,16.201363525390626,-0.05945843458175659,1.2737092971801758,8.96456527709961
1700852450762352600,16.2183525390625,0.0036556124687194824,0.23337125778198242,8.704845428466797
1700852450779343400,16.23534326171875,0.48725757002830505,-1.191549301147461,8.59047794342041
1700852450796337700,16.252337646484374,0.9982596039772034,-3.157021999359131,9.626668930053711
1700852450813327000,16.2693271484375,1.0318413972854614,-3.33846378326416,8.565264701843262
1700852450830319600,16.286319580078125,1.07660973072052,-2.720564842224121,6.7684855461120605
1700852450847319000,16.303319091796876,1.7853461503982544,-1.898688793182373,4.833474159240723
1700852450864313000,16.32031298828125,2.7308337688446045,-1.59092378616333,3.137209892272949
1700852450881301500,16.337301513671875,3.5450279712677,-1.9403281211853027,1.6598091125488281
1700852450898292700,16.354292724609376,4.025968074798584,-2.375298023223877,0.11623668670654297
1700852450915284000,16.371283935546874,4.027936935424805,-2.720104217529297,-1.4627227783203125
1700852450932275000,16.38827490234375,3.880159616470337,-2.851855754852295,-2.822446346282959
1700852450949266400,16.405266357421876,3.5885043144226074,-2.8059964179992676,-3.758167266845703
1700852450966257400,16.42225732421875,3.0990328788757324,-2.743834972381592,-4.424751281738281
1700852450983248100,16.439248046875,2.7963037490844727,-2.692702054977417,-4.599238395690918
1700852451000240400,16.456240478515625,2.61871600151062,-2.62528657913208,-4.975605487823486
1700852451017230300,16.473230224609374,2.5421366691589355,-2.7686266899108887,-5.378742218017578
1700852451034222000,16.49022216796875,2.6653923988342285,-3.0150413513183594,-5.5946502685546875
1700852451051199200,16.50719921875,2.908674716949463,-3.305973529815674,-5.615008354187012
1700852451068204500,16.52420458984375,3.020005226135254,-3.6193695068359375,-5.529184341430664
1700852451085195800,16.54119580078125,3.1171321868896484,-3.9317774772644043,-5.223272800445557
1700852451102186800,16.558186767578125,3.1695523262023926,-4.383499622344971,-4.814258098602295
1700852451119178000,16.575177978515626,3.4516654014587402,-4.865110874176025,-4.2044758796691895
1700852451136169200,16.592169189453124,3.5379300117492676,-5.321138381958008,-3.9844861030578613
1700852451153149700,16.609149658203126,3.684086322784424,-5.439033508300781,-4.083798408508301
1700852451170151200,16.626151123046874,4.059222221374512,-5.471469402313232,-3.6549901962280273
1700852451187142700,16.643142578125,4.359854698181152,-5.781069755554199,-2.6536827087402344
1700852451204133600,16.660133544921877,3.695713996887207,-6.135967254638672,-2.0072708129882812
1700852451221124900,16.677124755859374,2.888049364089966,-5.909908294677734,-2.6250715255737305
1700852451238116400,16.694116455078124,2.2561569213867188,-5.947700023651123,-3.0220913887023926
1700852451255107600,16.711107666015625,1.8669097423553467,-6.252723693847656,-2.8401942253112793
1700852451272098300,16.728098388671874,1.5024731159210205,-6.422122478485107,-1.978757381439209
1700852451289087000,16.7450869140625,0.5746392011642456,-6.1750922203063965,-1.0447330474853516
1700852451306083600,16.76208349609375,-0.43171894550323486,-5.883229732513428,-0.024293899536132812
1700852451323072000,16.779072021484374,-1.356466293334961,-5.675559997558594,0.9537162780761719
1700852451340063200,16.796063232421876,-1.4905802011489868,-5.553243637084961,1.7986125946044922
1700852451357054500,16.813054443359373,-1.0505571365356445,-5.421573638916016,2.2102575302124023
1700852451374046700,16.830046630859375,0.013061285018920898,-5.0410685539245605,2.4148712158203125
1700852451391035400,16.847035400390624,1.077156662940979,-4.151002407073975,2.4615039825439453
1700852451408027600,16.864027587890625,1.220319151878357,-2.5905776023864746,2.2443695068359375
1700852451425018600,16.8810185546875,0.8887966871261597,-0.9511318206787109,2.106633186340332
1700852451442010000,16.898010009765624,0.3297610282897949,0.45737743377685547,2.0292186737060547
1700852451459001300,16.91500146484375,-0.2818948030471802,1.5348176956176758,1.9378795623779297
1700852451475992600,16.93199267578125,-0.6572788953781128,2.302676200866699,1.949094295501709
1700852451492980200,16.948980224609375,-0.5619282126426697,2.6970338821411133,2.2544283866882324
1700852451509975000,16.96597509765625,-0.5733470320701599,3.0184121131896973,2.5927467346191406
1700852451526966000,16.982966064453127,-0.8326686024665833,3.1335272789001465,3.260843276977539
1700852451543957000,16.99995703125,-1.5091931819915771,3.312702178955078,3.9545369148254395
1700852451560937700,17.016937744140623,-2.357743263244629,3.4868760108947754,4.70876407623291
1700852451577939700,17.033939697265627,-3.25588321685791,3.7170920372009277,5.506289958953857
1700852451594930700,17.0509306640625,-4.117098808288574,3.723508358001709,6.470532417297363
1700852451611911200,17.0679111328125,-4.810122013092041,3.704042911529541,7.392925262451172
1700852451628910300,17.084910400390626,-4.9273762702941895,3.9597415924072266,7.970521450042725
1700852451645902000,17.101902099609376,-4.849508285522461,4.310447692871094,8.480911254882812
1700852451662895400,17.118895263671874,-4.111038684844971,4.851570129394531,8.791394233703613
1700852451679886300,17.13588623046875,-2.8087737560272217,5.115054130554199,9.378046035766602
1700852451696877800,17.1528779296875,-1.7293376922607422,5.427403450012207,9.882895469665527
1700852451713867800,17.16986767578125,-1.3201242685317993,5.858094692230225,9.656431198120117
1700852451730860000,17.186860107421875,-1.5666203498840332,6.036271572113037,9.373631477355957
1700852451747851000,17.20385107421875,-1.3289552927017212,5.1753950119018555,9.869002342224121
1700852451764842200,17.22084228515625,-0.816483736038208,3.7062997817993164,10.192811965942383
1700852451781833500,17.23783349609375,-0.5150062441825867,2.731128215789795,10.076107025146484
1700852451798824700,17.25482470703125,-0.633376955986023,1.90248441696167,10.359945297241211
1700852451815815700,17.271815673828126,-1.0736398696899414,1.616316795349121,10.669976234436035
1700852451832796200,17.288796142578125,-1.3137727975845337,1.5741167068481445,10.744853973388672
1700852451849798100,17.305798095703125,-1.2192548513412476,1.0905308723449707,10.733606338500977
1700852451866786600,17.32278662109375,-0.7029574513435364,0.00244903564453125,10.416229248046875
1700852451883783000,17.339782958984376,0.02484869956970215,-1.6440000534057617,10.421195030212402
1700852451900771600,17.356771484375,0.6592066884040833,-3.1059818267822266,10.08289909362793
1700852451917762800,17.3737626953125,0.9832435250282288,-4.08356237411499,9.219931602478027
1700852451934753800,17.39075390625,1.2223769426345825,-4.4331374168396,7.601189136505127
1700852451951734300,17.407734375,1.687117099761963,-4.243861675262451,5.37522029876709
1700852451968735200,17.4247353515625,2.3344709873199463,-3.8890457153320312,3.1804027557373047
1700852451985728300,17.441728271484376,2.886075973510742,-3.7384610176086426,1.3440418243408203
1700852452002718700,17.45871875,3.066948175430298,-3.6463770866394043,-0.4939994812011719
1700852452019709700,17.475709716796874,3.0933847427368164,-3.4899511337280273,-2.1928911209106445
1700852452036701000,17.492700927734376,2.816180467605591,-3.35634183883667,-3.6271839141845703
1700852452053692000,17.50969189453125,2.4300222396850586,-3.232010841369629,-4.587765693664551
1700852452070679800,17.5266796875,2.086671829223633,-3.2370779514312744,-5.325716018676758
1700852452087661600,17.54366162109375,1.8338603973388672,-3.2910385131835938,-6.044964790344238
1700852452104658000,17.560657958984375,2.0404560565948486,-3.3735733032226562,-6.578033447265625
1700852452121650200,17.577650146484373,2.604647159576416,-3.3797361850738525,-6.8050055503845215
1700852452138640000,17.594639892578126,3.153414249420166,-3.4525275230407715,-6.604200839996338
1700852452155631600,17.611631591796876,3.5915050506591797,-3.537135601043701,-6.385480880737305
1700852452172619800,17.628619873046876,3.8768467903137207,-3.5959272384643555,-6.234423637390137
1700852452189613000,17.645613037109374,4.024163722991943,-3.6456193923950195,-5.989518642425537
1700852452206604300,17.662604248046875,3.8822364807128906,-3.81010365486145,-5.764045715332031
1700852452223596000,17.679595947265625,3.6371541023254395,-4.11436653137207,-5.347847938537598
1700852452240585700,17.696585693359374,3.560044288635254,-4.571243762969971,-4.7004475593566895
1700852452257576400,17.713576416015623,3.545698642730713,-4.998584270477295,-4.635695934295654
1700852452274569700,17.73056982421875,4.029205322265625,-5.272914886474609,-4.777281761169434
1700852452291560000,17.747559814453126,4.654031753540039,-5.578495025634766,-4.495028972625732
1700852452308559000,17.76455908203125,4.7611083984375,-6.173770904541016,-3.5000815391540527
1700852452325542400,17.78154248046875,4.2321553230285645,-6.110956192016602,-3.093440055847168
1700852452342541600,17.79854150390625,3.4354543685913086,-6.230950355529785,-2.718621253967285
1700852452359530200,17.8155302734375,2.555988311767578,-6.453737258911133,-2.3569846153259277
1700852452376526300,17.8325263671875,2.151965379714966,-6.540667533874512,-1.8532333374023438
1700852452393511000,17.849510986328124,2.4453580379486084,-6.2978668212890625,-0.9451122283935547
1700852452410507800,17.8665078125,2.599153757095337,-6.069340229034424,0.5669898986816406
1700852452427497200,17.883497314453123,2.1154778003692627,-5.684323310852051,1.9112329483032227
1700852452444491300,17.9004912109375,1.1443586349487305,-5.351716041564941,3.0771617889404297
1700852452461479400,17.9174794921875,0.28210675716400146,-4.933899879455566,3.8283309936523438
1700852452478470700,17.934470703125,0.23824462294578552,-4.2598347663879395,4.231061935424805
1700852452495462000,17.9514619140625,0.8555570840835571,-3.115983486175537,4.382931709289551
1700852452512452900,17.968452880859374,0.9625911712646484,-1.5142645835876465,3.728663444519043
1700852452529441300,17.985441162109375,0.3575262427330017,-0.04835844039916992,3.00295352935791
1700852452546436900,18.002436767578125,-0.3259361982345581,1.288815975189209,2.5960779190063477
1700852452563428400,18.019428466796874,-0.9965128302574158,2.3350696563720703,2.391287326812744
1700852452580417800,18.036417724609375,-1.69019615650177,2.9563441276550293,2.625552177429199
1700852452597408800,18.05340869140625,-2.1848459243774414,3.3189127445220947,3.002840042114258
1700852452614400000,18.07039990234375,-2.2307116985321045,3.469594955444336,3.110503673553467
1700852452631391200,18.08739111328125,-1.6793909072875977,3.4296212196350098,3.2653613090515137
1700852452648382500,18.104382568359377,-1.074049949645996,3.532904624938965,4.116383075714111
1700852452665373400,18.12137353515625,-1.4751691818237305,3.819766044616699,5.293080806732178
1700852452682362000,18.138362060546875,-2.7524383068084717,4.196369647979736,6.0262370109558105
1700852452699358500,18.1553583984375,-3.607513904571533,4.338503837585449,6.49888277053833
1700852452716347000,18.172346923828126,-3.6223883628845215,4.332804203033447,6.999640464782715
1700852452733338000,18.189338134765624,-3.049071788787842,4.268343448638916,7.69696569442749
1700852452750329300,18.206329345703125,-2.6722519397735596,4.364750385284424,8.261835098266602
1700852452767317500,18.2233173828125,-2.486682891845703,4.629824638366699,8.608939170837402
1700852452784310300,18.240310302734375,-2.2402472496032715,4.920247554779053,8.894172668457031
1700852452801295000,18.257295166015624,-1.828635811805725,5.190051078796387,9.135123252868652
1700852452818294000,18.2742939453125,-1.6128692626953125,5.324393272399902,9.29446029663086
1700852452835285000,18.291284912109376,-1.7975339889526367,5.26219367980957,9.410957336425781
1700852452852276000,18.30827587890625,-2.013432502746582,4.400224208831787,9.936885833740234
1700852452869278000,18.32527783203125,-2.0691328048706055,3.3141555786132812,10.098337173461914
1700852452886258700,18.3422587890625,-1.688145637512207,2.734987735748291,9.975637435913086
1700852452903249700,18.359249755859373,-1.5580967664718628,2.2270727157592773,10.28204345703125
1700852452920240400,18.376240478515626,-1.5874288082122803,1.89268159866333,10.331853866577148
1700852452937231600,18.393231689453124,-1.3553953170776367,1.3360657691955566,10.243620872497559
1700852452954222800,18.410222900390625,-0.9252792000770569,0.38242053985595703,9.990026473999023
1700852452971214000,18.427214111328126,-0.17761027812957764,-0.8897485733032227,9.631521224975586
1700852452988204300,18.444204345703124,0.6731048822402954,-2.2464756965637207,9.307123184204102
1700852453005197300,18.461197265625,1.4338927268981934,-3.346660614013672,8.655937194824219
1700852453022187800,18.478187744140627,1.9805455207824707,-4.021760940551758,7.635229587554932
1700852453039178800,18.4951787109375,2.3942818641662598,-4.0518951416015625,5.951695919036865
1700852453056170000,18.512169921875,2.8612112998962402,-3.5559606552124023,4.001211166381836
1700852453073150200,18.529150146484376,3.1438746452331543,-2.951875686645508,2.020008087158203
1700852453090152000,18.54615185546875,3.268592357635498,-2.408583641052246,0.23342323303222656
1700852453107139000,18.56313916015625,3.163019895553589,-2.040891170501709,-1.141770839691162
1700852453124134100,18.580134033203127,2.9479215145111084,-1.8809857368469238,-2.182276725769043
1700852453141133300,18.59713330078125,2.612205743789673,-1.8754711151123047,-3.019409656524658
1700852453158116600,18.61411669921875,2.422349452972412,-1.9288549423217773,-3.861593723297119
1700852453175107800,18.63110791015625,2.4476499557495117,-1.905109167098999,-4.77475643157959
1700852453192096800,18.6480966796875,2.5783729553222656,-1.8450744152069092,-5.519792079925537
1700852453209082000,18.66508203125,2.682964324951172,-1.742753028869629,-5.92424201965332
1700852453226081000,18.6820810546875,2.571998119354248,-1.6544506549835205,-6.086112976074219
1700852453243072300,18.699072265625,2.4746694564819336,-1.6487114429473877,-6.097980499267578
1700852453260063500,18.7160634765625,2.442950487136841,-1.9224584102630615,-5.836745738983154
1700852453277052400,18.733052490234375,2.8775806427001953,-2.233567237854004,-5.463237762451172
1700852453294046000,18.7500458984375,3.366886854171753,-2.667834758758545,-5.215203285217285
1700852453311037000,18.767036865234374,4.058487892150879,-3.10764741897583,-5.102628707885742
1700852453328028200,18.784028076171875,4.5211920738220215,-3.6021337509155273,-4.834283351898193
1700852453345019100,18.80101904296875,4.79272985458374,-4.00998592376709,-4.377383232116699
1700852453362010400,18.81801025390625,4.747236728668213,-4.5347747802734375,-3.7014002799987793
1700852453379001300,18.83500146484375,4.9887495040893555,-4.790285587310791,-3.0720467567443848
1700852453395992800,18.851992919921877,5.160284042358398,-5.23021125793457,-2.6181907653808594
1700852453412990200,18.868990234375,4.838748931884766,-5.704768180847168,-2.1568408012390137
1700852453429972200,18.88597216796875,3.987783193588257,-5.546145915985107,-2.5850272178649902
1700852453446968600,18.902968505859373,3.505918025970459,-5.292893409729004,-2.6064581871032715
1700852453463957000,18.91995703125,3.0762217044830322,-5.70468807220459,-1.352524757385254
1700852453480948200,18.9369482421875,2.4972875118255615,-6.171045303344727,0.677311897277832
1700852453497939500,18.953939453125,1.033597469329834,-6.041839599609375,1.4322566986083984
1700852453514930400,18.970930419921874,-0.9837949275970459,-5.8591437339782715,0.9268617630004883
1700852453531911200,18.9879111328125,-2.295168399810791,-5.705354690551758,0.5696239471435547
1700852453548910000,19.00491015625,-2.213989019393921,-5.57127046585083,0.19477367401123047
1700852453565906700,19.02190673828125,-0.7469565868377686,-5.645747184753418,0.655970573425293
1700852453582894600,19.03889453125,0.9270430207252502,-5.28931188583374,1.0137691497802734
1700852453599887000,19.05588720703125,1.6225080490112305,-4.363577365875244,0.5888252258300781
1700852453616877600,19.072877685546874,1.5407392978668213,-3.1007590293884277,0.15407180786132812
1700852453633868500,19.08986865234375,1.0916919708251953,-1.74863862991333,0.2565755844116211
1700852453650867000,19.106866943359375,0.6141055822372437,-0.5470123291015625,0.9577350616455078
1700852453667851000,19.12385107421875,0.24913305044174194,0.541959285736084,1.910459041595459
1700852453684842000,19.140842041015624,-0.2627160847187042,1.348832130432129,2.6929969787597656
1700852453701833200,19.157833251953125,-0.800723671913147,2.02109432220459,3.2813587188720703
1700852453718824200,19.17482421875,-1.2111526727676392,2.5976991653442383,3.6989240646362305
1700852453735815400,19.1918154296875,-1.2145607471466064,3.0839486122131348,4.499685287475586
1700852453752795000,19.208794921875,-0.6139565110206604,3.6430306434631348,5.303207874298096
1700852453769799000,19.225798828125,-0.5004938244819641,4.467089653015137,5.767168045043945
1700852453786788900,19.242788818359376,-1.5205397605895996,4.930649757385254,6.05971622467041
1700852453803780000,19.259780029296873,-2.1632144451141357,4.8342390060424805,6.977974891662598
1700852453820771000,19.27677099609375,-1.9623233079910278,4.616191864013672,8.28877067565918
1700852453837762300,19.29376220703125,-1.207809329032898,4.490389823913574,9.606033325195312
1700852453854753300,19.310753173828125,-0.8597595691680908,4.791431427001953,10.248860359191895
1700852453871734000,19.327734130859376,-1.3242470026016235,5.246890068054199,10.219006538391113
1700852453888731600,19.344731689453123,-1.8931047916412354,5.559267044067383,10.120943069458008
1700852453905725000,19.361724853515625,-1.861177682876587,5.764568328857422,9.84979248046875
1700852453922720500,19.378720458984375,-1.4313335418701172,5.804289817810059,9.63265609741211
1700852453939709200,19.395709228515624,-0.8760178089141846,5.82683801651001,9.170344352722168
1700852453956700200,19.4127001953125,-0.5534543395042419,5.106956481933594,9.153162956237793
1700852453973691100,19.429691162109375,-0.22912126779556274,3.748833179473877,9.834948539733887
1700852453990681000,19.44668115234375,-0.046087704598903656,3.3301472663879395,9.779141426086426
1700852454007672000,19.463672119140625,-0.3701697289943695,2.9063096046447754,10.082822799682617
1700852454024664600,19.48066455078125,-0.7279075980186462,2.35219669342041,10.674596786499023
1700852454041652200,19.49765234375,-0.42714524269104004,1.797591209411621,10.925557136535645
1700852454058649600,19.514649658203126,0.03159250319004059,1.4106173515319824,10.628290176391602
1700852454075637000,19.531636962890627,0.5567440390586853,0.9737730026245117,10.109703063964844
1700852454092625400,19.54862548828125,0.8588307499885559,-0.08391380310058594,9.833291053771973
1700852454109620200,19.5656201171875,1.2699055671691895,-1.5181021690368652,9.502579689025879
1700852454126611500,19.582611572265623,1.8439345359802246,-2.7799086570739746,8.726310729980469
1700852454143599900,19.599599853515624,2.5751657485961914,-3.879185676574707,7.848337173461914
1700852454160585700,19.616585693359376,2.8896002769470215,-4.054383277893066,6.178240776062012
1700852454177585000,19.6335849609375,2.9448001384735107,-3.624734401702881,4.131750106811523
1700852454194563600,19.6505634765625,2.7800328731536865,-3.137519359588623,2.373432159423828
1700852454211556400,19.667556396484375,2.524838447570801,-2.8108391761779785,0.8817071914672852
1700852454228550400,19.68455029296875,2.2243735790252686,-2.8747687339782715,-0.3583517074584961
1700852454245541600,19.701541748046875,2.37644624710083,-2.9259414672851562,-1.6039109230041504
1700852454262532400,19.718532470703124,2.6100449562072754,-2.992650270462036,-2.8327770233154297
1700852454279522800,19.735522705078125,2.857325315475464,-2.9158294200897217,-3.9597439765930176
1700852454296509400,19.752509521484374,2.896017074584961,-2.9120352268218994,-4.883252143859863
1700852454313504500,19.76950439453125,2.6437900066375732,-2.880505323410034,-5.635006904602051
1700852454330496500,19.78649658203125,2.4375722408294678,-2.9407691955566406,-6.024447441101074
1700852454347495700,19.80349560546875,2.238415241241455,-3.0969786643981934,-6.015871047973633
1700852454364501500,19.82050146484375,2.3348026275634766,-3.0544729232788086,-6.026629447937012
1700852454381478400,19.837478515625,2.4176735877990723,-2.9364428520202637,-6.219127655029297
1700852454398469400,19.854469482421877,2.6445152759552,-3.0249099731445312,-6.102694034576416
1700852454415460600,19.871460693359374,2.9757041931152344,-3.224644422531128,-5.768024444580078
1700852454432451600,19.88845166015625,3.189236640930176,-3.5026466846466064,-5.16903018951416
1700852454449443000,19.905443115234377,3.144160270690918,-3.744370937347412,-4.543247699737549
1700852454466423300,19.92242333984375,3.212766647338867,-3.9299488067626953,-3.9636898040771484
1700852454483424800,19.9394248046875,3.3444981575012207,-4.297150611877441,-3.4123191833496094
1700852454500416000,19.956416015625,3.684000015258789,-4.596446514129639,-3.210489273071289
1700852454517407500,19.973407470703126,4.139686584472656,-4.911725997924805,-2.844210624694824
1700852454534387700,19.9903876953125,4.359072208404541,-5.38739538192749,-1.9894061088562012
1700852454551389400,20.007389404296877,3.616392135620117,-5.430882930755615,-1.7763886451721191
1700852454568381000,20.024380859375,2.912503719329834,-5.51052188873291,-1.7181963920593262
1700852454585371600,20.04137158203125,2.7223775386810303,-5.980728626251221,-1.2829275131225586
1700852454602363000,20.05836279296875,2.8211770057678223,-6.385626316070557,-0.8261537551879883
1700852454619351600,20.0753515625,2.7011852264404297,-6.3536882400512695,-0.6573495864868164
1700852454636347100,20.09234716796875,2.158393144607544,-6.010798454284668,-0.0861215591430664
1700852454653337000,20.109337158203125,1.4459964036941528,-5.481589317321777,1.1492424011230469
1700852454670327300,20.126327392578126,0.7884348630905151,-4.934225082397461,2.282233238220215
1700852454687315700,20.143315673828123,0.39457714557647705,-4.3848066329956055,2.6526613235473633
1700852454704312300,20.160312255859374,0.1606079339981079,-4.053921222686768,2.3201217651367188
1700852454721300700,20.17730078125,0.56070876121521,-3.544126033782959,1.608001708984375
1700852454738289000,20.194288818359375,1.0116729736328125,-2.559436321258545,0.8854656219482422
1700852454755286300,20.211286376953126,0.888116717338562,-1.2863664627075195,0.4675483703613281
1700852454772274200,20.228274169921875,0.2603205442428589,0.03323221206665039,0.27321624755859375
1700852454789265200,20.24526513671875,-0.5176674127578735,1.1033415794372559,0.3404121398925781
1700852454806256400,20.26225634765625,-1.090914249420166,1.777890682220459,0.6189079284667969
1700852454823247600,20.27924755859375,-1.1019635200500488,2.2246341705322266,0.9224104881286621
1700852454840237800,20.29623779296875,-0.9053959250450134,2.4110488891601562,1.3778681755065918
1700852454857230600,20.313230712890626,-0.9318691492080688,2.5876951217651367,2.0082998275756836
1700852454874220800,20.330220703125,-1.298828363418579,3.0391268730163574,2.774662971496582
1700852454891212300,20.34721240234375,-1.9446227550506592,3.896477699279785,3.388354778289795
1700852454908203300,20.364203369140625,-2.4668807983398438,4.23789644241333,4.861364364624023
1700852454925194000,20.381194091796875,-1.898317575454712,4.362791538238525,6.338611125946045
1700852454942185200,20.398185302734376,-1.1937379837036133,4.179728984832764,7.781777858734131
1700852454959176700,20.4151767578125,-0.862138032913208,4.269850730895996,8.449283599853516
1700852454976167700,20.432167724609375,-1.009878396987915,4.465615749359131,8.425219535827637
1700852454993148200,20.449148193359374,-1.2338228225708008,4.773682594299316,8.566868782043457
1700852455010141700,20.4661416015625,-1.4623405933380127,5.045825958251953,9.178403854370117
1700852455027141000,20.48314111328125,-1.6602778434753418,5.460354804992676,9.773269653320312
1700852455044132400,20.50013232421875,-2.1282966136932373,5.79499626159668,10.038211822509766
1700852455061123000,20.517123046875,-2.177734613418579,6.142460823059082,9.633137702941895
1700852455078103800,20.534103759765625,-1.8259446620941162,6.409370422363281,8.926736831665039
1700852455095101700,20.551101806640624,-1.5659825801849365,6.4566473960876465,8.390077590942383
1700852455112096500,20.568096435546874,-1.4562876224517822,5.6414055824279785,8.596715927124023
1700852455129087700,20.585087646484375,-1.2248642444610596,4.08278226852417,9.40260124206543
1700852455146076400,20.602076416015624,-0.8508917093276978,3.0656256675720215,9.808805465698242
1700852455163072500,20.619072509765626,-0.7377101182937622,2.3514628410339355,10.250965118408203
1700852455180061200,20.636061279296875,-0.8271573781967163,2.193913459777832,10.392159461975098
1700852455197052000,20.653052001953125,-0.7178723216056824,2.0725932121276855,10.380266189575195
1700852455214043400,20.67004345703125,-0.5995671153068542,1.479599952697754,10.070967674255371
1700852455231034600,20.68703466796875,-0.23128405213356018,0.34424686431884766,9.450288772583008
1700852455248025300,20.704025390625,0.44835352897644043,-1.146012783050537,8.820577621459961
1700852455265016600,20.7210166015625,1.3492125272750854,-2.706993579864502,8.633689880371094
1700852455282007800,20.7380078125,1.850386381149292,-3.5832977294921875,8.284313201904297
1700852455298999000,20.7549990234375,1.7124425172805786,-3.6032333374023438,7.038559436798096
1700852455315989800,20.77198974609375,1.5181622505187988,-3.2038636207580566,5.510286331176758
1700852455332980000,20.78897998046875,1.5403796434402466,-2.8143415451049805,3.8374948501586914
1700852455349972200,20.80597216796875,1.909322738647461,-2.731204032897949,2.221343994140625
1700852455366963500,20.82296337890625,2.432155132293701,-2.9382529258728027,0.7999677658081055
1700852455383954400,20.839954345703124,2.9354145526885986,-3.1663784980773926,-0.5548191070556641
1700852455400942800,20.85694287109375,3.237300395965576,-3.3844988346099854,-1.7675752639770508
1700852455417939200,20.873939208984375,3.3465662002563477,-3.4677047729492188,-3.0140585899353027
1700852455434927600,20.890927734375,3.187243938446045,-3.5904178619384766,-4.168171405792236
1700852455451908900,20.907908935546875,3.1733193397521973,-3.6158628463745117,-5.122066020965576
1700852455468907300,20.9249072265625,3.199951648712158,-3.627917766571045,-5.825927734375
1700852455485903600,20.941903564453124,3.1991629600524902,-3.6898581981658936,-6.214501857757568
1700852455502892500,20.958892578125,3.493703603744507,-3.636770725250244,-6.381046295166016
1700852455519883300,20.97588330078125,3.666407346725464,-3.675149440765381,-6.45932149887085
1700852455536874800,20.992874755859376,3.734555244445801,-3.7021849155426025,-6.431015968322754
1700852455553865500,21.009865478515625,3.7620067596435547,-3.846957206726074,-6.322826862335205
1700852455570856400,21.0268564453125,3.734945774078369,-4.040044784545898,-6.145047664642334
1700852455587836200,21.043836181640625,3.608259916305542,-4.546441555023193,-5.753896713256836
1700852455604834800,21.060834716796876,3.601409912109375,-5.005509853363037,-5.454298973083496
1700852455621824000,21.077823974609377,3.8089141845703125,-5.409151554107666,-5.1130757331848145
1700852455638815000,21.09481494140625,4.26350212097168,-5.570944309234619,-4.8440327644348145
1700852455655806500,21.111806396484376,4.7420454025268555,-5.666934967041016,-4.082930564880371
1700852455672798000,21.1287978515625,4.482155799865723,-6.2181525230407715,-3.002316951751709
1700852455689790000,21.1457900390625,3.183875560760498,-6.4637627601623535,-2.8105406761169434
1700852455706783000,21.162782958984376,2.1152725219726562,-6.308213710784912,-2.8367929458618164
1700852455723767600,21.179767578125,1.6315053701400757,-6.3820343017578125,-2.2114672660827637
1700852455740758300,21.19675830078125,1.4285058975219727,-6.5347771644592285,-0.8111705780029297
1700852455757749200,21.213749267578127,1.5855872631072998,-6.127073287963867,0.29424285888671875
1700852455774740700,21.23074072265625,1.4437212944030762,-5.929377555847168,1.2014970779418945
1700852455791731200,21.247731201171874,0.9597443342208862,-5.703214645385742,2.111021041870117
1700852455808722000,21.264721923828127,0.35426145792007446,-5.250033378601074,2.6951141357421875
1700852455825721900,21.281721923828126,-0.5113182067871094,-4.880157470703125,2.9506664276123047
1700852455842699000,21.298698974609376,-0.6416549682617188,-4.340326309204102,3.161707878112793
1700852455859695000,21.315695068359375,-0.32274138927459717,-3.536426544189453,3.137516975402832
1700852455876699000,21.332698974609375,-0.31038355827331543,-2.538846492767334,2.7972373962402344
1700852455893687600,21.3496875,-0.3338231146335602,-1.3180384635925293,2.327648162841797
1700852455910679000,21.366678955078125,-0.6215832829475403,-0.1466822624206543,2.1605987548828125
1700852455927667500,21.38366748046875,-0.9087069034576416,0.8257465362548828,2.1578264236450195
1700852455944663600,21.40066357421875,-1.0187194347381592,1.6422715187072754,2.300654888153076
1700852455961648000,21.417648193359376,-1.1737953424453735,2.114692211151123,2.515286445617676
1700852455978647300,21.434647216796876,-1.1026859283447266,2.5156402587890625,2.534575939178467
1700852455995634400,21.451634521484376,-1.0020018815994263,2.669219970703125,2.753347873687744
1700852456012625400,21.46862548828125,-0.6949284672737122,2.945923328399658,3.043811798095703
1700852456029616600,21.48561669921875,-0.618642270565033,3.2561044692993164,3.5505075454711914
1700852456046608000,21.50260791015625,-0.656359076499939,3.55112361907959,4.288882255554199
1700852456063599000,21.51959912109375,-0.9523797631263733,3.670543670654297,5.369231224060059
1700852456080590000,21.536590087890627,-1.4191083908081055,3.767181873321533,6.261813163757324
1700852456097581000,21.5535810546875,-1.9641687870025635,3.821193218231201,6.987442493438721
1700852456114569500,21.570569580078125,-2.230160713195801,3.897660732269287,7.787179470062256
1700852456131555300,21.587555419921873,-2.1528637409210205,4.223824977874756,8.824892044067383
1700852456148554500,21.604554443359376,-2.090850353240967,4.637693881988525,9.729950904846191
1700852456165545700,21.621545654296874,-1.8795011043548584,5.1786041259765625,10.251736640930176
1700852456182536700,21.63853662109375,-1.5221185684204102,5.487007141113281,10.492439270019531
1700852456199523000,21.655523193359375,-1.583139181137085,5.612147331237793,10.776588439941406
1700852456216523500,21.6725234375,-2.0530521869659424,5.827540397644043,10.863153457641602
1700852456233510000,21.689510009765623,-2.6851792335510254,5.943447113037109,10.758992195129395
1700852456250483700,21.706483642578124,-3.3201632499694824,5.173901557922363,10.934550285339355
1700852456267490600,21.723490478515625,-3.5747933387756348,4.052433490753174,10.538028717041016
