time,seconds_elapsed,z,y,x
1700852395761213000,0.125212890625,-0.22617340087890625,-0.43629980087280273,0.027130961418151855
1700852395778209000,0.142208984375,-0.17146873474121094,-0.5866880416870117,0.14751946926116943
1700852395795198000,0.159197998046875,-0.6109151840209961,-0.6497578620910645,0.439144492149353
1700852395812191200,0.176191162109375,-0.8827862739562988,-0.9021873474121094,0.7039601802825928
1700852395829171000,0.1931708984375,-0.6925244331359863,-1.0778346061706543,0.8778687715530396
1700852395846171400,0.21017138671875,-0.6814417839050293,-1.3376340866088867,0.5142623782157898
1700852395863168000,0.22716796875,-1.1326699256896973,-1.8403935432434082,-0.021364867687225342
1700852395880158200,0.244158203125,-1.845261573791504,-2.4044458866119385,-0.5135927796363831
1700852395897149000,0.26114892578125,-2.977583885192871,-2.8055779933929443,-0.6744800806045532
1700852395914139000,0.278138916015625,-4.887904167175293,-3.214060068130493,-0.356905460357666
1700852395931124200,0.295124267578125,-6.4160308837890625,-3.02779221534729,-0.2626972198486328
1700852395948124400,0.31212451171875,-6.964364528656006,-3.362730026245117,-0.6887848377227783
1700852395965126000,0.3291259765625,-5.216724395751953,-3.870699882507324,-1.4470298290252686
1700852395982110000,0.34610986328125,-1.962986946105957,-4.692218780517578,-1.9683431386947632
1700852395999106000,0.36310595703125,1.2701501846313477,-5.1550612449646,-2.139137029647827
1700852396016097800,0.380097900390625,0.6778464317321777,-4.716525554656982,-2.6178059577941895
1700852396033087700,0.397087646484375,-3.842611789703369,-4.8731279373168945,-3.0587868690490723
1700852396050079000,0.414078857421875,-6.337369918823242,-5.118874549865723,-2.8201487064361572
1700852396067076900,0.431076904296875,-4.2641425132751465,-5.600191593170166,-2.036996364593506
1700852396084059400,0.448059326171875,0.29147958755493164,-6.141062259674072,-0.3353595733642578
1700852396101048000,0.465048095703125,2.657984972000122,-6.017005443572998,1.7621698379516602
1700852396118052400,0.48205224609375,1.7264201641082764,-5.739963054656982,3.106159210205078
1700852396135037400,0.499037353515625,0.573286771774292,-5.034243583679199,3.0432939529418945
1700852396152034600,0.51603466796875,0.08213305473327637,-4.754230976104736,2.0480308532714844
1700852396169025500,0.533025634765625,-0.4266321659088135,-4.583486080169678,1.0032520294189453
1700852396186019800,0.550019775390625,-1.1106318235397339,-4.740604400634766,2.465664863586426
1700852396203005200,0.567005126953125,-0.47064122557640076,-3.7675256729125977,4.732882499694824
1700852396220005000,0.584005126953125,0.5325210690498352,-2.8835675716400146,5.782293319702148
1700852396236993000,0.600992919921875,1.1098695993423462,-2.25712513923645,5.97860050201416
1700852396253989600,0.61798974609375,1.1611568927764893,-1.9050559997558594,5.8734636306762695
1700852396270974500,0.634974365234375,0.7362378835678101,-1.642943263053894,5.5175323486328125
1700852396287973600,0.6519736328125,0.30124983191490173,-1.2756738662719727,5.71561336517334
1700852396304961800,0.6689619140625,-0.3106433153152466,-0.7324576377868652,6.168241500854492
1700852396321958100,0.685958251953125,-1.3110566139221191,-0.2902388572692871,6.399971961975098
1700852396338935800,0.702935791015625,-2.1302926540374756,0.25870180130004883,6.561166763305664
1700852396355938800,0.719938720703125,-2.2378413677215576,0.7367382049560547,6.591029167175293
1700852396372930800,0.736930908203125,-1.7090073823928833,0.9749383926391602,6.768230438232422
1700852396389922000,0.753922119140625,-0.847845733165741,1.147829532623291,7.416362285614014
1700852396406915600,0.77091552734375,0.4218151569366455,1.4041194915771484,9.303350448608398
1700852396423902700,0.78790283203125,0.9241212606430054,2.449676513671875,9.225973129272461
1700852396440908800,0.80490869140625,-0.10359430313110352,2.957879066467285,7.595986843109131
1700852396457882400,0.82188232421875,-0.8087323904037476,3.1316165924072266,6.119176387786865
1700852396474886100,0.83888623046875,-0.3036273717880249,2.7107181549072266,5.731924057006836
1700852396491879400,0.85587939453125,0.4843343496322632,2.180203914642334,6.244287490844727
1700852396508867600,0.87286767578125,0.7035390138626099,2.3811564445495605,6.328777313232422
1700852396525855200,0.889855224609375,-0.017772197723388672,2.5538101196289062,5.794574737548828
1700852396542855000,0.90685498046875,-0.656604528427124,2.503528594970703,4.791525840759277
1700852396559846700,0.9238466796875,-0.46212053298950195,2.1271557807922363,3.864079475402832
1700852396576841700,0.940841796875,0.14851820468902588,1.5296416282653809,2.8288912773132324
1700852396593828400,0.957828369140625,0.19520890712738037,1.525618076324463,1.5643534660339355
1700852396610821400,0.9748212890625,-0.7109631299972534,1.6788201332092285,0.49175262451171875
1700852396627817200,0.991817138671875,-2.0608439445495605,1.3177781105041504,0.06327295303344727
1700852396644804600,1.0088046875,-2.632780075073242,0.8044800758361816,-0.015076160430908203
1700852396661801000,1.025801025390625,-2.5650925636291504,0.11318635940551758,0.19449615478515625
1700852396678791400,1.04279150390625,-2.4519779682159424,-0.41250085830688477,-0.0302581787109375
1700852396695783000,1.059782958984375,-2.3420236110687256,-0.5360946655273438,-0.5003838539123535
1700852396712776700,1.076776611328125,-2.5085670948028564,-0.4420323371887207,-0.9298672676086426
1700852396729767000,1.093766845703125,-2.7190260887145996,-0.1644434928894043,-1.508488655090332
1700852396746763300,1.11076318359375,-2.704559087753296,0.5349440574645996,-2.3387012481689453
1700852396763750700,1.127750732421875,-2.18407940864563,1.0172762870788574,-2.8086166381835938
1700852396780743700,1.14474365234375,-1.2707440853118896,0.8022646903991699,-2.209691047668457
1700852396797740000,1.161739990234375,-0.36177051067352295,1.3470520973205566,-1.5429458618164062
1700852396814726700,1.1787265625,-0.07528603076934814,1.8395538330078125,-0.4873781204223633
1700852396831721000,1.195720947265625,-0.6932703256607056,2.4456019401550293,-0.254915714263916
1700852396848711000,1.2127109375,-1.610715389251709,2.6358747482299805,-0.5259361267089844
1700852396865703400,1.229703369140625,-1.9370064735412598,2.588366746902466,-0.6563310623168945
1700852396882698800,1.24669873046875,-1.472184658050537,2.184152603149414,-0.23261308670043945
1700852396899690500,1.2636904296875,-0.713072657585144,2.023960590362549,0.5366697311401367
1700852396916685600,1.280685546875,-0.23965072631835938,2.100705623626709,1.3012866973876953
1700852396933670400,1.29767041015625,-0.41014397144317627,2.107226848602295,1.770029067993164
1700852396950667500,1.31466748046875,-0.1729128360748291,2.1549267768859863,1.8201470375061035
1700852396967649800,1.33164990234375,0.4105740189552307,1.7990837097167969,2.2705183029174805
1700852396984649000,1.34864892578125,0.8618717193603516,1.7059473991394043,2.4194650650024414
1700852397001644800,1.365644775390625,0.3411446809768677,1.7645974159240723,2.5971274375915527
1700852397018637000,1.382636962890625,-0.45117050409317017,1.7454710006713867,3.100088119506836
1700852397035625500,1.39962548828125,-0.6780141592025757,1.8784606456756592,3.194247245788574
1700852397052620500,1.41662060546875,-0.6347479224205017,1.724602460861206,3.0082244873046875
1700852397069612300,1.4336123046875,-0.34700268507003784,1.38370943069458,2.8157520294189453
1700852397086599000,1.450598876953125,-0.025504589080810547,1.1196436882019043,2.903744697570801
1700852397103594500,1.467594482421875,0.10067367553710938,1.1160576343536377,3.1556711196899414
1700852397120586800,1.484586669921875,0.04783129692077637,0.9993689060211182,3.7466087341308594
1700852397137584600,1.501584716796875,-0.07204139232635498,-0.03813743591308594,4.668842315673828
1700852397154570500,1.518570556640625,-0.04153597354888916,-1.1785163879394531,4.743124961853027
1700852397171566300,1.53556640625,0.2371770143508911,-2.330681562423706,4.722325325012207
1700852397188548000,1.552548095703125,0.5827357172966003,-3.1834094524383545,5.019924163818359
1700852397205547500,1.569547607421875,0.6016221046447754,-3.0174357891082764,5.3227996826171875
1700852397222532000,1.586531982421875,0.25141090154647827,-2.3396987915039062,5.130195617675781
1700852397239534300,1.603534423828125,-0.21595489978790283,-2.079458713531494,4.704648971557617
1700852397256528000,1.62052783203125,-0.33836957812309265,-2.429760694503784,3.87362003326416
1700852397273516300,1.637516357421875,0.3696315288543701,-3.4142045974731445,3.0355701446533203
1700852397290510300,1.65451025390625,1.142174482345581,-4.4359540939331055,2.0637998580932617
1700852397307505000,1.6715048828125,1.5389959812164307,-4.8889546394348145,0.8993425369262695
1700852397324492500,1.688492431640625,1.9485111236572266,-4.6494646072387695,-0.1562061309814453
1700852397341489400,1.705489501953125,2.3694729804992676,-4.006968975067139,-1.0949430465698242
1700852397358481000,1.72248095703125,2.650888442993164,-3.3862273693084717,-1.8564801216125488
1700852397375464400,1.73946435546875,2.864217758178711,-3.0494186878204346,-2.2286643981933594
1700852397392456400,1.75645654296875,3.011902332305908,-2.794361114501953,-2.6049957275390625
1700852397409456400,1.773456298828125,3.024960994720459,-2.5823895931243896,-3.1607131958007812
1700852397426445800,1.79044580078125,3.0924618244171143,-2.456526517868042,-3.6166768074035645
1700852397443436800,1.807436767578125,3.047990083694458,-2.3682942390441895,-3.9946179389953613
1700852397460436500,1.8244365234375,3.2415974140167236,-2.3906755447387695,-4.381313323974609
1700852397477424000,1.841424072265625,3.3681342601776123,-2.428001880645752,-4.640104293823242
1700852397494409700,1.85840966796875,3.5007877349853516,-2.530827045440674,-4.8191142082214355
1700852397511399000,1.87539892578125,3.5892863273620605,-2.6832590103149414,-4.889520168304443
1700852397528402700,1.892402587890625,3.406534433364868,-3.0146737098693848,-4.948977947235107
1700852397545391400,1.909391357421875,3.4792675971984863,-2.9919843673706055,-4.9649763107299805
1700852397562377000,1.926376953125,3.9837169647216797,-3.0835068225860596,-5.061949253082275
1700852397579378000,1.9433779296875,4.180887222290039,-3.448765754699707,-5.080611228942871
1700852397596354800,1.960354736328125,4.486345291137695,-3.778480291366577,-5.201244354248047
1700852397613360600,1.977360595703125,4.817856788635254,-3.915614366531372,-5.206641674041748
1700852397630353400,1.994353515625,4.743597507476807,-4.073766708374023,-4.6970672607421875
1700852397647348700,2.0113486328125,4.229971885681152,-4.258171081542969,-4.108119964599609
1700852397664336100,2.028336181640625,3.4064369201660156,-4.662991046905518,-3.8213677406311035
1700852397681325800,2.045325927734375,2.9397425651550293,-5.141182899475098,-3.5173439979553223
1700852397698322200,2.062322265625,3.22510027885437,-5.190779685974121,-3.0428714752197266
1700852397715316000,2.07931591796875,3.272554397583008,-5.560174465179443,-1.9453496932983398
1700852397732302800,2.096302734375,2.773789405822754,-6.136144638061523,-0.6007966995239258
1700852397749300000,2.113300048828125,2.3607289791107178,-6.186450004577637,-0.10403919219970703
1700852397766293000,2.13029296875,1.9372785091400146,-6.307642459869385,0.4573478698730469
1700852397783282200,2.1472822265625,1.68880295753479,-6.280057907104492,1.4497957229614258
1700852397800269800,2.164269775390625,1.8189373016357422,-5.962673664093018,2.604081153869629
1700852397817269500,2.18126953125,1.861034631729126,-5.074779510498047,3.4018325805664062
1700852397834260500,2.198260498046875,1.28836989402771,-4.224308967590332,4.006964683532715
1700852397851245800,2.215245849609375,-0.06907480955123901,-3.4298501014709473,4.427665710449219
1700852397868245500,2.23224560546875,-1.7001514434814453,-2.724998950958252,4.920846939086914
1700852397885237200,2.2492373046875,-3.057220697402954,-2.3889846801757812,5.917936325073242
1700852397902246700,2.26624658203125,-3.4217896461486816,-1.7696290016174316,6.643272399902344
1700852397919216400,2.28321630859375,-3.1818082332611084,-1.0073227882385254,6.762343406677246
1700852397936215000,2.300215087890625,-2.5416219234466553,-0.050342559814453125,5.9951324462890625
1700852397953205500,2.31720556640625,-1.5773921012878418,1.0759916305541992,5.018880844116211
1700852397970200800,2.334200927734375,-0.9847661256790161,2.0095033645629883,3.974548816680908
1700852397987187500,2.3511875,-0.8193109035491943,2.7475051879882812,3.166492462158203
1700852398004179700,2.3681796875,-0.627573549747467,3.3676059246063232,2.3555450439453125
1700852398021177300,2.38517724609375,-0.5909722447395325,3.5285961627960205,1.6414432525634766
1700852398038165000,2.4021650390625,-0.5611737966537476,3.5368916988372803,0.9112334251403809
1700852398055159600,2.41915966796875,-0.31686943769454956,3.612255811691284,0.25046586990356445
1700852398072151600,2.436151611328125,-0.3331010937690735,3.763444185256958,-0.06023740768432617
1700852398089131500,2.453131591796875,-1.132653832435608,3.967745065689087,-0.3998551368713379
1700852398106125800,2.470125732421875,-1.7489824295043945,3.952012538909912,-0.14858722686767578
1700852398123118600,2.48711865234375,-1.9064691066741943,3.7837231159210205,0.6528782844543457
1700852398140111400,2.504111328125,-1.8834435939788818,3.6531174182891846,1.1079702377319336
1700852398157107500,2.521107421875,-1.677085280418396,3.3693976402282715,1.5260834693908691
1700852398174095000,2.53809521484375,-1.7124794721603394,3.075570583343506,1.7939162254333496
1700852398191088600,2.555088623046875,-1.5068460702896118,2.8101491928100586,2.284219264984131
1700852398208081200,2.5720810546875,-1.2184115648269653,2.6536693572998047,3.4418020248413086
1700852398225076500,2.589076416015625,-1.091745138168335,2.607419967651367,4.821096420288086
1700852398242074400,2.606074462890625,-1.782419204711914,2.700590133666992,5.638033390045166
1700852398259067100,2.623067138671875,-2.7953386306762695,2.6637868881225586,5.800339221954346
1700852398276058400,2.640058349609375,-3.4447898864746094,2.4018983840942383,5.679753303527832
1700852398293047300,2.65704736328125,-3.2856414318084717,2.235759735107422,5.496246337890625
1700852398310041000,2.674041015625,-2.583634376525879,1.8902006149291992,5.637594223022461
1700852398327037000,2.691036865234375,-1.899771809577942,0.8558354377746582,6.147938251495361
1700852398344021800,2.708021728515625,-1.4103683233261108,-0.12823867797851562,6.237506866455078
1700852398361018400,2.725018310546875,-0.9846824407577515,-1.0573005676269531,6.241795539855957
1700852398378012000,2.742011962890625,-0.699739396572113,-1.8721089363098145,6.130424499511719
1700852398395000000,2.759,-0.26989293098449707,-2.2609519958496094,6.093864917755127
1700852398412006000,2.776005859375,0.26797568798065186,-2.001549243927002,5.753215789794922
1700852398428986600,2.792986572265625,1.108189582824707,-1.6308774948120117,5.533466815948486
1700852398445979600,2.809979736328125,1.526235580444336,-1.6896233558654785,5.492849349975586
1700852398462963700,2.826963623046875,1.6770484447479248,-2.283700466156006,5.242515563964844
1700852398479963000,2.843962890625,1.7376247644424438,-2.9912638664245605,4.4036054611206055
1700852398496959700,2.860959716796875,2.0156726837158203,-3.6044602394104004,3.166645050048828
1700852398513937000,2.87793701171875,2.4150047302246094,-3.682504653930664,1.6376161575317383
1700852398530938000,2.894938232421875,2.9267992973327637,-3.374967098236084,0.3479299545288086
1700852398547940400,2.9119404296875,3.113151788711548,-2.893576145172119,-0.7638602256774902
1700852398564923100,2.928923095703125,3.061685800552368,-2.426546573638916,-1.646132469177246
1700852398581914600,2.94591455078125,2.792562961578369,-1.992769479751587,-2.473681926727295
1700852398598906000,2.962906005859375,2.581103801727295,-1.6095893383026123,-3.2963218688964844
1700852398615899400,2.9798994140625,2.3691463470458984,-1.3777172565460205,-3.8911447525024414
1700852398632894000,2.99689404296875,2.171260118484497,-1.2475664615631104,-4.276456832885742
1700852398649881900,3.0138818359375,2.1883320808410645,-1.2164247035980225,-4.441270351409912
1700852398666877200,3.030877197265625,2.2038002014160156,-1.226407766342163,-4.60593843460083
1700852398683869000,3.047868896484375,2.332953691482544,-1.317213535308838,-4.929813861846924
1700852398700853500,3.064853515625,2.471179485321045,-1.5498135089874268,-5.189093112945557
1700852398717854700,3.081854736328125,2.831545114517212,-1.7363390922546387,-5.438119888305664
1700852398734843400,3.098843505859375,3.1366639137268066,-1.8990306854248047,-5.493950366973877
1700852398751838500,3.11583837890625,3.4359350204467773,-2.0332422256469727,-5.352781295776367
1700852398768830700,3.132830810546875,3.7031967639923096,-2.2849321365356445,-4.769266128540039
1700852398785820200,3.149820068359375,3.8905763626098633,-2.4014742374420166,-4.327371597290039
1700852398802815500,3.1668154296875,4.051769733428955,-2.5997331142425537,-4.089120864868164
1700852398819807200,3.18380712890625,4.002737998962402,-3.037118911743164,-3.9511003494262695
1700852398836804600,3.2008046875,3.887502908706665,-3.471134662628174,-3.8912625312805176
1700852398853791500,3.21779150390625,3.923067808151245,-4.051034450531006,-3.4554710388183594
1700852398870784000,3.234783935546875,4.090487957000732,-4.353443145751953,-3.0469861030578613
1700852398887758000,3.251758056640625,4.391161918640137,-4.678829193115234,-2.218881607055664
1700852398904768000,3.26876806640625,4.266834735870361,-5.829593181610107,-0.7823209762573242
1700852398921748700,3.285748779296875,3.6325526237487793,-6.488071441650391,-0.4109773635864258
1700852398938742300,3.3027421875,3.2878060340881348,-6.435916900634766,-0.6819362640380859
1700852398955747000,3.3197470703125,2.500333786010742,-7.244553565979004,-0.0896759033203125
1700852398972724000,3.336723876953125,1.9987541437149048,-7.121851921081543,-0.12097358703613281
1700852398989731600,3.353731689453125,1.802748680114746,-6.207860946655273,-0.6277217864990234
1700852399006721500,3.370721435546875,1.3363040685653687,-5.713090896606445,-0.12595844268798828
1700852399023713000,3.387713134765625,0.3664557635784149,-5.040243148803711,-0.17659473419189453
1700852399040705800,3.404705810546875,-0.3439745306968689,-4.659217357635498,-0.04490947723388672
1700852399057697500,3.421697509765625,-0.7972927689552307,-4.760651588439941,0.53985595703125
1700852399074690000,3.43868994140625,-0.6090378761291504,-4.619891166687012,0.8529233932495117
1700852399091681800,3.455681884765625,0.134123295545578,-3.9073989391326904,0.8892965316772461
1700852399108674300,3.47267431640625,0.8215541839599609,-2.7882533073425293,1.0757627487182617
1700852399125666000,3.489666015625,1.1262913942337036,-1.3274688720703125,0.9564924240112305
1700852399142658600,3.506658447265625,0.7354867458343506,-0.04117918014526367,0.8136749267578125
1700852399159650300,3.523650390625,-0.03863754868507385,1.0165491104125977,1.0034761428833008
1700852399176642800,3.540642822265625,-0.9615087509155273,1.9462857246398926,1.324221134185791
1700852399193627600,3.557627685546875,-1.7326775789260864,2.4149911403656006,1.850407600402832
1700852399210624800,3.574624755859375,-2.2263784408569336,2.8411171436309814,2.1589813232421875
1700852399227610400,3.5916103515625,-2.7283763885498047,3.2014007568359375,2.2463831901550293
1700852399244599600,3.608599609375,-3.062199115753174,3.5962352752685547,2.525097370147705
1700852399261593000,3.625593017578125,-3.301311731338501,3.884800434112549,2.8621668815612793
1700852399278585900,3.6425859375,-3.253129482269287,3.8241097927093506,3.5036516189575195
1700852399295580000,3.659579833984375,-3.0793566703796387,3.7424938678741455,4.087820053100586
1700852399312568600,3.676568603515625,-2.9969639778137207,3.9585940837860107,4.612630844116211
1700852399329563600,3.693563720703125,-3.318005323410034,4.115663528442383,5.127257347106934
1700852399346557700,3.7105576171875,-3.359170913696289,4.3229875564575195,5.6389594078063965
1700852399363546600,3.727546630859375,-2.869656562805176,4.444643974304199,6.30851936340332
1700852399380540200,3.7445400390625,-2.430812120437622,4.609613418579102,7.021773815155029
1700852399397531600,3.76153173828125,-2.6086807250976562,4.679452896118164,7.5419816970825195
1700852399414531800,3.77853173828125,-3.269627571105957,4.49104118347168,7.456089973449707
1700852399431516200,3.79551611328125,-3.206246852874756,4.36829948425293,6.939822673797607
1700852399448507600,3.812507568359375,-2.8986289501190186,4.256606101989746,6.514318943023682
1700852399465501700,3.829501708984375,-2.5308804512023926,3.7323217391967773,6.524620056152344
1700852399482490600,3.84649072265625,-2.17160701751709,2.1364026069641113,7.256154537200928
1700852399499496000,3.863495849609375,-1.5687792301177979,0.8196830749511719,7.5859575271606445
1700852399516486100,3.880486083984375,-1.0088636875152588,0.26204490661621094,7.727440357208252
1700852399533477600,3.8974775390625,-0.898807168006897,0.08120870590209961,8.104988098144531
1700852399550470700,3.914470703125,-0.6984355449676514,-0.22165584564208984,8.600090026855469
1700852399567462000,3.9314619140625,-0.33061540126800537,-0.9434285163879395,9.032022476196289
1700852399584454700,3.94845458984375,-0.2343778908252716,-1.9814496040344238,9.017457962036133
1700852399601436000,3.965435791015625,0.24413421750068665,-2.8048529624938965,8.507320404052734
1700852399618439000,3.98243896484375,1.1618435382843018,-3.841829776763916,8.047308921813965
1700852399635430700,3.9994306640625,2.245668649673462,-5.128106594085693,7.644277572631836
1700852399652405000,4.016405029296875,3.017505645751953,-5.612240314483643,6.079106330871582
1700852399669415000,4.033414794921875,3.552724838256836,-5.650868892669678,4.095945358276367
1700852399686407400,4.050407470703125,3.942768096923828,-5.328731536865234,2.286266326904297
1700852399703399200,4.067399169921875,4.024579048156738,-4.99559211730957,0.8859968185424805
1700852399720392000,4.084391845703125,4.181819438934326,-4.626302719116211,-0.29904747009277344
1700852399737382000,4.1013818359375,4.153526306152344,-4.375979423522949,-1.3128304481506348
1700852399754376000,4.1183759765625,4.073177337646484,-4.04327392578125,-2.277617931365967
1700852399771350000,4.13535009765625,3.9124178886413574,-3.6058738231658936,-3.2880024909973145
1700852399788360400,4.1523603515625,3.8103840351104736,-3.267418384552002,-3.981574535369873
1700852399805352200,4.169352294921875,3.8062491416931152,-3.239509344100952,-4.441742897033691
1700852399822334000,4.186333984375,3.7324445247650146,-3.311695098876953,-4.90836238861084
1700852399839334100,4.203334228515625,3.7868337631225586,-3.380077362060547,-5.12762975692749
1700852399856331000,4.2203310546875,3.8982889652252197,-3.4495368003845215,-5.359020233154297
1700852399873320700,4.23732080078125,4.070732116699219,-3.600818634033203,-5.635105609893799
1700852399890313500,4.2543134765625,4.287748336791992,-3.823550224304199,-5.959837913513184
1700852399907304700,4.2713046875,4.453837871551514,-4.048888683319092,-6.280437469482422
1700852399924297500,4.28829736328125,4.6667256355285645,-4.2721662521362305,-6.431153297424316
1700852399941290800,4.305290771484375,4.789727210998535,-4.61353874206543,-6.399251937866211
1700852399958279400,4.322279541015625,4.969224452972412,-4.959279537200928,-6.153932571411133
1700852399975276000,4.339276123046875,5.080547332763672,-5.331103324890137,-5.948614120483398
1700852399992278000,4.356278076171875,4.900476455688477,-5.7706708908081055,-5.63410758972168
1700852400009258000,4.373258056640625,4.483413219451904,-6.079458236694336,-5.408821105957031
1700852400026250500,4.39025048828125,3.909175157546997,-6.270707130432129,-5.1763482093811035
1700852400043241200,4.4072412109375,3.500324010848999,-6.7702460289001465,-4.686573028564453
1700852400060235500,4.424235595703125,3.3767802715301514,-7.7624359130859375,-3.173063278198242
1700852400077223400,4.441223388671875,2.990037441253662,-7.844429969787598,-2.33005428314209
1700852400094221600,4.4582216796875,2.1442649364471436,-7.983090877532959,-2.379711151123047
1700852400111206100,4.4752060546875,1.2257486581802368,-8.346785545349121,-2.121020793914795
1700852400128205300,4.492205322265625,0.3329460024833679,-8.73843765258789,-1.3358774185180664
1700852400145197600,4.509197509765625,-0.17633092403411865,-8.315159797668457,-0.7987508773803711
1700852400162187500,4.5261875,-0.5707896947860718,-7.922249794006348,0.38112831115722656
1700852400179179300,4.54317919921875,-1.1106657981872559,-7.39063835144043,1.9296092987060547
1700852400196172500,4.560172607421875,-1.4643700122833252,-6.859186172485352,3.171642303466797
1700852400213163500,4.57716357421875,-1.5288665294647217,-6.692555904388428,4.248255729675293
1700852400230156000,4.594156005859375,-1.090570330619812,-6.395968914031982,4.9060211181640625
1700852400247146500,4.611146484375,-0.6300193667411804,-5.674013614654541,5.052267074584961
1700852400264141800,4.628141845703125,-0.36126160621643066,-4.276095390319824,4.922565460205078
1700852400281121500,4.64512158203125,-0.40555617213249207,-2.4728870391845703,4.654743194580078
1700852400298121200,4.662121337890625,-0.5310283303260803,-0.5544981956481934,4.468049049377441
1700852400315119900,4.679119873046875,-0.7164617776870728,1.1085376739501953,4.264451503753662
1700852400332109000,4.696109130859375,-0.8064306378364563,2.3594560623168945,3.7732181549072266
1700852400349100500,4.7131005859375,-0.7135538458824158,3.078594446182251,3.1940407752990723
1700852400366093300,4.73009326171875,-0.5517937541007996,3.2525758743286133,3.039071559906006
1700852400383084800,4.747084716796875,-0.373725563287735,3.2784247398376465,3.3351478576660156
1700852400400077600,4.76407763671875,0.08772814273834229,3.4767441749572754,3.294445514678955
1700852400417066500,4.78106640625,0.34486111998558044,3.4831109046936035,3.095630645751953
1700852400434064400,4.798064453125,0.5172179937362671,3.5348196029663086,2.8540358543395996
1700852400451053300,4.81505322265625,0.7488374710083008,3.5562896728515625,3.176877021789551
1700852400468034300,4.832034423828125,0.8713380098342896,3.8545117378234863,3.9042539596557617
1700852400485042400,4.84904248046875,0.542959451675415,3.8936476707458496,5.015251636505127
1700852400502030300,4.8660302734375,-0.0018214583396911621,3.960111141204834,6.212825775146484
1700852400519022000,4.88302197265625,-0.5626931190490723,4.392657279968262,7.039599418640137
1700852400536014600,4.9000146484375,-1.2588914632797241,4.712083339691162,7.3957295417785645
1700852400553006300,4.91700634765625,-1.5450966358184814,4.9025115966796875,7.818715572357178
1700852400569996000,4.93399609375,-1.5047650337219238,4.947260856628418,8.341133117675781
1700852400586993000,4.950992919921875,-1.4029150009155273,5.0847296714782715,8.465963363647461
1700852400603983000,4.967983154296875,-1.8857266902923584,5.134737968444824,8.411762237548828
1700852400620974600,4.984974609375,-2.572007417678833,4.380587100982666,8.611008644104004
1700852400637959400,5.00195947265625,-2.880160093307495,2.6496877670288086,8.953980445861816
1700852400654959000,5.018958984375,-2.291886806488037,1.4061665534973145,8.622049331665039
1700852400671951600,5.03595166015625,-1.5836951732635498,0.2938709259033203,9.041778564453125
1700852400688943400,5.052943359375,-0.7701073884963989,0.02605295181274414,9.410116195678711
1700852400705930500,5.069930419921875,-0.3661500811576843,0.035094261169433594,9.597061157226562
1700852400722927400,5.08692724609375,-0.06742247939109802,-0.4593048095703125,9.264569282531738
1700852400739920400,5.10392041015625,0.34835365414619446,-1.4800500869750977,8.299878120422363
1700852400756911900,5.120911865234375,1.0647894144058228,-2.9262852668762207,7.426832675933838
1700852400773904600,5.137904541015625,1.887560248374939,-4.380281925201416,6.821696758270264
1700852400790893600,5.1548935546875,2.470794200897217,-5.041189670562744,5.816307544708252
1700852400807891500,5.171891357421875,2.5899698734283447,-4.888412952423096,4.416491508483887
1700852400824880400,5.18888037109375,2.3224878311157227,-4.443521022796631,2.6822872161865234
1700852400841873000,5.205872802734375,2.078669786453247,-4.0310797691345215,0.7992982864379883
1700852400858856700,5.222856689453125,1.976462960243225,-3.7677083015441895,-0.7989416122436523
1700852400875857400,5.239857421875,2.0546865463256836,-3.5663366317749023,-1.9329833984375
1700852400892849000,5.256848876953125,2.004351854324341,-3.3676247596740723,-2.746377468109131
1700852400909842000,5.273842041015625,1.7422363758087158,-3.1431214809417725,-3.5426549911499023
1700852400926833200,5.290833251953125,1.4624886512756348,-2.9152908325195312,-4.308152198791504
1700852400943826000,5.307825927734375,1.239819884300232,-2.6804182529449463,-5.021978855133057
1700852400960815000,5.324815185546875,1.248968243598938,-2.462273359298706,-5.572493553161621
1700852400977804300,5.34180419921875,1.2262552976608276,-2.5146379470825195,-5.75178337097168
1700852400994801700,5.3588017578125,1.4121575355529785,-2.4969100952148438,-5.728211402893066
1700852401011794400,5.37579443359375,1.863594889640808,-2.3952319622039795,-5.797653675079346
1700852401028786000,5.392785888671875,2.1311073303222656,-2.4176816940307617,-6.050314903259277
1700852401045778700,5.40977880859375,2.517859697341919,-2.3855814933776855,-6.152304649353027
1700852401062770400,5.4267705078125,2.937563419342041,-2.396857738494873,-6.033759117126465
1700852401079763000,5.443762939453125,3.307429075241089,-2.561666965484619,-5.676149368286133
1700852401096754400,5.46075439453125,3.6068243980407715,-2.925614833831787,-4.936529159545898
1700852401113745700,5.47774560546875,4.1441850662231445,-3.0721206665039062,-4.375146865844727
1700852401130740000,5.494739990234375,4.199653625488281,-3.3037314414978027,-4.267662048339844
1700852401147731200,5.511731201171875,4.265615940093994,-3.5285184383392334,-4.324019908905029
1700852401164723000,5.528722900390625,4.501786231994629,-3.8032610416412354,-4.125331878662109
1700852401181715500,5.545715576171875,4.843603134155273,-4.136038780212402,-3.3820667266845703
1700852401198696700,5.56269677734375,4.873987197875977,-4.9681267738342285,-1.791837215423584
1700852401215700000,5.579699951171875,3.7082948684692383,-6.196016788482666,-0.35910797119140625
1700852401232691500,5.59669140625,2.3407061100006104,-6.285715579986572,-0.49283409118652344
1700852401249685200,5.613685302734375,1.3945579528808594,-6.990817070007324,-0.3116931915283203
1700852401266675500,5.630675537109375,1.0508579015731812,-7.84306001663208,-0.09955596923828125
1700852401283668000,5.64766796875,1.8464645147323608,-7.205167770385742,-0.6250934600830078
1700852401300660000,5.664659912109375,2.4454097747802734,-6.502533435821533,0.031083106994628906
1700852401317652200,5.68165234375,2.1731576919555664,-5.892148971557617,1.5649223327636719
1700852401334641700,5.6986416015625,0.8831260800361633,-5.513159275054932,2.876481056213379
1700852401351636700,5.71563671875,-0.6019761562347412,-5.130428791046143,3.2973785400390625
1700852401368631000,5.732631103515625,-1.5721409320831299,-4.51290225982666,3.1964893341064453
1700852401385621000,5.74962109375,-1.8337986469268799,-3.5071933269500732,2.8095130920410156
1700852401402612700,5.76661279296875,-1.8377876281738281,-2.16631817817688,2.029783248901367
1700852401419605200,5.783605224609375,-1.8049653768539429,-0.842188835144043,1.4149417877197266
1700852401436595500,5.800595458984375,-1.6810399293899536,0.2727327346801758,0.9034786224365234
1700852401453588200,5.817588134765625,-1.3377877473831177,1.0915918350219727,0.3690624237060547
1700852401470583800,5.834583740234375,-0.8649089336395264,1.5587222576141357,-0.20035743713378906
1700852401487573500,5.851573486328125,-0.45615047216415405,1.5826809406280518,-0.6100282669067383
1700852401504562400,5.8685625,0.07733279466629028,1.5392169952392578,-0.6432909965515137
1700852401521560600,5.885560546875,0.996870219707489,1.5264778137207031,0.2816152572631836
1700852401538549500,5.902549560546875,1.643111228942871,2.0267081260681152,1.9020342826843262
1700852401555539200,5.919539306640625,0.5821739435195923,2.944432497024536,2.164182186126709
1700852401572533800,5.93653369140625,-1.7153031826019287,3.546825885772705,1.6014604568481445
1700852401589514000,5.953513916015625,-2.8720555305480957,3.971107244491577,1.483781337738037
1700852401606508000,5.970508056640625,-2.3997979164123535,4.235306262969971,2.126699447631836
1700852401623500500,5.98750048828125,-1.1571025848388672,4.335312843322754,3.169548511505127
1700852401640491000,6.004490966796875,-0.5604549646377563,4.739744186401367,4.198018550872803
1700852401657486300,6.021486328125,-0.9718353748321533,5.219405174255371,4.961394786834717
1700852401674477300,6.038477294921875,-1.8920406103134155,5.6511383056640625,5.654192924499512
1700852401691469800,6.0554697265625,-2.2920169830322266,5.897618293762207,6.500148296356201
1700852401708460000,6.0724599609375,-1.745632290840149,6.007189750671387,7.247985363006592
1700852401725454600,6.08945458984375,-1.4115660190582275,6.046964168548584,7.510382175445557
1700852401742451700,6.10645166015625,-1.7239794731140137,6.119190216064453,7.798464298248291
1700852401759447600,6.123447509765625,-2.4845199584960938,5.065354824066162,8.53890323638916
1700852401776438300,6.140438232421875,-2.693828821182251,2.746274948120117,9.654243469238281
1700852401793432600,6.1574326171875,-1.2945094108581543,1.668522834777832,10.60445785522461
1700852401810423600,6.174423583984375,-0.28004467487335205,1.0248427391052246,12.021150588989258
1700852401827415800,6.191415771484375,-0.5351906418800354,1.6657428741455078,11.258445739746094
1700852401844407800,6.20840771484375,-0.7782542109489441,1.7405171394348145,10.001709938049316
1700852401861400300,6.225400390625,0.16142889857292175,0.5091991424560547,9.633536338806152
1700852401878391800,6.242391845703125,1.9899699687957764,-1.1598052978515625,9.542078018188477
1700852401895384600,6.259384521484375,3.4283995628356934,-2.530179500579834,9.434931755065918
1700852401912376000,6.2763759765625,3.6577439308166504,-3.476276397705078,8.830338478088379
1700852401929368800,6.293368896484375,3.349653482437134,-3.710479736328125,7.593744277954102
1700852401946360300,6.3103603515625,3.2499895095825195,-3.2401742935180664,5.683554649353027
1700852401963350000,6.32735009765625,3.323751449584961,-2.6140475273132324,3.8114776611328125
1700852401980347100,6.34434716796875,3.4209792613983154,-2.259213924407959,2.121922492980957
1700852401997337000,6.361337158203125,3.353300094604492,-2.3121888637542725,0.668116569519043
1700852402014328600,6.37832861328125,3.1027116775512695,-2.627699136734009,-0.58526611328125
1700852402031321300,6.3953212890625,3.098475456237793,-2.9556424617767334,-1.768524169921875
1700852402048312800,6.412312744140625,3.1103758811950684,-3.201374053955078,-2.688608169555664
1700852402065305600,6.4293056640625,3.1342945098876953,-3.358177661895752,-3.431039810180664
1700852402082294800,6.446294677734375,3.235168695449829,-3.4838762283325195,-3.7604150772094727
1700852402099282000,6.463281982421875,3.4762258529663086,-3.4265832901000977,-3.915853977203369
1700852402116269000,6.48026904296875,3.430399179458618,-3.287435293197632,-4.473959445953369
1700852402133276400,6.4972763671875,3.1182138919830322,-3.265775442123413,-5.142577648162842
1700852402150262500,6.514262451171875,2.6743643283843994,-3.475172996520996,-5.519064903259277
1700852402167248400,6.531248291015625,2.8294384479522705,-3.481616735458374,-5.620294570922852
1700852402184249900,6.548249755859375,3.252398729324341,-3.649155855178833,-5.572544097900391
1700852402201242400,6.565242431640625,3.664417028427124,-3.9875409603118896,-5.439184188842773
1700852402218234000,6.582234130859375,4.070270538330078,-4.357796669006348,-5.017819881439209
1700852402235229700,6.599229736328125,4.363792419433594,-4.692713737487793,-4.79509162902832
1700852402252204800,6.616204833984375,4.3256611824035645,-5.141061305999756,-4.684079647064209
1700852402269211000,6.6332109375,4.345202445983887,-5.572109222412109,-4.428173542022705
1700852402286202400,6.650202392578125,4.49005651473999,-5.901050567626953,-3.800034999847412
1700852402303195000,6.66719482421875,4.8088483810424805,-6.321881294250488,-2.91746187210083
1700852402320187000,6.684186767578125,4.975983619689941,-7.215781211853027,-1.5814199447631836
1700852402337179100,6.70117919921875,4.153072357177734,-7.885213851928711,-1.0203542709350586
1700852402354168600,6.71816845703125,3.115072011947632,-7.952365875244141,-1.4357962608337402
1700852402371165700,6.735165771484375,2.203141450881958,-8.07893180847168,-1.312474250793457
1700852402388155100,6.752155029296875,1.4206969738006592,-8.20059585571289,-0.7561235427856445
1700852402405145000,6.76914501953125,1.634432315826416,-7.618653774261475,-0.15422344207763672
1700852402422139400,6.786139404296875,2.1840460300445557,-6.986689567565918,1.1338376998901367
1700852402439132000,6.8031318359375,2.011673927307129,-6.432916164398193,2.1494998931884766
1700852402456121000,6.82012109375,0.8779647350311279,-5.933863162994385,2.6869401931762695
1700852402473118700,6.83711865234375,-0.4942789077758789,-5.598287105560303,3.127730369567871
1700852402490107400,6.854107421875,-1.352007508277893,-5.157869815826416,3.4515037536621094
1700852402507100200,6.87110009765625,-1.671229600906372,-4.498846530914307,3.511569023132324
1700852402524092000,6.888091796875,-1.5573956966400146,-3.494605541229248,3.159487724304199
1700852402541084400,6.90508447265625,-1.1069947481155396,-2.2414638996124268,2.3066415786743164
1700852402558076200,6.922076171875,-0.7468172311782837,-1.1238579750061035,1.4454154968261719
1700852402575068700,6.939068603515625,-0.41000786423683167,-0.19064998626708984,0.9441404342651367
1700852402592060400,6.956060302734375,-0.2915841042995453,0.5038089752197266,0.8459558486938477
1700852402609053000,6.973052978515625,-0.7487592697143555,0.9498636722564697,0.8578338623046875
1700852402626044400,6.99004443359375,-1.1307251453399658,1.3337407112121582,0.9284029006958008
1700852402643037200,7.007037109375,-1.0813661813735962,1.641376256942749,0.728459358215332
1700852402660028700,7.024028564453125,-0.5196775794029236,1.80433988571167,0.9238729476928711
1700852402677021200,7.041021240234375,0.061210572719573975,2.2489757537841797,1.5502538681030273
1700852402694012700,7.0580126953125,-0.25601115822792053,2.835466146469116,2.204939365386963
1700852402710991400,7.074991455078125,-0.9550501108169556,3.5098137855529785,3.0821714401245117
1700852402727987200,7.0919873046875,-1.5939514636993408,3.993299722671509,3.914361000061035
1700852402744983800,7.10898388671875,-1.5201703310012817,4.228184700012207,4.811737537384033
1700852402761972700,7.12597265625,-1.10546875,4.422591686248779,5.924707412719727
1700852402778964200,7.142964111328125,-0.8252625465393066,4.809122085571289,6.794036865234375
1700852402795956500,7.15995654296875,-0.9126983880996704,5.3433074951171875,7.430911064147949
1700852402812948000,7.176947998046875,-1.2098912000656128,5.880887031555176,7.76066780090332
1700852402829940000,7.19393994140625,-1.3435773849487305,6.130064964294434,7.970938205718994
1700852402846931200,7.21093115234375,-0.9603227376937866,6.196376800537109,8.042757987976074
1700852402863926500,7.227926513671875,-0.7906341552734375,6.154711723327637,8.289719581604004
1700852402880920000,7.244920166015625,-1.2342790365219116,6.379698753356934,8.230216979980469
1700852402897907500,7.261907470703125,-2.311521291732788,6.287032127380371,8.333549499511719
1700852402914899500,7.2788994140625,-2.8222622871398926,5.499869346618652,8.416415214538574
1700852402931893800,7.295893798828125,-2.8575685024261475,4.360962390899658,8.832451820373535
1700852402948886500,7.312886474609375,-2.4631848335266113,3.090038299560547,9.816370010375977
1700852402965886500,7.329886474609375,-1.9852685928344727,2.1502275466918945,10.389577865600586
1700852402982879000,7.34687890625,-1.2410197257995605,2.166015148162842,10.197166442871094
1700852402999870700,7.36387060546875,-0.3512892723083496,1.9576144218444824,9.736640930175781
1700852403016863200,7.38086328125,0.6707698106765747,0.881293773651123,9.411099433898926
1700852403033854700,7.397854736328125,1.8272238969802856,-0.899571418762207,9.234899520874023
1700852403050847200,7.41484716796875,2.731733798980713,-2.875002861022949,9.129380226135254
1700852403067839000,7.4318388671875,3.1219582557678223,-4.030981540679932,8.315925598144531
1700852403084829000,7.448828857421875,3.1160576343536377,-4.193760395050049,6.958937644958496
1700852403101825800,7.46582568359375,3.189619541168213,-3.760725498199463,5.4101057052612305
1700852403118814000,7.48281396484375,3.1256186962127686,-3.191563606262207,3.7568893432617188
1700852403135807500,7.499807373046875,2.7830138206481934,-2.744091510772705,2.2264862060546875
1700852403152800000,7.516800048828125,2.2425537109375,-2.5781362056732178,1.032191276550293
1700852403169791500,7.53379150390625,1.899385929107666,-2.6036720275878906,-0.28527069091796875
1700852403186784000,7.550783935546875,2.018138885498047,-2.5338854789733887,-1.3849506378173828
1700852403203775700,7.567775634765625,2.24517560005188,-2.726353645324707,-2.2961349487304688
1700852403220768300,7.584768310546875,2.6522436141967773,-3.058058738708496,-3.10970401763916
1700852403237757400,7.60175732421875,2.906381130218506,-3.4335131645202637,-3.90252685546875
1700852403254752500,7.61875244140625,3.128355026245117,-3.760227680206299,-4.779819965362549
1700852403271744300,7.635744140625,3.3215675354003906,-3.8950908184051514,-5.414740085601807
1700852403288736800,7.65273681640625,3.3914103507995605,-3.9190850257873535,-5.6676530838012695
1700852403305728500,7.669728515625,3.5781774520874023,-3.9575765132904053,-5.2420430183410645
1700852403322721000,7.686720947265625,3.859971523284912,-3.9062814712524414,-4.782564163208008
1700852403339712300,7.703712158203125,4.062927722930908,-4.004429340362549,-4.305854797363281
1700852403356705000,7.720705078125,4.272426605224609,-4.09237003326416,-3.9017796516418457
1700852403373694000,7.73769384765625,4.458675384521484,-4.357144832611084,-3.3951687812805176
1700852403390691800,7.75469189453125,4.582808971405029,-4.550480365753174,-2.9978580474853516
1700852403407681000,7.771680908203125,4.443268299102783,-4.9139084815979,-2.8077211380004883
1700852403424673300,7.78867333984375,4.3252716064453125,-5.221034049987793,-2.8958864212036133
1700852403441660200,7.80566015625,4.375384330749512,-5.568662643432617,-3.141751766204834
1700852403458653400,7.8226533203125,4.767956733703613,-6.058069229125977,-3.194483757019043
1700852403475648300,7.839648193359375,4.800663948059082,-6.95562744140625,-2.7401742935180664
1700852403492642600,7.856642578125,4.3843889236450195,-7.169992923736572,-2.906787872314453
1700852403509633300,7.87363330078125,3.7948036193847656,-7.098735809326172,-3.222846508026123
1700852403526615300,7.890615234375,3.1298909187316895,-7.07573127746582,-3.424642562866211
1700852403543617500,7.907617431640625,2.7847704887390137,-7.33394193649292,-3.1995348930358887
1700852403560610000,7.924610107421875,2.522172212600708,-7.328940391540527,-2.700422763824463
1700852403577591000,7.941591064453125,2.2934107780456543,-7.159526824951172,-2.095945358276367
1700852403594591700,7.958591796875,1.6880470514297485,-7.253621578216553,-1.1115760803222656
1700852403611588400,7.97558837890625,1.017498254776001,-7.1605939865112305,0.17641544342041016
1700852403628578000,7.992578125,0.4253072738647461,-6.8363165855407715,1.540867805480957
1700852403645566700,8.009566650390624,0.0019218921661376953,-6.425910949707031,2.762937545776367
1700852403662562300,8.026562255859375,0.09313100576400757,-5.556199073791504,3.42478084564209
1700852403679554300,8.04355419921875,0.38246238231658936,-4.466180324554443,3.3935346603393555
1700852403696546600,8.060546630859376,0.705356240272522,-3.1559858322143555,3.075411796569824
1700852403713528800,8.07752880859375,0.29986780881881714,-2.151315689086914,3.3010168075561523
1700852403730527500,8.094527587890624,-0.01088067889213562,-1.1094870567321777,3.8804893493652344
1700852403747516000,8.111515869140625,-0.3526873290538788,-0.18892478942871094,4.3437957763671875
1700852403764515000,8.12851513671875,-0.6372131109237671,0.649378776550293,4.40767240524292
1700852403781504000,8.14550390625,-0.8334647417068481,1.3290839195251465,4.166031360626221
1700852403798502000,8.162501953125,-1.105184555053711,1.8119454383850098,4.020455837249756
1700852403815490600,8.179490478515625,-1.4765281677246094,2.3061838150024414,4.1404337882995605
1700852403832483300,8.1964833984375,-2.0127928256988525,2.78298282623291,4.79403018951416
1700852403849474800,8.213474853515624,-2.6034011840820312,3.328310489654541,5.702392101287842
1700852403866467600,8.230467529296876,-3.0409739017486572,4.011697769165039,5.984530925750732
1700852403883459300,8.247459228515625,-3.597522258758545,4.380007743835449,6.35978889465332
1700852403900451800,8.264451904296875,-3.9226200580596924,4.866601467132568,6.7237067222595215
1700852403917443300,8.281443359375,-4.293727874755859,5.239680290222168,6.937282562255859
1700852403934435800,8.298435791015624,-4.734914302825928,5.435988426208496,7.678952217102051
1700852403951427600,8.315427490234375,-5.047117233276367,5.756909370422363,8.855216979980469
1700852403968419800,8.332419921875,-5.0552873611450195,6.18549108505249,9.497102737426758
1700852403985411600,8.34941162109375,-4.78188943862915,6.33000373840332,9.742143630981445
1700852404002404400,8.366404296875,-4.2992401123046875,6.316010475158691,9.872703552246094
1700852404019395800,8.383395751953126,-3.6514177322387695,6.151869773864746,10.458670616149902
1700852404036389000,8.40038916015625,-3.600999116897583,4.734686851501465,11.51666259765625
1700852404053379600,8.417379638671875,-3.0349018573760986,3.010223865509033,12.316844940185547
1700852404070369500,8.43436962890625,-2.2936224937438965,1.5578594207763672,12.650912284851074
1700852404087366100,8.4513662109375,-1.49005925655365,0.831573486328125,13.186059951782227
1700852404104357000,8.468357177734376,-0.5442948341369629,1.0458159446716309,12.60838794708252
1700852404121348400,8.485348388671875,0.54998779296875,0.9168810844421387,11.761800765991211
1700852404138340600,8.502340576171875,1.1892558336257935,-0.4104752540588379,11.037714958190918
1700852404155332600,8.51933251953125,1.688116431236267,-1.993049144744873,10.063973426818848
1700852404172325000,8.5363251953125,2.4670236110687256,-3.702479362487793,9.771230697631836
1700852404189316600,8.553316650390625,3.3241329193115234,-4.8369317054748535,9.45756721496582
1700852404206308900,8.570308837890625,3.7215776443481445,-5.102115154266357,8.183980941772461
1700852404223300600,8.587300537109375,3.657517671585083,-4.712413787841797,6.069194793701172
1700852404240290000,8.6042900390625,3.358370065689087,-4.384519100189209,3.93035888671875
1700852404257284900,8.621284912109376,3.0275607109069824,-4.247262001037598,1.7119197845458984
1700852404274277600,8.638277587890625,3.3312034606933594,-4.216096878051758,0.5356655120849609
1700852404291269000,8.65526904296875,3.8515501022338867,-4.192748069763184,-0.2247447967529297
1700852404308261400,8.672261474609375,3.937222480773926,-4.390986442565918,-0.842045783996582
1700852404325253000,8.689253173828124,3.727233648300171,-4.36244010925293,-2.027737617492676
1700852404342245400,8.706245361328126,3.3428328037261963,-4.445130348205566,-3.397221565246582
1700852404359237000,8.723237060546875,3.2448370456695557,-4.396709442138672,-4.491665840148926
1700852404376229600,8.740229736328125,3.4690756797790527,-4.301787376403809,-5.316617488861084
1700852404393221000,8.75722119140625,3.6727962493896484,-4.206355094909668,-5.636531829833984
1700852404410214000,8.7742138671875,3.848604202270508,-4.265328407287598,-5.475725173950195
1700852404427205600,8.79120556640625,4.041863441467285,-4.000743389129639,-5.708473205566406
1700852404444198000,8.808197998046875,4.086639404296875,-3.960519790649414,-5.798572540283203
1700852404461189600,8.825189697265625,4.018693923950195,-4.029966354370117,-5.965096473693848
1700852404478182100,8.84218212890625,4.126192569732666,-4.087636470794678,-6.017995834350586
1700852404495173600,8.859173583984376,4.308699131011963,-4.254826545715332,-5.986534595489502
1700852404512166400,8.87616650390625,4.5727996826171875,-4.578852653503418,-5.754837512969971
1700852404529157600,8.89315771484375,4.885162353515625,-4.809759140014648,-5.341564178466797
1700852404546150700,8.910150634765625,5.26060676574707,-4.938190937042236,-5.019691467285156
1700852404563142000,8.927141845703124,5.351646423339844,-5.134012699127197,-4.875607490539551
1700852404580134700,8.944134765625,5.400387763977051,-5.471153259277344,-4.756063938140869
1700852404597126100,8.961126220703125,5.112391471862793,-6.3881144523620605,-4.614467620849609
1700852404614118700,8.97811865234375,4.598511219024658,-7.092289447784424,-4.517476558685303
1700852404631103500,8.995103515625,3.8510382175445557,-7.316658020019531,-4.430661678314209
1700852404648103000,9.01210302734375,3.1783716678619385,-7.440709590911865,-3.6595420837402344
1700852404665094400,9.029094482421876,2.1183106899261475,-8.037416458129883,-2.432406425476074
1700852404682076700,9.04607666015625,1.458848237991333,-7.794327735900879,-2.5345582962036133
1700852404699078400,9.063078369140625,1.3023810386657715,-7.768308639526367,-2.417804718017578
1700852404716071200,9.0800712890625,1.0807764530181885,-7.5725531578063965,-1.8357744216918945
1700852404733062400,9.0970625,0.6062803268432617,-7.788958549499512,-0.44833946228027344
1700852404750055200,9.11405517578125,0.38020822405815125,-7.879019737243652,1.262190818786621
1700852404767047000,9.131046875,0.6839109063148499,-7.5876383781433105,3.1886959075927734
1700852404784039400,9.148039306640625,0.8908549547195435,-6.850800037384033,4.343720436096191
1700852404801031000,9.165031005859374,0.637097954750061,-5.526653289794922,4.517871856689453
1700852404818023400,9.1820234375,0.0031995773315429688,-3.9973959922790527,4.461093902587891
1700852404835015200,9.19901513671875,-0.48426753282546997,-2.338446617126465,4.521803855895996
1700852404852008000,9.216008056640625,-1.21996009349823,-1.013031005859375,4.6451873779296875
1700852404868999200,9.232999267578125,-1.617258906364441,0.08135557174682617,5.0015740394592285
1700852404885991700,9.24999169921875,-1.7623872756958008,1.000737190246582,5.522736549377441
1700852404902983400,9.2669833984375,-1.6558990478515625,1.7038898468017578,5.279270172119141
1700852404919976000,9.283975830078125,-1.5995573997497559,1.9601454734802246,4.78944206237793
1700852404936967400,9.300967529296875,-1.5410948991775513,2.1641979217529297,4.452999591827393
1700852404953957400,9.317957275390626,-1.3974334001541138,2.5817208290100098,4.390629768371582
1700852404970954200,9.334954345703125,-1.4954203367233276,3.0189852714538574,4.946231842041016
1700852404987944200,9.351944091796875,-1.6776514053344727,3.567234992980957,5.863662242889404
1700852405004935400,9.368935302734375,-2.2598791122436523,4.122891902923584,6.478411674499512
1700852405021928200,9.38592822265625,-2.742584705352783,4.638715744018555,6.838443756103516
1700852405038907400,9.402907470703125,-3.049898147583008,5.196303367614746,7.003907203674316
1700852405055914200,9.419914306640624,-3.3055148124694824,5.654806613922119,7.436523914337158
1700852405072904000,9.436904052734375,-3.461418628692627,6.042060375213623,8.394804954528809
1700852405089891800,9.453891845703126,-3.3244709968566895,6.257016658782959,9.834051132202148
1700852405106875400,9.47087548828125,-3.060685157775879,6.3753485679626465,10.987696647644043
1700852405123871200,9.487871337890626,-2.8606796264648438,6.748077392578125,10.913710594177246
1700852405140862700,9.50486279296875,-2.7677085399627686,6.603774070739746,10.321128845214844
1700852405157859300,9.521859375,-2.531869888305664,5.137399673461914,10.381126403808594
1700852405174850300,9.538850341796875,-2.0707287788391113,3.4219093322753906,10.354707717895508
1700852405191845600,9.555845703125,-1.4575804471969604,2.4586715698242188,10.871858596801758
1700852405208836900,9.5728369140625,-1.2270535230636597,1.852318286895752,11.687994003295898
1700852405225826000,9.589825927734376,-1.1087530851364136,1.536421775817871,11.56201171875
1700852405242815000,9.60681494140625,-0.6453820466995239,1.000432014465332,11.162317276000977
1700852405259819000,9.623819091796875,0.14814817905426025,0.004990577697753906,10.749171257019043
1700852405276808400,9.640808349609374,1.2562222480773926,-1.307847023010254,10.51236343383789
1700852405293789000,9.657788818359375,2.069350004196167,-2.9300613403320312,10.522382736206055
1700852405310788400,9.674788330078124,2.4597058296203613,-4.053696632385254,9.84341812133789
1700852405327783000,9.691782958984374,2.4603638648986816,-4.469442844390869,8.110023498535156
1700852405344778800,9.70877880859375,2.516261339187622,-4.31925630569458,6.097184658050537
1700852405361770000,9.72577001953125,2.5398645401000977,-3.975126266479492,4.240846633911133
1700852405378750200,9.742750244140625,2.642057180404663,-3.6801557540893555,2.4346866607666016
1700852405395753500,9.75975341796875,2.882028341293335,-3.2009811401367188,0.9104413986206055
1700852405412748500,9.77674853515625,2.9163479804992676,-3.039483070373535,-0.15799427032470703
1700852405429737500,9.793737548828124,2.8107352256774902,-3.0293288230895996,-1.002309799194336
1700852405446729200,9.810729248046876,2.759612560272217,-3.089017868041992,-1.7844271659851074
1700852405463721700,9.8277216796875,2.833883047103882,-3.2441787719726562,-2.3163204193115234
1700852405480713200,9.844713134765625,2.8538808822631836,-3.2455711364746094,-3.068824291229248
1700852405497698000,9.861697998046875,3.0201258659362793,-3.2450528144836426,-4.014150619506836
1700852405514695000,9.87869482421875,3.3463797569274902,-3.146394968032837,-4.754576206207275
1700852405531692500,9.895692626953124,3.613844633102417,-3.2031326293945312,-5.048654556274414
1700852405548681500,9.912681396484375,3.833385467529297,-3.194051742553711,-5.34246826171875
1700852405565674000,9.929674072265625,3.969705104827881,-3.308624505996704,-5.528887748718262
1700852405582665500,9.94666552734375,4.093421459197998,-3.4505741596221924,-5.57889461517334
1700852405599658000,9.963657958984374,4.390377044677734,-3.6344499588012695,-5.545018196105957
1700852405616644900,9.980644775390624,4.597982406616211,-3.8977952003479004,-5.408044815063477
1700852405633644000,9.99764404296875,4.791748523712158,-4.307919502258301,-5.363831520080566
1700852405650625500,10.01462548828125,4.988418102264404,-4.711069583892822,-5.261440277099609
1700852405667626200,10.031626220703124,5.11094856262207,-5.242653846740723,-5.067103862762451
1700852405684618000,10.048617919921876,5.435882091522217,-5.6775712966918945,-4.585986137390137
1700852405701610500,10.065610595703125,5.907848358154297,-6.002153396606445,-3.8555665016174316
1700852405718602000,10.08260205078125,5.647538185119629,-6.534104824066162,-3.2402172088623047
1700852405735584000,10.099583984375,4.5906267166137695,-6.768736362457275,-3.6329073905944824
1700852405752586200,10.116586181640624,3.72605037689209,-6.582602500915527,-4.458458423614502
1700852405769578500,10.13357861328125,2.7026212215423584,-6.9444098472595215,-4.231738567352295
1700852405786570200,10.1505703125,1.5708354711532593,-7.638620376586914,-3.1360201835632324
1700852405803552500,10.167552490234375,1.0391936302185059,-7.805893421173096,-2.1062960624694824
1700852405820554800,10.1845546875,1.4209599494934082,-7.985528945922852,-1.319253921508789
1700852405837552600,10.201552734375,2.021333694458008,-8.130990982055664,-0.1965341567993164
1700852405854536400,10.218536376953125,1.893465280532837,-8.021965980529785,1.023676872253418
1700852405871531000,10.235531005859375,0.4856802523136139,-7.72576379776001,2.0001211166381836
1700852405888522500,10.2525224609375,-0.7076956033706665,-7.287464141845703,3.254330635070801
1700852405905514800,10.2695146484375,-0.9119731187820435,-6.530556678771973,4.466645240783691
1700852405922506500,10.286506591796876,-0.3666474223136902,-5.078673362731934,5.047438621520996
1700852405939499000,10.3034990234375,-0.014131337404251099,-3.2936606407165527,4.8679046630859375
1700852405956490800,10.32049072265625,0.02410869300365448,-1.7959227561950684,4.468052864074707
1700852405973482200,10.337482177734374,-0.1980762928724289,-0.5473289489746094,4.1849212646484375
1700852405990473000,10.354472900390626,-0.986988365650177,0.43639278411865234,3.938096046447754
1700852406007470000,10.371469970703124,-1.950637698173523,1.2882194519042969,3.8609347343444824
1700852406024448000,10.388447998046875,-2.863168716430664,2.0107040405273438,3.9064784049987793
1700852406041451300,10.405451171875,-3.2921700477600098,2.542635440826416,3.9156956672668457
1700852406058442800,10.42244287109375,-3.2741434574127197,2.9013314247131348,4.0522541999816895
1700852406075435500,10.439435546875,-3.0516090393066406,3.205686092376709,3.938621997833252
1700852406092416300,10.456416259765625,-2.724465847015381,3.5254406929016113,4.138041973114014
1700852406109419500,10.47341943359375,-2.8165440559387207,3.8580918312072754,4.803083896636963
1700852406126411300,10.490411376953125,-3.557403564453125,4.058248996734619,5.764012813568115
1700852406143403500,10.507403564453124,-4.5936150550842285,4.3087921142578125,6.559363842010498
1700852406160395300,10.524395263671876,-5.164484977722168,4.41311502456665,7.364350318908691
1700852406177387500,10.541387451171875,-4.917923927307129,4.629878044128418,8.172595977783203
1700852406194379300,10.558379150390625,-3.9684019088745117,5.123604774475098,8.935325622558594
1700852406211363600,10.575363525390625,-2.7543106079101562,5.66728401184082,9.365198135375977
1700852406228353800,10.592353759765626,-1.7023974657058716,5.984881401062012,9.754998207092285
1700852406245346300,10.60934619140625,-0.7908209562301636,6.314449787139893,9.743950843811035
1700852406262339600,10.626339599609375,-0.3177123963832855,6.16092586517334,9.899155616760254
1700852406279330300,10.643330322265625,-0.3189454674720764,4.8346638679504395,10.606250762939453
1700852406296322000,10.660322021484374,-0.46099045872688293,3.421079635620117,11.058402061462402
1700852406313313500,10.6773134765625,-0.6836031079292297,2.9820775985717773,10.99283218383789
1700852406330308400,10.694308349609376,-1.4517419338226318,2.2174668312072754,11.464617729187012
1700852406347299800,10.7112998046875,-2.0826573371887207,1.8557629585266113,11.135587692260742
1700852406364291000,10.728291015625,-2.2178571224212646,1.2396464347839355,10.693161010742188
1700852406381283800,10.745283935546874,-1.4779301881790161,0.4427218437194824,10.14178466796875
1700852406398274300,10.7622744140625,-0.3616594672203064,-0.9064779281616211,9.762161254882812
1700852406415271400,10.779271484375,0.7050540447235107,-2.4789485931396484,9.458243370056152
1700852406432257800,10.7962578125,1.59177565574646,-3.722627639770508,8.676338195800781
1700852406449252400,10.81325244140625,2.101125955581665,-4.214332103729248,7.206638336181641
1700852406466241300,10.8302412109375,2.2959325313568115,-4.317440032958984,5.875434875488281
1700852406483244000,10.847244140625,2.1284337043762207,-3.9211230278015137,4.269348621368408
1700852406500235800,10.86423583984375,1.7231193780899048,-3.4632887840270996,2.770986557006836
1700852406517228300,10.881228271484375,1.3747704029083252,-2.962514877319336,1.4099626541137695
1700852406534219800,10.8982197265625,1.0142744779586792,-2.764382839202881,0.14997100830078125
1700852406551212800,10.915212890625,1.1273484230041504,-2.77986216545105,-1.1458921432495117
1700852406568203800,10.932203857421875,1.4847474098205566,-3.054154396057129,-2.3929362297058105
1700852406585194000,10.949194091796874,1.9874229431152344,-3.3191306591033936,-3.478677272796631
1700852406602190800,10.96619091796875,2.3480825424194336,-3.4155523777008057,-4.46211576461792
1700852406619180500,10.9831806640625,2.3697521686553955,-3.3952369689941406,-5.273311614990234
1700852406636172000,11.000172119140625,2.4397976398468018,-3.207301616668701,-5.937591075897217
1700852406653176600,11.017176513671876,2.3982090950012207,-3.057297706604004,-6.462523460388184
1700852406670153700,11.03415380859375,2.6359076499938965,-2.903198480606079,-6.755192279815674
1700852406687151000,11.051151123046875,2.954176425933838,-2.816521644592285,-6.816088676452637
1700852406704140300,11.068140380859376,3.127753973007202,-2.896883964538574,-6.749948501586914
1700852406721130200,11.085130126953125,3.405458450317383,-2.9862139225006104,-6.6398491859436035
1700852406738126800,11.102126953125,3.6962456703186035,-3.0633504390716553,-6.369131088256836
1700852406755116800,11.11911669921875,3.962056875228882,-3.2376060485839844,-6.025547981262207
1700852406772105700,11.136105712890625,4.0118489265441895,-3.551818609237671,-5.789329528808594
1700852406789103600,11.153103515625,3.997756242752075,-4.090139389038086,-5.712404251098633
1700852406806092300,11.17009228515625,4.30975866317749,-4.55109167098999,-5.532870292663574
1700852406823084800,11.187084716796875,4.6525468826293945,-4.965898036956787,-5.086196422576904
1700852406840061000,11.20406103515625,4.769219398498535,-5.649590015411377,-3.9319729804992676
1700852406857069000,11.221069091796876,4.118340492248535,-6.527258396148682,-2.6480603218078613
1700852406874060500,11.238060546875,3.4791364669799805,-6.581900596618652,-2.175924777984619
1700852406891052800,11.255052734375,3.093280553817749,-6.603288173675537,-1.7146148681640625
1700852406908044800,11.272044921875,2.340139865875244,-7.0603718757629395,-0.6613245010375977
1700852406925037000,11.289037109375,1.8058627843856812,-6.570743560791016,-0.29569149017333984
1700852406942028500,11.306028564453126,1.4270579814910889,-6.115118980407715,0.43054771423339844
1700852406959021000,11.32302099609375,0.7401707768440247,-5.989611625671387,1.4790229797363281
1700852406976012500,11.340012451171875,0.3051639795303345,-5.982363224029541,2.387096405029297
1700852406993005300,11.35700537109375,0.22232180833816528,-5.871872901916504,3.0223474502563477
1700852407009996800,11.373996826171876,0.536022424697876,-5.699510097503662,3.861471176147461
1700852407026989300,11.3909892578125,0.8700300455093384,-4.819717884063721,4.14818000793457
1700852407043980800,11.407980712890625,0.546638011932373,-3.432002544403076,3.9533700942993164
1700852407060973300,11.424973388671875,-0.08658775687217712,-1.8005585670471191,3.9036598205566406
1700852407077954000,11.4419541015625,-0.7114711403846741,-0.20888185501098633,3.816049575805664
1700852407094957300,11.458957275390626,-1.3734458684921265,1.0104866027832031,3.4956088066101074
1700852407111948800,11.47594873046875,-1.8070855140686035,1.8734698295593262,2.9265174865722656
1700852407128941300,11.49294140625,-1.8823788166046143,2.226029396057129,2.3337602615356445
1700852407145922600,11.509922607421874,-1.5543771982192993,2.308868885040283,1.855268955230713
1700852407162925600,11.526925537109374,-0.9761890172958374,2.4332895278930664,1.5968704223632812
1700852407179917300,11.543917236328125,-0.6914010047912598,2.52577543258667,1.9668965339660645
1700852407196909600,11.56090966796875,-0.7315547466278076,2.9004855155944824,2.694612503051758
1700852407213912300,11.577912353515625,-1.1641210317611694,3.4039220809936523,3.2779760360717773
1700852407230902000,11.594902099609374,-1.9574763774871826,3.7587385177612305,3.780975818634033
1700852407247885000,11.611885009765626,-2.7009479999542236,4.061592102050781,4.501813888549805
1700852407264877600,11.628877685546875,-3.3330154418945312,4.292377471923828,5.3140668869018555
1700852407281869300,11.645869384765625,-3.750596523284912,4.50324821472168,6.221485614776611
1700852407298851000,11.66285107421875,-3.920872688293457,4.719099521636963,7.090838432312012
1700852407315853000,11.67985302734375,-3.895045757293701,5.026554107666016,8.085288047790527
1700852407332844000,11.696843994140625,-3.697221279144287,5.337646484375,8.996326446533203
1700852407349838800,11.7138388671875,-3.8787736892700195,5.456062316894531,9.491997718811035
1700852407366827300,11.7308271484375,-3.78922963142395,5.5468854904174805,9.785632133483887
1700852407383821300,11.7478212890625,-3.6693081855773926,5.640494346618652,9.845956802368164
1700852407400811500,11.7648115234375,-3.3617358207702637,4.8248209953308105,10.224778175354004
1700852407417803500,11.781803466796875,-3.0709285736083984,3.230556011199951,10.697578430175781
1700852407434797800,11.7987978515625,-2.440591335296631,1.8797755241394043,10.966188430786133
1700852407451789300,11.815789306640625,-1.8214476108551025,1.2308382987976074,11.273743629455566
1700852407468781800,11.83278173828125,-1.6070584058761597,1.1478776931762695,11.274799346923828
1700852407485773000,11.84977294921875,-1.433566689491272,1.0017261505126953,10.972408294677734
1700852407502765800,11.866765869140625,-1.0642858743667603,0.10741138458251953,10.775934219360352
1700852407519765500,11.883765625,-0.27944329380989075,-1.3312468528747559,10.742185592651367
1700852407536746200,11.900746337890626,0.5666568279266357,-2.9312233924865723,10.588577270507812
1700852407553738800,11.91773876953125,1.4322338104248047,-4.178436756134033,10.00796127319336
1700852407570739000,11.934739013671875,2.1555213928222656,-4.446757793426514,8.536628723144531
1700852407587723000,11.951722900390624,2.8609673976898193,-4.098128795623779,6.67414665222168
1700852407604718000,11.968718017578125,3.287855386734009,-3.553194999694824,4.774635314941406
1700852407621694500,11.985694580078125,3.3424952030181885,-3.0200929641723633,2.8638248443603516
1700852407638691300,12.00269140625,3.0168685913085938,-2.5581254959106445,1.2347936630249023
1700852407655693600,12.019693603515625,2.5913772583007812,-2.2007975578308105,-0.19275760650634766
1700852407672686000,12.03668603515625,2.335308074951172,-1.9685306549072266,-1.4015302658081055
1700852407689677300,12.05367724609375,2.39845871925354,-1.8009591102600098,-2.5686426162719727
1700852407706669800,12.070669921875,2.691917896270752,-1.9306542873382568,-3.400308132171631
1700852407723661300,12.087661376953125,3.020462989807129,-2.023864984512329,-4.068633556365967
1700852407740654000,12.104654052734375,3.597445487976074,-2.0070414543151855,-4.560333251953125
1700852407757645300,12.121645263671875,3.79901385307312,-2.0578770637512207,-4.8650221824646
1700852407774635300,12.13863525390625,3.819584369659424,-1.9499578475952148,-5.39166259765625
1700852407791632400,12.15563232421875,3.748175621032715,-1.8117632865905762,-5.9415130615234375
1700852407808622000,12.1726220703125,3.5045690536499023,-1.901339054107666,-6.188679218292236
1700852407825613800,12.18961376953125,3.4236481189727783,-2.0820465087890625,-6.337337970733643
1700852407842606300,12.2066064453125,3.664975166320801,-2.274311065673828,-6.41799259185791
1700852407859597600,12.22359765625,4.0760722160339355,-2.5494089126586914,-6.15017557144165
1700852407876590000,12.240590087890626,4.601141929626465,-2.7614541053771973,-5.479106426239014
1700852407893579300,12.257579345703125,4.862851142883301,-2.924558639526367,-4.906399250030518
1700852407910576400,12.274576416015625,4.792230606079102,-3.2759222984313965,-4.691795825958252
1700852407927565800,12.29156591796875,4.7894415855407715,-3.807492733001709,-4.726160526275635
1700852407944555800,12.3085556640625,5.362859725952148,-4.357697486877441,-4.401647567749023
1700852407961552400,12.325552490234376,5.556646347045898,-5.2992401123046875,-3.4489097595214844
1700852407978542300,12.342542236328125,4.729677677154541,-5.912834167480469,-3.1515822410583496
1700852407995533800,12.359533935546875,4.285311698913574,-5.772904396057129,-3.653585433959961
1700852408012526000,12.376526123046874,4.091318130493164,-5.928662300109863,-3.2468209266662598
1700852408029517800,12.393517822265625,3.0570383071899414,-6.616407871246338,-1.6125297546386719
1700852408046510300,12.41051025390625,1.9715956449508667,-6.629949569702148,-0.5759353637695312
1700852408063501600,12.42750146484375,0.36759519577026367,-6.212079048156738,-0.3605527877807617
1700852408080491500,12.444491455078126,-1.7701719999313354,-6.178304672241211,-0.03476905822753906
1700852408097488400,12.46148828125,-3.2412354946136475,-6.190652847290039,0.6314697265625
1700852408114466000,12.478466064453125,-3.167402744293213,-6.331708908081055,2.225433349609375
1700852408131471400,12.495471435546875,-1.7032885551452637,-6.004546165466309,3.6749162673950195
1700852408148462300,12.51246240234375,-0.37875741720199585,-5.484210968017578,4.700472831726074
1700852408165453800,12.529453857421874,0.6078298091888428,-4.250430107116699,4.4822845458984375
1700852408182446000,12.546446044921876,1.0623958110809326,-2.816135883331299,3.733915328979492
1700852408199437800,12.563437744140625,0.7802318334579468,-1.2431349754333496,2.6770801544189453
1700852408216430000,12.58043017578125,0.5020804405212402,0.10565853118896484,1.9750399589538574
1700852408233421800,12.597421875,0.5942622423171997,1.1096110343933105,1.9283599853515625
1700852408250414000,12.6144140625,0.8660286664962769,1.727766513824463,2.253100872039795
1700852408267395000,12.63139501953125,1.1056013107299805,2.104421615600586,2.469780445098877
1700852408284398300,12.6483984375,0.9224368929862976,2.2920637130737305,2.366647243499756
1700852408301387800,12.6653876953125,0.36695194244384766,2.3919105529785156,2.177199363708496
1700852408318384000,12.682384033203125,-0.07026466727256775,2.517035484313965,2.2413601875305176
1700852408335373600,12.69937353515625,-0.42824187874794006,2.719547748565674,2.8279895782470703
1700852408352366300,12.716366455078125,-0.7438739538192749,2.9844136238098145,3.763157367706299
1700852408369358000,12.733358154296875,-1.2507553100585938,3.3576607704162598,4.645735740661621
1700852408386339600,12.750339599609376,-1.868652582168579,3.7858028411865234,5.426926136016846
1700852408403334000,12.767333984375,-2.643399715423584,4.157405376434326,6.039225101470947
1700852408420334300,12.784334228515625,-3.2229995727539062,4.4686279296875,6.621757507324219
1700852408437325600,12.80132568359375,-3.4366466999053955,4.730555057525635,7.639310359954834
1700852408454318000,12.818318115234375,-3.3316569328308105,5.0712103843688965,9.039082527160645
1700852408471309800,12.835309814453124,-3.2629904747009277,5.376989841461182,10.334562301635742
1700852408488301600,12.852301513671875,-3.370495080947876,5.863019943237305,11.443609237670898
1700852408505294600,12.869294677734375,-4.276689052581787,6.06082820892334,11.816426277160645
1700852408522286600,12.88628662109375,-4.66208553314209,4.68649959564209,12.690320014953613
1700852408539267300,12.903267333984376,-3.289503812789917,3.3147268295288086,13.14183521270752
1700852408556270600,12.9202705078125,-1.3148691654205322,2.430690288543701,13.104498863220215
1700852408573261800,12.93726171875,0.018002986907958984,2.59609317779541,12.931785583496094
1700852408590267000,12.954266845703126,0.6810453534126282,2.4987545013427734,12.697415351867676
1700852408607233000,12.97123291015625,1.2323482036590576,1.9123382568359375,12.034080505371094
1700852408624228600,12.988228515625,1.6173734664916992,0.4709157943725586,11.132049560546875
1700852408641220900,13.005220947265625,2.3038535118103027,-1.183415412902832,10.820650100708008
1700852408658212000,13.022212158203125,2.5620951652526855,-2.7928128242492676,10.873140335083008
1700852408675204600,13.03920458984375,2.4108293056488037,-3.8020057678222656,10.288164138793945
1700852408692198700,13.05619873046875,2.3212029933929443,-4.022613048553467,8.757299423217773
1700852408709190100,13.073190185546874,2.256101131439209,-3.8768763542175293,6.585041046142578
1700852408726183400,13.090183349609376,2.5228378772735596,-3.388601303100586,4.132987022399902
1700852408743184100,13.10718408203125,2.833876848220825,-2.969207286834717,2.1848344802856445
1700852408760174000,13.124174072265625,2.8904671669006348,-2.79274845123291,0.7875223159790039
1700852408777165600,13.14116552734375,2.586813449859619,-2.6336755752563477,-0.5082063674926758
1700852408794165000,13.1581650390625,2.138669013977051,-2.5971078872680664,-1.6146302223205566
1700852408811149800,13.17514990234375,1.91495680809021,-2.555251121520996,-2.477393627166748
1700852408828142300,13.192142333984375,1.7836885452270508,-2.678410053253174,-2.9173526763916016
1700852408845133800,13.2091337890625,1.8468554019927979,-2.612617254257202,-3.864593505859375
1700852408862126000,13.2261259765625,1.9931036233901978,-2.541180372238159,-4.679068088531494
1700852408879115000,13.243114990234375,2.05753755569458,-2.4545257091522217,-5.238811016082764
1700852408896113000,13.26011279296875,2.201437473297119,-2.378654956817627,-5.5742340087890625
1700852408913101300,13.277101318359374,2.321965217590332,-2.529202461242676,-5.646997451782227
1700852408930094000,13.294093994140624,2.6430375576019287,-2.733889579772949,-5.391107559204102
1700852408947085600,13.31108544921875,3.1501264572143555,-2.902212381362915,-5.274784088134766
1700852408964074200,13.32807421875,3.5974228382110596,-3.0956151485443115,-5.361615180969238
1700852408981071600,13.345071533203125,3.9901089668273926,-3.4498682022094727,-5.412240505218506
1700852408998060300,13.362060302734376,4.418841361999512,-3.911649227142334,-5.357151985168457
1700852409015053600,13.379053466796876,4.93154239654541,-4.499847888946533,-5.022932052612305
1700852409032046000,13.396046142578125,5.473248481750488,-5.036160945892334,-4.416840076446533
1700852409049026800,13.41302685546875,5.75446891784668,-5.410768508911133,-3.8275065422058105
1700852409066021600,13.430021728515625,5.867279052734375,-5.926668167114258,-3.297130584716797
1700852409083021600,13.447021484375,5.144539833068848,-6.679502010345459,-3.0289993286132812
1700852409100011500,13.464011474609375,4.198196887969971,-6.692481994628906,-3.592742919921875
1700852409117008000,13.4810078125,3.72344970703125,-6.609379768371582,-3.828004837036133
1700852409133998000,13.497998046875,3.709188461303711,-7.026761054992676,-2.85776948928833
1700852409150989300,13.5149892578125,3.6331191062927246,-7.16670560836792,-1.5086584091186523
1700852409167963000,13.531962890625,3.2526206970214844,-6.558444976806641,-1.0297985076904297
1700852409184971000,13.548970947265625,2.119804859161377,-6.517937183380127,-0.845545768737793
1700852409201968600,13.56596875,0.8065154552459717,-6.527550220489502,-0.7660837173461914
1700852409218947000,13.582947021484374,-0.29711759090423584,-6.559718132019043,-0.45764923095703125
1700852409235948800,13.59994873046875,-0.7167841792106628,-6.623837471008301,0.3491706848144531
1700852409252942600,13.616942626953126,0.03959465026855469,-6.5290632247924805,1.8548688888549805
1700852409269934000,13.63393408203125,0.99579918384552,-5.896787166595459,3.0757646560668945
1700852409286925600,13.650925537109375,1.4742012023925781,-4.585604190826416,3.464413642883301
1700852409303917800,13.667917724609374,0.9377812743186951,-3.051234245300293,3.218358039855957
1700852409320909600,13.68490966796875,0.0718633383512497,-1.6280736923217773,3.301816940307617
1700852409337892400,13.701892333984375,-0.6855692863464355,-0.3378119468688965,3.4621238708496094
1700852409354892000,13.71889208984375,-1.309701919555664,0.6799130439758301,3.9086151123046875
1700852409371887600,13.7358876953125,-1.7957465648651123,1.3972468376159668,4.324886798858643
1700852409388875500,13.75287548828125,-2.0551979541778564,2.011237621307373,4.618894100189209
1700852409405869800,13.769869873046876,-2.2505786418914795,2.2656736373901367,4.773829460144043
1700852409422861000,13.786861083984375,-2.194821834564209,2.5791707038879395,4.7523884773254395
1700852409439853800,13.803853759765625,-2.0750486850738525,2.930647850036621,5.287162780761719
1700852409456845000,13.820844970703124,-2.1916677951812744,3.2697911262512207,5.852368354797363
1700852409473837600,13.837837646484376,-2.493971824645996,3.620161533355713,6.451605796813965
1700852409490829000,13.8548291015625,-3.185177803039551,3.930412769317627,7.301741600036621
1700852409507818800,13.87181884765625,-3.825791835784912,4.22638463973999,8.278363227844238
1700852409524816100,13.888816162109375,-4.391951560974121,4.554987907409668,9.060232162475586
1700852409541794800,13.905794921875,-4.689733028411865,4.859372615814209,9.872979164123535
1700852409558786300,13.922786376953125,-4.76291561126709,5.235159873962402,10.794443130493164
1700852409575789800,13.939789794921875,-4.637434959411621,5.674283027648926,11.426504135131836
1700852409592781000,13.956781005859375,-4.423933982849121,5.827864646911621,11.608015060424805
1700852409609773300,13.973773193359374,-3.784416913986206,5.9140167236328125,11.275398254394531
1700852409626765000,13.99076513671875,-3.098741292953491,5.923370361328125,10.373636245727539
1700852409643757600,14.007757568359375,-2.484370470046997,5.147881031036377,9.638348579406738
1700852409660749000,14.0247490234375,-1.9293791055679321,3.3316726684570312,9.669208526611328
1700852409677730600,14.04173046875,-1.061687707901001,2.129605293273926,9.468061447143555
1700852409694720000,14.058719970703125,-0.7644048929214478,1.030517578125,10.019172668457031
1700852409711717400,14.07571728515625,-1.3884609937667847,0.9236388206481934,10.304389953613281
1700852409728707600,14.09270751953125,-2.056729793548584,1.282214641571045,9.86489486694336
1700852409745699600,14.109699462890624,-2.0451745986938477,0.9735746383666992,9.723783493041992
1700852409762692900,14.12669287109375,-1.471726655960083,-0.07785511016845703,9.742392539978027
1700852409779693300,14.143693359375,-0.5065053105354309,-1.7057228088378906,9.79532241821289
1700852409796677000,14.160677001953125,0.767768144607544,-3.3706536293029785,9.566472053527832
1700852409813667000,14.1776669921875,1.941748023033142,-4.439064025878906,8.683076858520508
1700852409830659000,14.1946591796875,2.8681564331054688,-4.64647912979126,7.289627552032471
1700852409847653400,14.2116533203125,3.3920068740844727,-4.172795295715332,5.571120262145996
1700852409864644900,14.228644775390626,3.477299213409424,-3.6327481269836426,3.841855049133301
1700852409881635600,14.245635498046875,3.192643880844116,-3.3901453018188477,2.1400375366210938
1700852409898627600,14.262627685546875,3.011706829071045,-3.1732354164123535,0.5869112014770508
1700852409915618600,14.27961865234375,3.06931734085083,-3.174744129180908,-0.5711798667907715
1700852409932614100,14.2966142578125,3.2409913539886475,-3.1317992210388184,-1.5271239280700684
1700852409949614800,14.31361474609375,3.266108274459839,-2.998598337173462,-2.4686741828918457
1700852409966604500,14.3306044921875,3.1415467262268066,-2.8503921031951904,-3.328798770904541
1700852409983597000,14.34759716796875,3.0397796630859375,-2.916477680206299,-3.8504762649536133
1700852410000588500,14.364588623046876,3.1512768268585205,-2.983732223510742,-4.508373737335205
1700852410017570300,14.3815703125,3.4036102294921875,-2.9888250827789307,-5.229166507720947
1700852410034569700,14.39856982421875,3.5867671966552734,-2.916379451751709,-5.855492115020752
1700852410051567600,14.415567626953125,3.773375988006592,-2.963392972946167,-6.162965774536133
1700852410068556300,14.432556396484374,3.967496871948242,-3.103519916534424,-6.320025444030762
1700852410085548800,14.449548828125,4.0718607902526855,-3.4303789138793945,-6.399755954742432
1700852410102540500,14.46654052734375,4.053739070892334,-3.748213291168213,-6.5762224197387695
1700852410119532500,14.483532470703125,4.112554550170898,-3.9685747623443604,-6.682878494262695
1700852410136524000,14.50052392578125,4.075809955596924,-4.111774444580078,-6.71144962310791
1700852410153519400,14.517519287109375,3.959404945373535,-4.297141075134277,-6.537289619445801
1700852410170505500,14.53450537109375,3.845658779144287,-4.605514049530029,-6.330270290374756
1700852410187490600,14.551490478515625,4.003901958465576,-4.756108283996582,-6.0822649002075195
1700852410204492000,14.568491943359374,4.2677202224731445,-5.1482157707214355,-5.490713596343994
1700852410221474000,14.58547412109375,4.060328960418701,-6.120336532592773,-4.2108988761901855
1700852410238476000,14.60247607421875,3.4816174507141113,-6.367660045623779,-3.9683966636657715
1700852410255468500,14.619468505859375,3.3779921531677246,-6.156203746795654,-3.6708579063415527
1700852410272459800,14.636459716796875,2.691384792327881,-6.999186992645264,-2.027456760406494
1700852410289452500,14.65345263671875,1.4544827938079834,-7.249161243438721,-0.6960468292236328
1700852410306441200,14.670441162109375,0.7363084554672241,-6.826864242553711,-0.1350851058959961
1700852410323438800,14.68743896484375,0.09534764289855957,-6.829132080078125,0.6190309524536133
1700852410340425000,14.704425048828124,-0.4579352140426636,-6.664384841918945,1.4924077987670898
1700852410357420000,14.721419921875,-0.673309326171875,-6.570101737976074,2.934231758117676
1700852410374407700,14.73840771484375,-0.3810548782348633,-6.267772197723389,4.649452209472656
1700852410391406600,14.755406494140624,-0.4412827491760254,-5.798460483551025,5.727991104125977
1700852410408395800,14.772395751953125,-0.6623042225837708,-4.5186614990234375,5.6651506423950195
1700852410425388000,14.789387939453125,-1.2740769386291504,-2.786406993865967,4.947506904602051
1700852410442369300,14.806369384765626,-1.5589683055877686,-1.086108684539795,4.171776294708252
1700852410459372000,14.8233720703125,-1.743563175201416,0.37902355194091797,3.552497386932373
1700852410476362500,14.840362548828125,-1.774839162826538,1.41302490234375,3.0754075050354004
1700852410493354500,14.8573544921875,-1.5432336330413818,2.0179290771484375,2.7647151947021484
1700852410510347300,14.87434716796875,-1.108896255493164,2.3428592681884766,2.5809683799743652
1700852410527342600,14.891342529296875,-0.6368420720100403,2.5527405738830566,2.3646340370178223
1700852410544334600,14.90833447265625,-0.24715936183929443,2.6951756477355957,2.3436765670776367
1700852410561310200,14.925310302734376,0.1674935221672058,2.7860355377197266,2.8335790634155273
1700852410578315000,14.94231494140625,0.41201138496398926,3.2199788093566895,3.7000269889831543
1700852410595297300,14.95929736328125,-0.082114577293396,3.609682083129883,4.757372856140137
1700852410612299000,14.976299072265626,-0.9147381782531738,4.018725872039795,5.662850379943848
1700852410629291500,14.99329150390625,-1.9461544752120972,4.375783920288086,6.409739017486572
1700852410646283000,15.010282958984375,-2.6717729568481445,4.580692768096924,7.1765875816345215
1700852410663275800,15.02727587890625,-2.9929399490356445,4.7790913581848145,8.078811645507812
1700852410680267000,15.04426708984375,-3.2265024185180664,5.058016300201416,8.991118431091309
1700852410697259500,15.061259521484375,-3.6204538345336914,5.4290056228637695,9.791547775268555
1700852410714251000,15.0782509765625,-4.116132736206055,5.778895854949951,10.040704727172852
1700852410731243300,15.0952431640625,-4.433676719665527,5.7774152755737305,10.094648361206055
1700852410748234800,15.11223486328125,-4.295217514038086,5.754457473754883,9.984575271606445
1700852410765216500,15.129216552734375,-4.008618354797363,5.669132709503174,9.546159744262695
1700852410782218800,15.14621875,-3.9068589210510254,5.344666004180908,8.990482330322266
1700852410799211300,15.163211181640625,-3.71787428855896,3.9898548126220703,9.161752700805664
1700852410816204800,15.180204833984375,-3.4504494667053223,2.844998836517334,8.8857421875
1700852410833193200,15.197193115234375,-3.164425849914551,2.100447177886963,8.790401458740234
1700852410850186500,15.2141865234375,-3.1589975357055664,1.5266923904418945,8.864209175109863
1700852410867179300,15.23117919921875,-2.569878101348877,1.276566982269287,8.883491516113281
1700852410884170500,15.24817041015625,-1.68386709690094,0.8712196350097656,8.877643585205078
1700852410901163000,15.2651630859375,-0.8692994713783264,0.11202049255371094,8.757244110107422
1700852410918154500,15.282154541015625,0.08642256259918213,-0.82574462890625,8.607837677001953
1700852410935149300,15.2991494140625,1.0562002658843994,-2.225113868713379,8.94479751586914
1700852410952136000,15.316135986328124,1.7005457878112793,-3.4902563095092773,9.104902267456055
1700852410969130800,15.333130859375,2.2687649726867676,-4.131627559661865,9.059876441955566
1700852410986122000,15.3501220703125,2.508174419403076,-4.0616774559021,8.88455581665039
1700852411003114500,15.367114501953125,2.4949209690093994,-3.515857219696045,7.846117973327637
1700852411020106000,15.38410595703125,2.2577340602874756,-2.756434917449951,6.501760482788086
1700852411037098500,15.401098388671874,2.013826370239258,-2.1352391242980957,5.047813415527344
1700852411054079700,15.418079833984375,2.16109561920166,-1.890324592590332,4.206138610839844
1700852411071082500,15.43508251953125,2.55905818939209,-1.9733328819274902,4.009912490844727
1700852411088074000,15.452073974609375,2.9134912490844727,-2.205512523651123,4.452277183532715
1700852411105066500,15.46906640625,2.534682035446167,-2.9106674194335938,5.390912055969238
1700852411122047200,15.486047119140625,2.3590481281280518,-3.865841865539551,4.923674583435059
1700852411139050200,15.50305029296875,2.7625796794891357,-5.145712852478027,2.8946657180786133
1700852411156039000,15.520038818359374,4.1417388916015625,-5.975279331207275,1.1021299362182617
1700852411173036500,15.53703662109375,5.232815742492676,-6.242244243621826,0.27292823791503906
1700852411190025700,15.554025634765624,5.402767658233643,-6.099985122680664,0.35051441192626953
1700852411207018200,15.571018310546876,4.017775535583496,-6.4327616691589355,1.598677635192871
1700852411224019000,15.58801904296875,2.478512763977051,-7.432889461517334,2.3681421279907227
1700852411241002000,15.605001953125,1.7398834228515625,-8.089642524719238,0.35860729217529297
1700852411257991700,15.62199169921875,0.843654215335846,-8.608112335205078,-2.2484793663024902
1700852411274988300,15.63898828125,0.2891142964363098,-8.342573165893555,-4.083904266357422
1700852411291977200,15.655977294921875,-0.27564477920532227,-7.710629463195801,-4.322782039642334
1700852411308969700,15.6729697265625,-1.0896579027175903,-7.1864423751831055,-2.80777645111084
1700852411325961200,15.689961181640625,-1.567230463027954,-6.334677696228027,-1.909440517425537
1700852411342953500,15.706953369140624,-2.2182581424713135,-5.57534122467041,-2.3297438621520996
1700852411359945200,15.7239453125,-2.8516151905059814,-4.6600542068481445,-3.3306849002838135
1700852411376937700,15.740937744140625,-3.63789439201355,-3.1333634853363037,-3.7445101737976074
1700852411393918000,15.75791796875,-3.3806073665618896,-1.9670906066894531,-2.9101099967956543
1700852411410921500,15.77492138671875,-1.9525737762451172,-1.131394863128662,-1.3808763027191162
1700852411427910700,15.79191064453125,-1.0438928604125977,-0.9577279090881348,-0.2603261470794678
1700852411444906800,15.80890673828125,-1.2257065773010254,-0.7081818580627441,-0.3118326663970947
1700852411461895700,15.825895751953125,-1.9755959510803223,-0.7715044021606445,-0.5690094232559204
1700852411478891000,15.84289111328125,-2.2371129989624023,-0.3512086868286133,-0.4183192253112793
1700852411495880700,15.859880615234376,-2.4629273414611816,0.22678470611572266,0.17986512184143066
1700852411512873000,15.876873046875,-2.7205185890197754,0.4816708564758301,0.8202977180480957
1700852411529864700,15.89386474609375,-3.201117992401123,0.5478663444519043,1.106410026550293
1700852411546854100,15.910854248046874,-3.6330935955047607,0.3936138153076172,1.1944057941436768
1700852411563851300,15.927851318359375,-3.4109086990356445,0.18062591552734375,1.0557456016540527
1700852411580841000,15.944841064453126,-2.947976589202881,-0.11628198623657227,0.9940387010574341
1700852411597832200,15.961832275390625,-2.5424699783325195,-0.27631235122680664,0.6350924968719482
1700852411614824700,15.97882470703125,-2.5172719955444336,-0.16852188110351562,0.07842147350311279
1700852411631816200,15.995816162109374,-2.7781262397766113,0.04580974578857422,-0.15769577026367188
1700852411648808700,16.01280859375,-3.0650362968444824,0.061894893646240234,0.045247435569763184
1700852411665790000,16.0297900390625,0.00814056396484375,1.1481876373291016,5.749321937561035
1700852411682782700,16.04678271484375,-1.9291653633117676,1.0511751174926758,1.1257736682891846
1700852411699784000,16.063783935546876,-2.5886545181274414,0.9460082054138184,0.43285536766052246
1700852411716766000,16.080765869140624,-2.3529911041259766,0.5986413955688477,0.6474010944366455
1700852411733757200,16.097757080078125,-2.311359405517578,0.530113697052002,-0.4202950596809387
1700852411750760200,16.11476025390625,-1.784517765045166,0.16930580139160156,-1.2231796979904175
1700852411767751700,16.131751708984375,-0.5706019401550293,0.2458338737487793,-1.1115853786468506
1700852411784744200,16.148744140625,-0.24185752868652344,0.39188671112060547,-0.6575409173965454
1700852411801735700,16.165735595703126,-1.6256513595581055,0.7178750038146973,-0.19575601816177368
1700852411818728200,16.182728271484375,-2.5837349891662598,1.0640640258789062,0.21859794855117798
1700852411835719400,16.199719482421877,-2.382441520690918,1.4762520790100098,0.27280473709106445
1700852411852712000,16.2167119140625,-2.0382165908813477,1.6171517372131348,0.21150743961334229
1700852411869703200,16.233703125,-1.6557512283325195,1.5730996131896973,0.17002004384994507
1700852411886677200,16.25067724609375,-1.2627191543579102,1.4653162956237793,-0.34458237886428833
1700852411903687000,16.26768701171875,-0.8025922775268555,1.502148151397705,-0.933543860912323
1700852411920679700,16.2846796875,-0.33437252044677734,1.1482954025268555,-1.2664697170257568
1700852411937671000,16.3016708984375,-0.034110069274902344,0.8256855010986328,-1.7285399436950684
1700852411954663400,16.318663330078124,-1.1145391464233398,0.18803930282592773,-1.8105785846710205
1700852411971653600,16.335653564453125,-2.71858549118042,0.10890531539916992,-1.5006417036056519
1700852411988648700,16.352648681640623,-3.202256202697754,-0.13464975357055664,-2.009814500808716
1700852412005639000,16.369638916015624,-1.806572437286377,-0.7602519989013672,-3.087461471557617
1700852412022634500,16.386634521484375,-0.27396392822265625,-1.9385144710540771,-3.6876182556152344
1700852412039619000,16.403619140625,-0.23520803451538086,-2.5017030239105225,-2.8447799682617188
1700852412056615200,16.420615234375,-3.1802613735198975,-2.633709669113159,-1.51456618309021
1700852412073606400,16.4376064453125,-5.949961185455322,-2.2334492206573486,-0.8907260894775391
1700852412090597600,16.45459765625,-6.519770622253418,-2.26077938079834,-0.7873921394348145
1700852412107592000,16.471592041015626,-3.892937421798706,-2.415130615234375,-1.328373908996582
1700852412124569900,16.48856982421875,0.20511698722839355,-2.737567186355591,-1.4030075073242188
1700852412141566500,16.50556640625,2.9802942276000977,-2.5215837955474854,-0.9027853012084961
1700852412158555100,16.52255517578125,2.4265754222869873,-1.8751211166381836,-0.10306262969970703
1700852412175552300,16.53955224609375,-1.643375277519226,-0.7949228286743164,0.46746063232421875
1700852412192541000,16.556541015625,-5.7529988288879395,-0.8270168304443359,1.3928604125976562
1700852412209534000,16.573533935546877,-5.522102355957031,-0.589064359664917,1.5606155395507812
1700852412226525400,16.590525390625,-2.0950589179992676,-0.07529306411743164,0.22156429290771484
1700852412243516200,16.60751611328125,0.20423263311386108,-0.41021251678466797,-1.1864147186279297
1700852412260520400,16.6245205078125,1.7341289520263672,-0.5047706365585327,-2.6560540199279785
1700852412277509000,16.641509033203125,1.9755005836486816,-0.5933820009231567,-3.656217098236084
1700852412294488300,16.65848828125,1.3781918287277222,-0.9705045819282532,-3.843688488006592
1700852412311487500,16.675487548828126,1.3599286079406738,-1.071087121963501,-2.940478801727295
1700852412328486700,16.692486572265626,0.9546886682510376,-1.046954870223999,-1.5140838623046875
1700852412345476600,16.7094765625,0.5593733787536621,-0.8010342121124268,-0.7939062118530273
1700852412362455800,16.726455810546874,0.27818262577056885,-0.8320967555046082,-1.0368928909301758
1700852412379464000,16.7434638671875,0.24416899681091309,-1.127148151397705,-1.6635618209838867
1700852412396451000,16.760451171875,0.8000595569610596,-1.6534608602523804,-1.7252650260925293
1700852412413447700,16.77744775390625,1.531100869178772,-1.9472405910491943,-0.6602678298950195
1700852412430434800,16.794434814453126,2.119840383529663,-2.4382359981536865,2.3438377380371094
1700852412447432000,16.811431884765625,2.1898996829986572,-2.5976204872131348,4.592833518981934
1700852412464421600,16.828421630859374,2.1566600799560547,-2.6703150272369385,5.154470443725586
1700852412481402000,16.845402099609377,1.6244786977767944,-3.5773329734802246,5.586132049560547
1700852412498405400,16.8624052734375,0.8861554861068726,-4.52519416809082,5.477919578552246
1700852412515396900,16.87939697265625,0.6781060099601746,-4.189479827880859,4.960537910461426
1700852412532378600,16.896378662109374,1.1453574895858765,-3.9547839164733887,5.7350006103515625
1700852412549380400,16.91338037109375,1.603122591972351,-3.5831894874572754,7.22169828414917
1700852412566373000,16.930373046875,2.1968069076538086,-2.374814033508301,7.2788615226745605
1700852412583364400,16.9473642578125,2.369821310043335,-1.6881866455078125,7.314201354980469
1700852412600356900,16.96435693359375,1.922858476638794,-1.1777124404907227,7.310551166534424
1700852412617345800,16.981345703125,0.8563153743743896,-0.6130681037902832,6.734855651855469
1700852412634343400,16.998343505859374,-0.4837290048599243,-0.2463827133178711,6.098394393920898
1700852412651323600,17.01532373046875,-1.1746879816055298,0.1621241569519043,5.7167277336120605
1700852412668324600,17.03232470703125,-1.4567315578460693,0.7913689613342285,5.532814979553223
1700852412685316000,17.049316162109374,-1.664029598236084,1.6415481567382812,5.475107669830322
1700852412702297300,17.06629736328125,-2.0625686645507812,2.5383200645446777,5.02167272567749
1700852412719300900,17.08330078125,-2.1611554622650146,3.6647820472717285,3.7009434700012207
1700852412736292400,17.100292236328126,-2.238831043243408,4.5379838943481445,2.6105990409851074
1700852412753283600,17.11728369140625,-2.1062238216400146,5.187353134155273,1.8773164749145508
1700852412770276400,17.1342763671875,-1.816995620727539,5.596033573150635,1.656637191772461
1700852412787264800,17.1512646484375,-1.5070862770080566,5.775498390197754,1.7940211296081543
1700852412804262400,17.168262451171874,-1.467184066772461,5.8294219970703125,2.0381245613098145
1700852412821241000,17.185240966796876,-1.8965730667114258,5.572157859802246,1.9613409042358398
1700852412838241000,17.202240966796875,-2.4870123863220215,5.1132307052612305,1.7214155197143555
1700852412855235300,17.2192353515625,-2.2856390476226807,4.861647605895996,1.8075275421142578
1700852412872231700,17.236231689453124,-1.7819015979766846,4.838367938995361,2.9040608406066895
1700852412889219000,17.253218994140624,-1.3633614778518677,4.883769989013672,4.143246173858643
1700852412906207500,17.27020751953125,-1.9108481407165527,4.652980804443359,5.019223690032959
1700852412923207000,17.28720703125,-2.3460004329681396,4.326598167419434,5.430514335632324
1700852412940195300,17.3041953125,-2.488959550857544,3.919588565826416,6.020409107208252
1700852412957184300,17.321184326171874,-2.2437658309936523,3.7206945419311523,6.500866413116455
1700852412974182000,17.338181884765625,-2.079867124557495,3.5618529319763184,6.95466423034668
1700852412991162000,17.355162109375,-2.0712454319000244,3.3045907020568848,7.189185619354248
1700852413008163000,17.3721630859375,-2.203409194946289,2.969041347503662,6.868776798248291
1700852413025154600,17.389154541015625,-2.109334707260132,2.632460594177246,6.259448528289795
1700852413042136300,17.40613623046875,-1.5826520919799805,2.0446572303771973,6.070686340332031
1700852413059138300,17.42313818359375,-1.0420629978179932,0.14846181869506836,6.683187484741211
1700852413076130800,17.440130859375,-0.3831602931022644,-1.238354206085205,6.591667175292969
1700852413093122000,17.4571220703125,0.3307645320892334,-2.422663688659668,7.134429931640625
1700852413110114800,17.47411474609375,0.8153906464576721,-2.8643550872802734,7.617806434631348
1700852413127108900,17.49110888671875,0.5555878281593323,-2.539426803588867,7.55839729309082
1700852413144094500,17.508094482421875,0.48710381984710693,-1.8531084060668945,7.381016254425049
1700852413161091000,17.525091064453125,0.8790289759635925,-1.7063827514648438,6.92369270324707
1700852413178079500,17.54207958984375,1.7051451206207275,-2.6067919731140137,6.40720796585083
1700852413195065300,17.5590654296875,2.790334701538086,-4.248993873596191,6.234752655029297
1700852413212055300,17.57605517578125,3.4823625087738037,-5.088098049163818,5.553671836853027
1700852413229048000,17.593048095703125,3.6225624084472656,-4.855431079864502,4.342453956604004
1700852413246038800,17.610038818359374,3.36551570892334,-3.977001667022705,2.6723976135253906
1700852413263031300,17.62703125,3.0174977779388428,-3.026052474975586,1.1326465606689453
1700852413280027000,17.64402685546875,2.799076795578003,-2.205801486968994,0.013932228088378906
1700852413297015600,17.661015625,2.5069103240966797,-1.7920198440551758,-1.01090669631958
1700852413314010000,17.678010009765625,2.1634795665740967,-1.4973092079162598,-2.2523741722106934
1700852413330998800,17.694998779296874,2.0621628761291504,-1.3386220932006836,-3.238851547241211
1700852413347997700,17.711997802734373,2.085273504257202,-1.3995778560638428,-4.011219024658203
1700852413364982800,17.728982666015625,2.289569854736328,-1.455073356628418,-4.744574069976807
1700852413381974500,17.745974609375,2.5166707038879395,-1.437384843826294,-5.257444381713867
1700852413398965800,17.7629658203125,2.710207462310791,-1.282067060470581,-5.78499698638916
1700852413415960000,17.7799599609375,2.654695987701416,-1.2290306091308594,-6.310972213745117
1700852413432950300,17.7969501953125,2.570233106613159,-1.3648889064788818,-6.650783538818359
1700852413449944300,17.8139443359375,2.3247246742248535,-1.647249698638916,-6.930662155151367
1700852413466945800,17.83094580078125,2.413139581680298,-1.8205581903457642,-7.312884330749512
1700852413483937800,17.847937744140626,2.499600887298584,-2.0877537727355957,-7.340651512145996
1700852413500927000,17.864927001953124,2.866840362548828,-2.2429919242858887,-7.258315086364746
1700852413517924400,17.88192431640625,3.0511856079101562,-2.559014320373535,-6.66737174987793
1700852413534907000,17.898906982421874,3.2181639671325684,-3.037259578704834,-5.990896224975586
1700852413551906800,17.91590673828125,3.2433762550354004,-3.7296645641326904,-5.429804801940918
1700852413568895700,17.932895751953126,3.192044496536255,-4.297056674957275,-5.0474042892456055
1700852413585885700,17.9498857421875,3.4336562156677246,-4.610311031341553,-4.991741180419922
1700852413602882000,17.966882080078125,3.9520628452301025,-5.427612781524658,-3.9166746139526367
1700852413619872300,17.983872314453127,3.9712204933166504,-6.476326942443848,-2.104968547821045
1700852413636859400,18.000859375,3.3011317253112793,-6.473334312438965,-1.5409340858459473
1700852413653860000,18.017860107421875,2.543588638305664,-6.650355339050293,-0.8512449264526367
1700852413670844200,18.03484423828125,1.7227356433868408,-7.378288269042969,-0.12151622772216797
1700852413687843000,18.051843017578125,1.5988132953643799,-6.826488018035889,-0.6581087112426758
1700852413704831200,18.068831298828126,2.200087308883667,-6.145037651062012,-0.3777799606323242
1700852413721823500,18.085823486328124,2.490657329559326,-5.852884292602539,1.2105188369750977
1700852413738815000,18.10281494140625,2.180447816848755,-5.395729064941406,2.8807764053344727
1700852413755807500,18.119807373046875,1.4139841794967651,-4.977513790130615,3.7670745849609375
1700852413772798700,18.136798828125,0.38603946566581726,-4.496738433837891,4.013415336608887
1700852413789791200,18.153791259765626,-0.24666479229927063,-3.6622042655944824,3.859893798828125
1700852413806769400,18.170769287109376,-0.5989010334014893,-2.5203194618225098,3.5463128089904785
1700852413823775000,18.18777490234375,-0.547847330570221,-0.9739103317260742,3.2999558448791504
1700852413840766500,18.204766357421875,-0.5134949088096619,0.526644229888916,3.408245086669922
1700852413857758700,18.2217587890625,-0.6082577705383301,1.8276801109313965,3.5541467666625977
1700852413874750500,18.23875048828125,-0.7558950185775757,2.8087902069091797,3.3557844161987305
1700852413891742500,18.255742431640623,-1.169534683227539,3.2780418395996094,3.029104709625244
1700852413908734000,18.27273388671875,-1.2972428798675537,3.3987388610839844,2.8020849227905273
1700852413925715700,18.2897158203125,-1.006927251815796,3.2548632621765137,2.7374324798583984
1700852413942715100,18.306715087890623,-0.4507075548171997,3.2605490684509277,2.8497767448425293
1700852413959712800,18.323712646484374,-0.08284991979598999,3.433945655822754,3.36837100982666
1700852413976699000,18.340698974609374,-0.19722971320152283,3.7797422409057617,4.317590713500977
1700852413993686000,18.35768603515625,-0.5792027115821838,4.101580619812012,5.222250461578369
1700852414010685400,18.374685546875,-1.1733143329620361,4.29701042175293,5.813387870788574
1700852414027678000,18.391677978515624,-1.8345317840576172,4.316009521484375,6.573566436767578
1700852414044669200,18.408669189453125,-2.090160369873047,4.459006309509277,7.374109268188477
1700852414061655000,18.425655029296873,-2.1240086555480957,4.730572700500488,8.382336616516113
1700852414078653400,18.4426533203125,-2.1685309410095215,4.972443580627441,9.308226585388184
1700852414095645400,18.4596455078125,-2.3363301753997803,5.30615234375,9.869281768798828
1700852414112626200,18.476626220703125,-2.5341389179229736,5.266237258911133,10.320457458496094
1700852414129629200,18.493629150390625,-2.718266487121582,5.074948310852051,10.40787410736084
1700852414146620700,18.51062060546875,-2.8503856658935547,5.001422882080078,10.024129867553711
1700852414163613200,18.52761328125,-2.9980998039245605,4.532805442810059,9.788758277893066
1700852414180604700,18.544604736328125,-2.8748159408569336,3.0650219917297363,10.199353218078613
1700852414197596700,18.5615966796875,-2.505598783493042,1.7069439888000488,10.238615989685059
1700852414214580000,18.578580078125,-1.8780450820922852,0.5546588897705078,10.343791961669922
1700852414231583200,18.595583251953126,-1.6657464504241943,0.06618499755859375,10.364190101623535
1700852414248572000,18.612572021484375,-1.3887182474136353,-0.07289695739746094,10.183753967285156
1700852414265564400,18.629564453125,-0.8123076558113098,-0.49164581298828125,10.169483184814453
1700852414282543900,18.6465439453125,-0.09937041997909546,-1.3745479583740234,9.808080673217773
1700852414299545600,18.663545654296875,0.9029524326324463,-3.0271644592285156,9.749771118164062
1700852414316540200,18.6805400390625,1.5819568634033203,-4.708784580230713,9.672340393066406
1700852414333534500,18.697534423828124,1.8755968809127808,-5.679398536682129,8.947639465332031
1700852414350523400,18.7145234375,1.9085248708724976,-5.884527683258057,7.3847222328186035
1700852414367516200,18.73151611328125,2.2236247062683105,-5.62264347076416,5.414477825164795
1700852414384489200,18.7484892578125,3.13273549079895,-5.281912326812744,3.6096091270446777
1700852414401489200,18.7654892578125,3.7073495388031006,-4.991771697998047,2.0481362342834473
1700852414418491400,18.782491455078127,3.6666505336761475,-4.621725559234619,0.46171092987060547
1700852414435483600,18.799483642578124,3.1728084087371826,-4.278005123138428,-1.0536484718322754
1700852414452475000,18.816474853515626,2.734595537185669,-3.970824718475342,-2.6031746864318848
1700852414469467400,18.83346728515625,2.601078987121582,-3.6512579917907715,-3.869838237762451
1700852414486459000,18.850458984375,2.6920909881591797,-3.4416189193725586,-4.724368095397949
1700852414503451400,18.867451416015626,2.8057126998901367,-3.418715238571167,-5.330022811889648
1700852414520442600,18.884442626953124,2.710066795349121,-3.35196852684021,-6.042011737823486
1700852414537435100,18.90143505859375,2.6019845008850098,-3.236637830734253,-6.700963020324707
1700852414554426400,18.91842626953125,2.490792751312256,-3.157076358795166,-7.323351860046387
1700852414571408600,18.93540869140625,2.6468379497528076,-2.977908134460449,-7.731930732727051
1700852414588410000,18.95241015625,2.906611919403076,-3.049187183380127,-7.702308654785156
1700852414605402600,18.969402587890624,3.18345046043396,-3.1021437644958496,-7.652773380279541
1700852414622383600,18.986383544921875,3.3376479148864746,-3.1901657581329346,-7.575784683227539
1700852414639386400,19.003386474609375,3.4361748695373535,-3.328885316848755,-7.475884914398193
1700852414656377900,19.0203779296875,3.4405367374420166,-3.66465425491333,-7.460092544555664
1700852414673370000,19.0373701171875,3.5440006256103516,-4.147255897521973,-7.299400329589844
1700852414690359600,19.054359619140627,3.9160711765289307,-4.724390506744385,-6.977938175201416
1700852414707353300,19.071353271484377,4.426684856414795,-5.056545734405518,-6.659059524536133
1700852414724348000,19.088347900390627,4.753066062927246,-5.6367034912109375,-5.739383220672607
1700852414741323500,19.105323486328125,4.594644546508789,-6.273376941680908,-4.511844158172607
1700852414758329000,19.1223291015625,3.361621141433716,-6.574511528015137,-4.320343017578125
1700852414775321600,19.139321533203123,2.0273351669311523,-6.796082973480225,-4.163412570953369
1700852414792309000,19.15630908203125,1.126582384109497,-7.303545951843262,-3.0668869018554688
1700852414809305600,19.1733056640625,1.135077953338623,-7.596345901489258,-1.318197250366211
1700852414826296800,19.190296875,1.5753175020217896,-7.534002304077148,-0.10625457763671875
1700852414843286500,19.20728662109375,1.6929936408996582,-7.585912704467773,0.9217433929443359
1700852414860294400,19.22429443359375,1.3463804721832275,-7.317431449890137,1.3771276473999023
1700852414877259300,19.24125927734375,0.962622880935669,-6.80458927154541,2.1495065689086914
1700852414894267000,19.258266845703126,0.5596447587013245,-6.3643975257873535,3.599207878112793
1700852414911256600,19.275256591796875,0.18173012137413025,-5.790567398071289,4.83488655090332
1700852414928248000,19.292248046875,-0.1035429909825325,-4.693295001983643,5.552814483642578
1700852414945238000,19.309238037109374,-0.39587000012397766,-3.312985897064209,5.362003803253174
1700852414962231000,19.32623095703125,-0.5797582864761353,-1.6553082466125488,4.713749885559082
1700852414979227000,19.343226806640626,-0.9141149520874023,-0.14274168014526367,4.135606288909912
1700852414996215800,19.3602158203125,-0.9321730136871338,1.2418994903564453,3.690549850463867
1700852415013208000,19.3772080078125,-0.7630778551101685,2.157360076904297,3.6111249923706055
1700852415030199600,19.394199462890626,-0.6386648416519165,2.572392463684082,3.8277835845947266
1700852415047189000,19.41118896484375,-0.3098604083061218,3.179795265197754,3.8702244758605957
1700852415064185600,19.428185546875,-0.43431368470191956,3.1296939849853516,3.834290027618408
1700852415081188600,19.445188720703126,-0.4613721966743469,3.151630401611328,3.657008171081543
1700852415098164500,19.46216455078125,-0.3207044005393982,3.310431480407715,4.043792247772217
1700852415115162000,19.479162109375,-0.34813299775123596,3.686459541320801,4.951304912567139
1700852415132140300,19.496140380859377,-0.8805802464485168,3.9639296531677246,5.676687717437744
1700852415149143000,19.51314306640625,-1.4630870819091797,4.017261981964111,6.385199546813965
1700852415166134500,19.530134521484374,-1.888422966003418,4.06104040145874,7.172409534454346
1700852415183127000,19.547126953125,-1.9805365800857544,4.175778388977051,7.910785675048828
1700852415200118300,19.5641181640625,-1.7355968952178955,4.5368571281433105,8.861178398132324
1700852415217112300,19.5811123046875,-1.3454504013061523,5.067614555358887,9.775888442993164
1700852415234100500,19.5981005859375,-0.9507471323013306,5.364236831665039,10.427935600280762
1700852415251094500,19.615094482421874,-0.3991522192955017,5.382845401763916,10.646329879760742
1700852415268083200,19.632083251953127,-0.04646366834640503,5.295485973358154,10.293147087097168
1700852415285080800,19.649080810546874,0.0836314857006073,5.177587985992432,9.552660942077637
1700852415302069800,19.66606982421875,0.07766860723495483,4.251989841461182,9.657424926757812
1700852415319062000,19.68306201171875,-0.13829746842384338,2.853982925415039,9.93023681640625
1700852415336053200,19.70005322265625,-0.12498022615909576,2.0736799240112305,9.786800384521484
1700852415353033200,19.717033203125,-0.18798469007015228,0.8543577194213867,10.43204116821289
1700852415370038800,19.734038818359377,0.19636717438697815,0.16891860961914062,10.5174560546875
1700852415387025700,19.751025634765625,0.6844532489776611,-0.10634231567382812,10.23607063293457
1700852415404025000,19.768025146484376,0.9369082450866699,-0.3568429946899414,9.897835731506348
1700852415421002800,19.785002685546875,1.2196660041809082,-0.7338037490844727,9.29559326171875
1700852415438002700,19.802002685546874,1.5000241994857788,-1.9018268585205078,9.030217170715332
1700852415454999600,19.81899951171875,1.9313229322433472,-3.2494897842407227,8.57752799987793
1700852415471988500,19.835988525390626,2.3409109115600586,-4.280425548553467,7.4696784019470215
1700852415488981000,19.85298095703125,2.7512705326080322,-4.7650885581970215,6.008751392364502
1700852415505972500,19.869972412109377,2.888305425643921,-4.409486770629883,4.255924224853516
1700852415522964700,19.88696484375,2.7367117404937744,-3.6981725692749023,2.6277823448181152
1700852415539951600,19.90395166015625,2.4432764053344727,-2.928421974182129,1.030693531036377
1700852415556952600,19.92095263671875,2.0640676021575928,-2.4581642150878906,-0.4549441337585449
1700852415573940000,19.93793994140625,2.081549882888794,-2.218198776245117,-1.7380146980285645
1700852415590932500,19.954932373046876,2.253110885620117,-2.2472286224365234,-2.6315159797668457
1700852415607921200,19.971921142578125,2.4097900390625,-2.393352508544922,-3.376708507537842
1700852415624906000,19.988906005859373,2.3857030868530273,-2.3721742630004883,-4.226135730743408
1700852415641897000,20.00589697265625,2.1347403526306152,-2.3232200145721436,-4.967624187469482
1700852415658899500,20.0228994140625,1.841750979423523,-2.2312417030334473,-5.594179153442383
1700852415675882800,20.0398828125,1.7488715648651123,-2.0443832874298096,-6.196216583251953
1700852415692874200,20.056874267578124,1.927480936050415,-2.084616184234619,-6.392874717712402
1700852415709866200,20.0738662109375,2.2824947834014893,-2.233771562576294,-6.230498313903809
1700852415726865400,20.090865478515624,2.7188801765441895,-2.360609769821167,-5.889344692230225
1700852415743847700,20.10784765625,3.199063539505005,-2.4093167781829834,-5.735585689544678
1700852415760849000,20.124848876953124,3.6810014247894287,-2.5559024810791016,-5.572687149047852
1700852415777836300,20.141836181640624,4.103669166564941,-2.8280956745147705,-5.351030349731445
1700852415794826800,20.15882666015625,4.596638202667236,-3.2411086559295654,-4.928573131561279
1700852415811815700,20.175815673828126,4.907144546508789,-3.8359456062316895,-4.50134801864624
1700852415828818400,20.192818359375,5.288350582122803,-4.0767927169799805,-4.298905372619629
1700852415845809700,20.2098095703125,5.857208251953125,-4.1096696853637695,-4.004678249359131
1700852415862802400,20.226802490234373,5.762528419494629,-4.62843132019043,-3.271181583404541
1700852415879793700,20.243793701171874,4.833906173706055,-4.924562454223633,-2.944277286529541
1700852415896786200,20.2607861328125,3.797584056854248,-4.642912864685059,-3.253044605255127
1700852415913777400,20.27777734375,3.107978343963623,-4.756159782409668,-2.953686237335205
1700852415930770000,20.29477001953125,2.338841676712036,-5.393943786621094,-2.4245734214782715
1700852415947761200,20.31176123046875,1.819392204284668,-5.317958354949951,-2.2636561393737793
1700852415964753700,20.328753662109374,1.4317233562469482,-5.087233543395996,-1.725663661956787
1700852415981734700,20.345734619140625,0.7543735504150391,-4.8785810470581055,-0.7423830032348633
1700852415998735000,20.362735107421877,-0.10698318481445312,-4.528167724609375,0.09738349914550781
1700852416015731200,20.379731201171875,-0.8373833894729614,-4.451291084289551,0.8113679885864258
1700852416032707000,20.39670703125,-0.6663758158683777,-4.730513572692871,1.6020851135253906
1700852416049712600,20.413712646484374,0.23264211416244507,-4.859313011169434,2.182528495788574
1700852416066704600,20.43070458984375,1.31730055809021,-4.365664005279541,2.3142881393432617
1700852416083696400,20.4476962890625,1.9672826528549194,-3.1803789138793945,2.135560989379883
1700852416100688600,20.464688720703126,1.7412010431289673,-1.7083969116210938,2.134807586669922
1700852416117680000,20.48168017578125,1.2800424098968506,-0.27483701705932617,2.362283229827881
1700852416134669800,20.498669921875,0.6251312494277954,0.8834691047668457,2.6337757110595703
1700852416151666400,20.51566650390625,0.15648232400417328,1.7460017204284668,2.8910794258117676
1700852416168648700,20.532648681640627,-0.24889934062957764,2.261654853820801,3.1838717460632324
1700852416185636600,20.54963671875,-0.5703402161598206,2.544417381286621,3.462709903717041
1700852416202640100,20.56664013671875,-0.7500694990158081,2.6719632148742676,3.737642765045166
1700852416219631400,20.58363134765625,-0.8690133094787598,2.872285842895508,4.332645893096924
1700852416236621000,20.60062109375,-1.0612177848815918,3.228837490081787,5.093714237213135
1700852416253607000,20.61760693359375,-1.654070258140564,3.712559223175049,5.8115644454956055
1700852416270596900,20.634596923828123,-2.213291883468628,4.268222808837891,6.188011646270752
1700852416287598800,20.651598876953123,-2.725308418273926,4.678926467895508,6.518256664276123
1700852416304591000,20.668591064453125,-2.8458564281463623,4.866275787353516,6.95729923248291
1700852416321582600,20.68558251953125,-2.4881820678710938,4.966850757598877,7.473647117614746
1700852416338575000,20.7025751953125,-2.054682493209839,5.001293659210205,8.106937408447266
1700852416355566300,20.71956640625,-1.7568891048431396,5.024878978729248,8.754419326782227
1700852416372558600,20.73655859375,-1.7099274396896362,5.125881671905518,9.183965682983398
1700852416389550000,20.753550048828124,-2.0209054946899414,5.1470746994018555,9.426834106445312
1700852416406542300,20.770542236328126,-2.0128302574157715,5.273730278015137,9.400106430053711
1700852416423533800,20.787533935546875,-1.6221790313720703,5.415441989898682,9.261358261108398
1700852416440526300,20.8045263671875,-1.1894761323928833,4.433452129364014,9.64597225189209
1700852416457517300,20.821517333984374,-0.7284165620803833,2.5293660163879395,10.056142807006836
1700852416474509800,20.838509765625,-0.015281915664672852,1.4127802848815918,9.93143081665039
1700852416491490600,20.855490478515627,0.46959179639816284,0.6848249435424805,10.175588607788086
1700852416508485400,20.8724853515625,0.5638648271560669,0.7067193984985352,10.086143493652344
1700852416525484300,20.889484375,0.6375981569290161,0.940894603729248,9.488944053649902
1700852416542472000,20.906471923828125,0.839047372341156,0.3428459167480469,9.004720687866211
1700852416559468500,20.923468505859375,1.3907952308654785,-0.9019489288330078,8.542379379272461
1700852416576461000,20.9404609375,1.9075236320495605,-2.538851737976074,8.347860336303711
1700852416593455600,20.95745556640625,2.197659730911255,-3.7603554725646973,7.981513977050781
1700852416610444800,20.97444482421875,2.180042028427124,-4.322511672973633,7.0566582679748535
1700852416627436300,20.991436279296874,2.242068290710449,-4.106045722961426,5.59421968460083
1700852416644417800,21.008417724609377,2.2527925968170166,-3.4835171699523926,3.7702035903930664
1700852416661409300,21.0254091796875,2.346621036529541,-2.888843536376953,1.8887643814086914
1700852416678399700,21.042399658203124,2.3448493480682373,-2.552670955657959,0.2312602996826172
1700852416695400200,21.059400146484375,2.4095470905303955,-2.281355381011963,-1.1585569381713867
1700852416712386300,21.07638623046875,2.254781723022461,-2.1207284927368164,-2.196293830871582
1700852416729381600,21.093381591796874,2.0791056156158447,-1.9129695892333984,-3.1353302001953125
1700852416746378000,21.1103779296875,1.941925048828125,-1.7124309539794922,-3.9713592529296875
1700852416763360800,21.12736083984375,1.8587661981582642,-1.5724513530731201,-4.572709560394287
1700852416780355800,21.14435595703125,1.878483772277832,-1.3386049270629883,-5.116829872131348
1700852416797350100,21.16135009765625,1.9667682647705078,-1.173987865447998,-5.5173234939575195
1700852416814327600,21.17832763671875,1.8776946067810059,-1.1513428688049316,-5.733363151550293
1700852416831329300,21.195329345703126,1.7931581735610962,-1.194955825805664,-5.927280426025391
1700852416848319500,21.212319580078123,1.9789421558380127,-1.3916151523590088,-5.8289899826049805
1700852416865319200,21.229319091796874,2.297177791595459,-1.6021487712860107,-5.79875373840332
1700852416882304000,21.246303955078126,2.622767448425293,-1.8866543769836426,-5.819631576538086
1700852416899296000,21.2632958984375,2.873408555984497,-2.162961483001709,-5.624622821807861
1700852416916288000,21.2802880859375,3.1077914237976074,-2.564800977706909,-5.329798698425293
1700852416933280500,21.297280517578123,3.521143913269043,-3.025773048400879,-4.6427321434021
1700852416950279400,21.314279541015626,3.926884174346924,-3.5080230236053467,-3.8927478790283203
1700852416967267600,21.331267578125,4.3420023918151855,-3.9399075508117676,-3.44973087310791
1700852416984255500,21.34825537109375,4.812127590179443,-4.593498229980469,-2.768942356109619
1700852417001259800,21.365259765625,4.624796390533447,-5.124757766723633,-2.056769847869873
1700852417018250800,21.382250732421873,3.3333311080932617,-5.326943874359131,-2.187938690185547
1700852417035227100,21.39922705078125,2.575810432434082,-4.940385341644287,-2.678650379180908
1700852417052226300,21.416226318359374,2.310045003890991,-5.520138740539551,-1.8952312469482422
1700852417069224400,21.433224365234373,2.108604907989502,-5.9778947830200195,-1.4901790618896484
1700852417086217200,21.45021728515625,2.3757967948913574,-5.674630165100098,-1.7412195205688477
1700852417103209200,21.467209228515625,2.618499755859375,-5.70226526260376,-1.1630325317382812
1700852417120199700,21.48419970703125,2.174384117126465,-5.491270542144775,-0.5789031982421875
1700852417137192200,21.501192138671875,1.1743160486221313,-4.961648941040039,-0.04016590118408203
1700852417154184400,21.518184326171873,0.11701315641403198,-4.656115531921387,0.8418159484863281
1700852417171175700,21.53517578125,-0.4542282819747925,-4.385841369628906,1.6408252716064453
1700852417188168200,21.552168212890624,-0.42657947540283203,-3.7084522247314453,2.122783660888672
1700852417205159400,21.569159423828125,-0.26422977447509766,-2.6086649894714355,2.195636749267578
1700852417222152000,21.58615185546875,-0.1495201587677002,-1.3138575553894043,2.169572353363037
1700852417239135500,21.603135498046875,-0.18114587664604187,0.07384777069091797,2.1961164474487305
1700852417256125000,21.620125,-0.3714488744735718,1.1656336784362793,2.5871152877807617
1700852417273127000,21.637126953125,-0.40355053544044495,2.1991686820983887,2.9163756370544434
1700852417290108400,21.6541083984375,-0.6098781228065491,2.899725914001465,3.0242791175842285
1700852417307110700,21.671110595703126,-0.8995481729507446,3.1184163093566895,2.714569091796875
1700852417324103000,21.68810302734375,-0.8801944255828857,3.066216468811035,2.447946071624756
