time,seconds_elapsed,z,y,x
1701980003271416300,0.103416259765625,-0.6617584228515625,-0.18561840057373047,0.6138753890991211
1701980003288418300,0.120418212890625,-1.097043514251709,-0.09678268432617188,0.4805471897125244
1701980003305407700,0.13740771484375,-1.845038890838623,-0.036325931549072266,0.16534733772277832
1701980003322399000,0.15439892578125,-2.758838176727295,0.006276845932006836,-0.017330169677734375
1701980003339385900,0.1713857421875,-3.4434237480163574,-0.10538625717163086,0.15228056907653809
1701980003356379600,0.188379638671875,-3.4281153678894043,-0.27849459648132324,-0.5528678894042969
1701980003373373000,0.205373046875,-2.6150593757629395,-0.8142096996307373,-1.5694748163223267
1701980003390360000,0.222360107421875,-2.1512060165405273,-1.464094638824463,-1.1052721738815308
1701980003407353900,0.239353759765625,-1.709768295288086,-2.0101771354675293,-0.9253451824188232
1701980003424347100,0.25634716796875,-1.0763640403747559,-2.601579189300537,-1.430917501449585
1701980003441334300,0.273334228515625,-1.9620862007141113,-3.5779590606689453,-2.0929348468780518
1701980003458329300,0.290329345703125,-2.517350196838379,-4.322641372680664,-3.6067607402801514
1701980003475319800,0.30731982421875,-5.501465797424316,-4.746334552764893,-5.144594192504883
1701980003492310300,0.324310302734375,-6.46506929397583,-6.5906982421875,-5.7323832511901855
1701980003509306400,0.341306396484375,-4.958484172821045,-7.741519451141357,-5.2005791664123535
1701980003526292000,0.3582919921875,-2.521226406097412,-8.313131332397461,-3.7214393615722656
1701980003543287000,0.375287109375,-2.271035671234131,-8.504420280456543,-1.927597999572754
1701980003560274400,0.3922744140625,-3.7450156211853027,-8.548343658447266,0.29813098907470703
1701980003577268500,0.4092685546875,-4.168234348297119,-8.389031410217285,1.646592140197754
1701980003594261500,0.426261474609375,-2.8971285820007324,-8.125153541564941,2.435296058654785
1701980003611241700,0.44324169921875,-0.14625096321105957,-7.744504928588867,3.5194883346557617
1701980003628243200,0.4602431640625,1.5044186115264893,-7.338756561279297,4.910464286804199
1701980003645234200,0.477234130859375,1.7082624435424805,-6.913400650024414,5.158156394958496
1701980003662227000,0.49422705078125,0.42018160223960876,-6.518793106079102,5.405831336975098
1701980003679215000,0.511215087890625,-1.252238392829895,-5.750110626220703,6.2177581787109375
1701980003696214500,0.528214599609375,-2.6983418464660645,-4.868173122406006,7.124216079711914
1701980003713201000,0.545200927734375,-2.5104029178619385,-3.6715879440307617,7.818351745605469
1701980003730192600,0.562192626953125,-1.842128038406372,-2.5295419692993164,8.218777656555176
1701980003747174100,0.579174072265625,-1.2524633407592773,-1.2885518074035645,7.7759246826171875
1701980003764173800,0.596173828125,-1.078816294670105,-0.281982421875,6.909941673278809
1701980003781166000,0.613166015625,-1.3180345296859741,-0.0785970687866211,6.637209892272949
1701980003798156500,0.630156494140625,-1.506983757019043,0.26020002365112305,6.237390518188477
1701980003815137800,0.6471376953125,-0.764195442199707,0.9282941818237305,5.1230058670043945
1701980003832140500,0.664140625,-0.2925238609313965,1.1567730903625488,4.250600814819336
1701980003849129200,0.681129150390625,-0.1661851704120636,1.2260313034057617,3.4302425384521484
1701980003866119700,0.69811962890625,-0.2771638333797455,1.2038726806640625,2.4975528717041016
1701980003883113200,0.71511328125,-0.6651764512062073,1.0820059776306152,1.5684528350830078
1701980003900104400,0.7321044921875,-0.9757668972015381,0.8650040626525879,1.0790748596191406
1701980003917095400,0.749095458984375,-0.9544270038604736,0.9261140823364258,0.5214128494262695
1701980003934090500,0.766090576171875,-0.6864737868309021,1.1610918045043945,-0.000675201416015625
1701980003951077000,0.7830771484375,-0.45984745025634766,1.305983066558838,-0.23891925811767578
1701980003968072000,0.800072021484375,-0.2087152600288391,1.365635871887207,-0.2259073257446289
1701980003985062700,0.817062744140625,0.013418018817901611,1.5240836143493652,-0.1310138702392578
1701980004002051800,0.8340517578125,-0.073353111743927,1.6722652912139893,-0.22635650634765625
1701980004019046100,0.851046142578125,-0.31807076930999756,1.8003747463226318,-0.28354549407958984
1701980004036036900,0.868036865234375,-0.41556090116500854,2.0650627613067627,-0.530179500579834
1701980004053029600,0.885029541015625,-0.3236803412437439,2.1668102741241455,-0.5628247261047363
1701980004070017300,0.902017333984375,-0.11940142512321472,2.2603769302368164,-0.46631717681884766
1701980004087011000,0.919010986328125,0.30166351795196533,2.454637289047241,-0.6194057464599609
1701980004104004000,0.936004150390625,0.7266324758529663,2.8364291191101074,-0.8471245765686035
1701980004120991200,0.9529912109375,1.2436802387237549,3.105172872543335,-0.8104310035705566
1701980004137986300,0.969986328125,2.041545867919922,3.2285842895507812,-0.8064603805541992
1701980004154971000,0.986970947265625,2.791510581970215,2.860058069229126,-0.5006861686706543
1701980004171959300,1.003959228515625,2.9842405319213867,2.736762762069702,-0.471038818359375
1701980004188959500,1.02095947265625,2.7674055099487305,2.8758482933044434,-1.1457405090332031
1701980004205951700,1.03795166015625,2.270287036895752,3.374310255050659,-2.0147652626037598
1701980004222944300,1.0549443359375,1.723576307296753,3.4775261878967285,-2.365935802459717
1701980004239931400,1.071931396484375,1.4871139526367188,3.4342854022979736,-2.290442943572998
1701980004256925200,1.08892529296875,1.7074925899505615,3.1453468799591064,-1.6073122024536133
1701980004273908000,1.105907958984375,2.1049041748046875,2.883183002471924,-1.07037353515625
1701980004290894300,1.122894287109375,2.5139636993408203,2.7749438285827637,-0.9407839775085449
1701980004307902000,1.13990185546875,2.6026058197021484,2.6779062747955322,-1.1280231475830078
1701980004324892200,1.15689208984375,2.3428103923797607,2.3091397285461426,-1.054178237915039
1701980004341879800,1.1738798828125,1.8689583539962769,1.898057460784912,-0.8314728736877441
1701980004358874400,1.190874267578125,1.555931806564331,1.3075127601623535,-0.4025535583496094
1701980004375866000,1.2078662109375,1.6462743282318115,0.9213471412658691,0.04057598114013672
1701980004392859000,1.22485888671875,2.2138309478759766,1.1643478870391846,-0.25417613983154297
1701980004409845200,1.24184521484375,2.1070501804351807,0.9467830657958984,-0.11959648132324219
1701980004426839000,1.258839111328125,1.0742417573928833,-0.19277024269104004,0.37602996826171875
1701980004443832800,1.275832763671875,0.10739350318908691,-1.040759563446045,-0.06706047058105469
1701980004460820000,1.292820068359375,-0.0754091739654541,-0.7659623622894287,-1.068678855895996
1701980004477813800,1.309813720703125,0.45688068866729736,-0.2479236125946045,-1.1838254928588867
1701980004494806800,1.326806884765625,1.2504831552505493,-0.014074563980102539,-0.653533935546875
1701980004511794200,1.343794189453125,1.6444848775863647,-0.5363743305206299,0.006134986877441406
1701980004528788700,1.360788818359375,1.943251132965088,-1.7955756187438965,0.3595399856567383
1701980004545779500,1.377779541015625,2.06036376953125,-2.457078695297241,0.1644277572631836
1701980004562772500,1.3947724609375,1.5548646450042725,-2.3353066444396973,0.2096700668334961
1701980004579753000,1.4117529296875,-0.511370062828064,-2.2706103324890137,1.0583972930908203
1701980004596753700,1.428753662109375,-2.1272101402282715,-3.17181396484375,1.1577692031860352
1701980004613756400,1.44575634765625,-0.8332440257072449,-3.2628250122070312,0.7873353958129883
1701980004630737400,1.4627373046875,1.6136364936828613,-2.930501699447632,0.7526254653930664
1701980004647724500,1.479724609375,3.711561679840088,-3.1415834426879883,0.9145193099975586
1701980004664721200,1.49672119140625,2.9267077445983887,-3.6818079948425293,1.9518232345581055
1701980004681708300,1.513708251953125,1.9656975269317627,-4.938302516937256,2.915203094482422
1701980004698703400,1.530703369140625,0.7610227465629578,-5.147237777709961,2.0206375122070312
1701980004715693800,1.54769384765625,1.1162326335906982,-4.6756110191345215,0.9996986389160156
1701980004732686800,1.564686767578125,2.4176676273345947,-4.044462203979492,1.6212663650512695
1701980004749671700,1.581671630859375,2.089993953704834,-4.276129722595215,2.743762969970703
1701980004766670600,1.598670654296875,-0.3555874824523926,-5.3114447593688965,3.260190010070801
1701980004783661300,1.615661376953125,-3.0942249298095703,-5.984950065612793,2.9463014602661133
1701980004800648700,1.632648681640625,-5.058210372924805,-6.0828752517700195,2.7138919830322266
1701980004817642000,1.64964208984375,-4.534148693084717,-5.9342756271362305,2.4281320571899414
1701980004834635800,1.6666357421875,-1.6770637035369873,-6.124561309814453,2.38785457611084
1701980004851632600,1.683632568359375,1.0935896635055542,-7.038841724395752,2.9242944717407227
1701980004868615000,1.700614990234375,1.8427814245224,-7.630340099334717,3.3229169845581055
1701980004885609700,1.717609619140625,0.1998467594385147,-8.119688034057617,4.176783561706543
1701980004902609400,1.734609375,-2.197178840637207,-8.288488388061523,4.470458984375
1701980004919591200,1.751591064453125,-2.1856775283813477,-8.175713539123535,3.3151235580444336
1701980004936582400,1.76858251953125,0.08738677203655243,-8.026171684265137,2.155442237854004
1701980004953565200,1.785565185546875,2.26615834236145,-7.959133148193359,1.3947019577026367
1701980004970562800,1.802562744140625,3.356153726577759,-8.29198932647705,1.402078628540039
1701980004987556600,1.819556640625,3.033949613571167,-8.427956581115723,2.004450798034668
1701980005004549600,1.836549560546875,1.838569164276123,-8.245970726013184,2.776442527770996
1701980005021537000,1.853537109375,0.5184891819953918,-7.459127902984619,2.617978096008301
1701980005038533600,1.87053369140625,-0.13215427100658417,-6.590401649475098,1.3796510696411133
1701980005055520500,1.8875205078125,-0.21059128642082214,-6.2700347900390625,0.31445980072021484
1701980005072515300,1.904515380859375,0.4360876679420471,-6.054721832275391,-0.17776966094970703
1701980005089502700,1.921502685546875,1.3707562685012817,-6.008869647979736,-0.04470348358154297
1701980005106496500,1.93849658203125,1.8451898097991943,-6.12868070602417,0.6202888488769531
1701980005123489800,1.95548974609375,1.5294079780578613,-5.7481794357299805,1.01824951171875
1701980005140477200,1.972477294921875,0.9845337867736816,-4.992969989776611,0.30589962005615234
1701980005157471200,1.98947119140625,0.432211309671402,-4.4612908363342285,-0.7489795684814453
1701980005174464000,2.006464111328125,0.12943485379219055,-4.309436321258545,-1.6583290100097656
1701980005191449300,2.023449462890625,0.731626033782959,-4.081467628479004,-1.915449619293213
1701980005208458200,2.040458251953125,1.3434560298919678,-3.629843235015869,-1.6002836227416992
1701980005225428500,2.057428466796875,1.0512498617172241,-3.0904412269592285,-0.6391496658325195
1701980005242427100,2.07442724609375,1.7271696329116821,-2.665266990661621,-0.6165580749511719
1701980005259421200,2.091421142578125,3.2632453441619873,-2.2766730785369873,-1.8374500274658203
1701980005276415000,2.1084150390625,4.302787780761719,-1.539029598236084,-2.106905937194824
1701980005293404700,2.12540478515625,3.703338146209717,-0.34860706329345703,-1.252852439880371
1701980005310391600,2.1423916015625,2.026670217514038,0.34342050552368164,0.17294692993164062
1701980005327385000,2.159385009765625,0.7866389155387878,0.8859000205993652,0.49648284912109375
1701980005344378400,2.17637841796875,0.8749402761459351,1.3497514724731445,0.5017910003662109
1701980005361355800,2.193355712890625,1.779432773590088,1.7945698499679565,0.4501018524169922
1701980005378363000,2.21036279296875,2.5868053436279297,1.9031187295913696,0.17663288116455078
1701980005395340500,2.227340576171875,2.922664165496826,2.157341957092285,-0.054633140563964844
1701980005412344300,2.24434423828125,2.595813274383545,2.1384925842285156,0.10094165802001953
1701980005429330400,2.261330322265625,1.8043882846832275,1.9162116050720215,0.8100814819335938
1701980005446328000,2.278328125,1.6371856927871704,1.8995108604431152,0.6873788833618164
1701980005463316000,2.29531591796875,2.0637311935424805,2.09175181388855,0.09670257568359375
1701980005480308200,2.31230810546875,2.639183282852173,2.366478681564331,-0.4532899856567383
1701980005497299500,2.329299560546875,2.5088047981262207,2.5317728519439697,-0.7448282241821289
1701980005514292500,2.34629248046875,2.011472225189209,2.5262560844421387,-0.9302072525024414
1701980005531277300,2.36327734375,1.4427751302719116,1.9740521907806396,-0.7596678733825684
1701980005548277200,2.38027734375,1.2123374938964844,1.9077973365783691,-1.0160903930664062
1701980005565265200,2.39726513671875,1.4784873723983765,2.0859568119049072,-1.361311435699463
1701980005582258400,2.414258544921875,1.9141356945037842,2.406315565109253,-1.3701953887939453
1701980005599245600,2.43124560546875,2.118438243865967,2.5301589965820312,-1.2515463829040527
1701980005616239600,2.448239501953125,2.270577907562256,2.2663590908050537,-1.06492280960083
1701980005633232600,2.465232666015625,2.3687028884887695,2.0252251625061035,-0.975346565246582
1701980005650220000,2.482219970703125,1.7846662998199463,1.7182581424713135,-0.7291817665100098
1701980005667213800,2.4992138671875,1.227246880531311,1.5546085834503174,-0.5802435874938965
1701980005684208400,2.51620849609375,1.242160677909851,1.4468164443969727,-0.30838489532470703
1701980005701183500,2.53318359375,1.370084285736084,1.3632516860961914,0.4828052520751953
1701980005718189300,2.550189208984375,1.8111188411712646,1.3077664375305176,0.9339470863342285
1701980005735178500,2.567178466796875,2.41471529006958,0.9935970306396484,0.8869166374206543
1701980005752195300,2.5841953125,2.5080032348632812,0.7053260803222656,0.7475175857543945
1701980005769162200,2.601162353515625,1.9380855560302734,0.1523265838623047,1.129387378692627
1701980005786156300,2.61815625,0.8924442529678345,-0.197662353515625,1.3168754577636719
1701980005803151400,2.6351513671875,0.22481918334960938,0.43560361862182617,1.1572699546813965
1701980005820135700,2.6521357421875,-0.16981196403503418,0.7499136924743652,1.4427199363708496
1701980005837125600,2.669125732421875,-0.3225083351135254,0.609992504119873,0.9926495552062988
1701980005854119000,2.686118896484375,0.08522939682006836,-0.34661054611206055,0.0673837661743164
1701980005871109400,2.703109375,0.7748804092407227,-1.0178594589233398,-0.6708364486694336
1701980005888106000,2.72010595703125,1.3989381790161133,-1.1834759712219238,-1.029597282409668
1701980005905093000,2.737093017578125,1.0214811563491821,-0.8552894592285156,-0.5662822723388672
1701980005922085400,2.75408544921875,-0.28723669052124023,-0.15857172012329102,0.06857681274414062
1701980005939089200,2.771089111328125,-0.9623217582702637,-0.031516075134277344,0.07852649688720703
1701980005956069000,2.788069091796875,-0.2059776782989502,-0.09871196746826172,0.18863534927368164
1701980005973061000,2.80506103515625,1.1739308834075928,0.43242502212524414,0.7055778503417969
1701980005990048800,2.822048828125,1.4130580425262451,0.8602766990661621,2.7449240684509277
1701980006007042600,2.83904248046875,0.11404204368591309,1.2595114707946777,4.6615309715271
1701980006024035600,2.85603564453125,-0.9736757278442383,1.4442558288574219,4.698581695556641
1701980006041023000,2.87302294921875,-1.7260746955871582,1.9290518760681152,4.021175861358643
1701980006058017800,2.890017822265625,-1.9887332916259766,2.347270965576172,3.6071724891662598
1701980006074998300,2.906998291015625,-1.9378573894500732,2.6076221466064453,3.2476868629455566
1701980006091998200,2.923998291015625,-1.447617530822754,2.7660553455352783,3.1312613487243652
1701980006108991700,2.94099169921875,-0.4875302314758301,2.372039318084717,3.7570223808288574
1701980006125982700,2.957982666015625,1.3765250444412231,1.9940452575683594,4.331620216369629
1701980006142975500,2.9749755859375,3.1075472831726074,1.917809009552002,4.102721691131592
1701980006159952400,2.991952392578125,4.208400726318359,1.9016575813293457,3.574739933013916
1701980006176946400,3.008946533203125,4.085211753845215,1.8130416870117188,3.2246975898742676
1701980006193939500,3.025939453125,3.0717921257019043,1.9684867858886719,2.6129088401794434
1701980006210937000,3.04293701171875,2.4716780185699463,1.9591033458709717,1.9486112594604492
1701980006227936000,3.05993603515625,2.333796501159668,1.5839853286743164,2.069150447845459
1701980006244919600,3.07691943359375,2.5958352088928223,1.5022635459899902,2.0767602920532227
1701980006261911800,3.093911865234375,1.9580508470535278,1.5492832660675049,1.5928616523742676
1701980006278906400,3.11090625,1.3631181716918945,1.508716106414795,0.5679025650024414
1701980006295897900,3.12789794921875,1.6530277729034424,1.604046106338501,-0.058887481689453125
1701980006312889300,3.144889404296875,2.53291654586792,0.933936357498169,0.15866661071777344
1701980006329880800,3.161880859375,3.587280035018921,0.38955068588256836,0.17927074432373047
1701980006346871800,3.178871826171875,4.346041202545166,0.23453330993652344,0.10270214080810547
1701980006363863600,3.195863525390625,4.578719615936279,0.34708690643310547,0.20172786712646484
1701980006380855000,3.21285498046875,4.0849761962890625,0.14693260192871094,0.3065042495727539
1701980006397846300,3.22984619140625,3.282808303833008,-0.13216257095336914,0.12103748321533203
1701980006414826000,3.246825927734375,2.5526766777038574,-0.6521651744842529,0.16138935089111328
1701980006431831000,3.2638310546875,2.0911221504211426,-0.8065352439880371,0.11986255645751953
1701980006448821000,3.280821044921875,2.44907808303833,-1.2431833744049072,0.1755523681640625
1701980006465812000,3.29781201171875,2.7113397121429443,-1.583240270614624,-0.022665023803710938
1701980006482803500,3.314803466796875,2.9088082313537598,-1.7991461753845215,-0.1787881851196289
1701980006499795200,3.331795166015625,2.285933494567871,-1.9668395519256592,-0.3946981430053711
1701980006516782800,3.348782958984375,1.4727537631988525,-2.03757381439209,-0.7199697494506836
1701980006533775600,3.365775634765625,0.633704423904419,-1.966186761856079,-0.8002815246582031
1701980006550764500,3.3827646484375,0.3107047379016876,-1.9143493175506592,-0.6380586624145508
1701980006567765200,3.39976513671875,0.15505510568618774,-1.896026372909546,-0.6427173614501953
1701980006584746200,3.416746337890625,0.5792796611785889,-1.919023036956787,-1.0524778366088867
1701980006601743600,3.43374365234375,1.5242161750793457,-2.0616915225982666,-1.4568586349487305
1701980006618735000,3.450735107421875,2.1592888832092285,-2.21907114982605,-1.695418357849121
1701980006635725800,3.467725830078125,2.2119054794311523,-2.566810131072998,-1.705984115600586
1701980006652718000,3.484718017578125,1.9700400829315186,-3.134974956512451,-1.5517473220825195
1701980006669707000,3.50170703125,2.1274988651275635,-3.231459856033325,-1.5947246551513672
1701980006686703000,3.518703125,2.3123364448547363,-3.342740774154663,-1.5898723602294922
1701980006703692000,3.535692138671875,2.4131603240966797,-3.6591782569885254,-1.7249755859375
1701980006720671200,3.552671142578125,2.721583843231201,-4.082217216491699,-2.132511615753174
1701980006737676500,3.569676513671875,2.8889901638031006,-4.045681953430176,-2.760930061340332
1701980006754657800,3.58665771484375,2.343590259552002,-3.901336908340454,-2.4187374114990234
1701980006771655400,3.603655517578125,1.1243840456008911,-4.0188727378845215,-1.3364343643188477
1701980006788640300,3.62064013671875,0.7837002277374268,-4.00402307510376,-0.9157381057739258
1701980006805629700,3.637629638671875,0.9593545794487,-4.256700038909912,-0.8884658813476562
1701980006822631000,3.654630859375,1.1096378564834595,-4.326777458190918,-0.979736328125
1701980006839619300,3.671619384765625,0.7572193741798401,-4.5755510330200195,-0.8332557678222656
1701980006856612400,3.6886123046875,-0.24882787466049194,-5.013731956481934,0.005246162414550781
1701980006873595600,3.705595703125,-1.5644253492355347,-5.482594013214111,1.3737592697143555
1701980006890594800,3.7225947265625,-2.353304147720337,-5.8112101554870605,2.73602294921875
1701980006907582200,3.739582275390625,-2.545708656311035,-6.538024425506592,3.9259328842163086
1701980006924577500,3.75657763671875,-1.8312568664550781,-6.975414276123047,3.492124557495117
1701980006941571000,3.773571044921875,-1.1327067613601685,-7.248843669891357,2.365091323852539
1701980006958554600,3.7905546875,-0.23026734590530396,-7.5540452003479,2.206852912902832
1701980006975544000,3.8075439453125,0.13983935117721558,-7.915803909301758,3.994537353515625
1701980006992544300,3.824544189453125,-0.8638734817504883,-7.416835784912109,6.319048881530762
1701980007009528300,3.8415283203125,-1.6366426944732666,-6.867149829864502,6.21147346496582
1701980007026524700,3.858524658203125,-1.8300740718841553,-7.024720668792725,4.433799743652344
1701980007043513000,3.87551318359375,-1.0685157775878906,-7.375455856323242,2.9286727905273438
1701980007060509700,3.892509765625,-0.33204221725463867,-7.423312187194824,1.789933204650879
1701980007077497900,3.909497802734375,-0.6391775608062744,-7.5983357429504395,1.5264081954956055
1701980007094485200,3.9264853515625,-1.2078046798706055,-7.794173240661621,1.9974126815795898
1701980007111480800,3.943480712890625,-1.426607370376587,-7.548127174377441,2.445267677307129
1701980007128478000,3.96047802734375,-0.43759721517562866,-6.981371879577637,2.101625442504883
1701980007145470200,3.97747021484375,0.4713422954082489,-6.165384292602539,1.2986078262329102
1701980007162452700,3.99445263671875,0.7720609903335571,-5.946101665496826,1.0536813735961914
1701980007179442000,4.01144189453125,0.0404508113861084,-5.9867143630981445,0.748382568359375
1701980007196438300,4.028438232421875,-0.34590357542037964,-5.948962688446045,0.22427749633789062
1701980007213435400,4.045435302734375,-0.12790481746196747,-5.724202632904053,-0.16520404815673828
1701980007230426600,4.062426513671875,0.7736412286758423,-5.3935747146606445,-0.3120594024658203
1701980007247418400,4.07941845703125,1.78548264503479,-4.77482271194458,-0.12320327758789062
1701980007264409900,4.096409912109375,2.177178382873535,-4.179413318634033,0.130828857421875
1701980007281401000,4.113401123046875,2.2674028873443604,-4.019153118133545,-0.0728311538696289
1701980007298392800,4.130392822265625,0.4253092110157013,-3.6517207622528076,-0.3414449691772461
1701980007315384000,4.147384033203125,-0.9587534070014954,-3.255685329437256,-1.0096654891967773
1701980007332375300,4.164375244140625,-1.6146454811096191,-2.5554451942443848,-1.779170036315918
1701980007349368300,4.181368408203125,-0.9572249054908752,-1.419232726097107,-2.211644172668457
1701980007366357000,4.19835693359375,0.007122159004211426,-1.2785890102386475,-1.4551420211791992
1701980007383349800,4.215349853515625,1.0782546997070312,-1.2900550365447998,-0.7944831848144531
1701980007400331000,4.2323310546875,1.8051111698150635,-1.3927050828933716,-0.8403768539428711
1701980007417332500,4.24933251953125,2.002899169921875,-1.1983747482299805,-1.1176528930664062
1701980007434315500,4.2663154296875,2.232553482055664,-0.7886835336685181,-1.4509658813476562
1701980007451315700,4.283315673828125,2.5810446739196777,-0.31636083126068115,-1.5856695175170898
1701980007468307000,4.300306884765625,2.851485252380371,-0.07532191276550293,-1.3259477615356445
1701980007485298200,4.317298095703125,2.196259021759033,0.15986239910125732,-0.8452138900756836
1701980007502290000,4.3342900390625,1.955885648727417,0.3606680631637573,-0.862980842590332
1701980007519281400,4.351281494140625,1.869948148727417,0.5810638666152954,-1.3689613342285156
1701980007536272600,4.368272705078125,1.5679529905319214,0.5863300561904907,-1.6936440467834473
1701980007553264000,4.38526416015625,1.08005952835083,0.6494122743606567,-1.907142162322998
1701980007570245000,4.4022451171875,0.5602227449417114,0.6368973255157471,-1.8603858947753906
1701980007587253800,4.419253662109375,0.7639707326889038,0.24411797523498535,-1.3540902137756348
1701980007604238600,4.436238525390625,1.4537203311920166,0.009316205978393555,-0.45464134216308594
1701980007621230000,4.45322998046875,2.350835084915161,0.13960838317871094,0.6799459457397461
1701980007638221300,4.47022119140625,3.4238710403442383,0.34490156173706055,1.3535804748535156
1701980007655199700,4.48719970703125,4.569108963012695,0.5306222438812256,1.0561742782592773
1701980007672204000,4.5042041015625,4.750718593597412,0.5681090354919434,0.26381778717041016
1701980007689195800,4.52119580078125,4.386858940124512,0.42800283432006836,-0.49420881271362305
1701980007706187300,4.538187255859375,3.660085916519165,0.587573766708374,-1.3314013481140137
1701980007723178800,4.5551787109375,3.141720771789551,1.002373218536377,-1.7527899742126465
1701980007740170200,4.572170166015625,2.4806137084960938,1.3481981754302979,-1.1694960594177246
1701980007757161500,4.589161376953125,1.8870748281478882,1.4380714893341064,-0.022950172424316406
1701980007774153000,4.606153076171875,1.3821274042129517,1.4894495010375977,0.9353361129760742
1701980007791144400,4.62314453125,1.1619551181793213,1.6089444160461426,1.1254076957702637
1701980007808136000,4.640135986328125,1.258086919784546,1.2745532989501953,1.058260440826416
1701980007825127000,4.657126953125,1.7871816158294678,0.9697866439819336,0.8349490165710449
1701980007842118700,4.67411865234375,2.0700860023498535,0.7287955284118652,1.1366114616394043
1701980007859110000,4.69110986328125,1.6807184219360352,0.9181718826293945,1.7086424827575684
1701980007876101600,4.7081015625,1.1079792976379395,1.1775054931640625,1.9131979942321777
1701980007893093000,4.725093017578125,0.9553191661834717,1.1275372505187988,1.938939094543457
1701980007910081800,4.742081787109375,1.4318900108337402,0.6968746185302734,2.146749973297119
1701980007927078400,4.759078369140625,1.9734301567077637,0.4502534866333008,2.955888271331787
1701980007944067300,4.7760673828125,1.4925272464752197,1.2281537055969238,3.0385584831237793
1701980007961052200,4.79305224609375,-0.019019126892089844,1.6763548851013184,3.119537353515625
1701980007978050300,4.81005029296875,-1.0057673454284668,1.7936735153198242,2.4977574348449707
1701980007995031000,4.827031005859375,-0.30825018882751465,1.685007095336914,1.6522736549377441
1701980008012033000,4.844032958984375,1.5297386646270752,2.204502582550049,1.4989533424377441
1701980008029024300,4.861024169921875,2.643970489501953,2.2415199279785156,1.7791962623596191
1701980008045998300,4.877998291015625,2.6077141761779785,2.0574324131011963,1.7857036590576172
1701980008063007500,4.895007568359375,1.8244655132293701,2.0697426795959473,1.3453736305236816
1701980008079988200,4.91198828125,0.9884812831878662,2.0704755783081055,0.9186258316040039
1701980008096990200,4.928990234375,1.1644437313079834,2.0897746086120605,1.163907527923584
1701980008113979400,4.9459794921875,1.1763219833374023,2.0884127616882324,2.2917418479919434
1701980008130973000,4.962972900390625,0.6884708404541016,2.094351291656494,3.3843507766723633
1701980008147965000,4.97996484375,0.554764986038208,2.455458164215088,3.553009510040283
1701980008164956200,4.9969560546875,0.634608268737793,2.5523478984832764,3.7113513946533203
1701980008181947600,5.01394775390625,0.7987644672393799,2.472902297973633,4.063333034515381
1701980008198939000,5.03093896484375,0.7782077789306641,2.624135971069336,4.587326526641846
1701980008215930400,5.047930419921875,0.18715310096740723,2.6930317878723145,5.280012130737305
1701980008232921900,5.064921875,0.7266871929168701,2.3649401664733887,5.289102077484131
1701980008249913300,5.081913330078125,1.8245265483856201,1.9923367500305176,5.115741729736328
1701980008266902300,5.09890234375,2.5226118564605713,1.7889652252197266,5.080532550811768
1701980008283898600,5.115898681640625,2.2248356342315674,1.6491589546203613,4.9330949783325195
1701980008300887600,5.132887451171875,1.0465389490127563,1.708043098449707,4.570133209228516
1701980008317879000,5.149879150390625,0.4560621976852417,1.6322145462036133,4.044711589813232
1701980008334864400,5.166864501953125,0.45665764808654785,1.4721078872680664,3.4688754081726074
1701980008351863000,5.183863037109375,0.8298066854476929,1.0724024772644043,3.2151412963867188
1701980008368853200,5.200853271484375,1.3257529735565186,1.1232166290283203,2.6058311462402344
1701980008385845000,5.217844970703125,2.298173189163208,0.9306550025939941,1.6783084869384766
1701980008402836200,5.234836181640625,3.1321191787719727,0.2570376396179199,1.0044584274291992
1701980008419827700,5.25182763671875,3.8425536155700684,-0.6218805313110352,0.6798782348632812
1701980008436819200,5.268819091796875,4.423459053039551,-1.2496776580810547,0.5301094055175781
1701980008453807600,5.2858076171875,4.513101100921631,-1.0902748107910156,0.1226348876953125
1701980008470799400,5.30279931640625,3.2216548919677734,-0.5134122371673584,-0.3167304992675781
1701980008487791000,5.319791015625,2.1946799755096436,-0.5508253574371338,-0.9053659439086914
1701980008504782600,5.336782470703125,1.5399277210235596,-0.8794429302215576,-1.807016372680664
1701980008521778700,5.35377880859375,1.488377332687378,-1.3166306018829346,-2.037325859069824
1701980008538765300,5.370765380859375,1.5098475217819214,-1.4543561935424805,-1.4466919898986816
1701980008555762000,5.387761962890625,1.2011579275131226,-1.5292069911956787,-0.5858240127563477
1701980008572750800,5.404750732421875,0.8693558573722839,-1.5708906650543213,-0.1263437271118164
1701980008589742000,5.4217421875,0.6144776344299316,-1.762969732284546,-0.13545703887939453
1701980008606733800,5.43873388671875,0.4566788375377655,-2.1373720169067383,-0.09640979766845703
1701980008623725300,5.455725341796875,0.573043942451477,-2.2759106159210205,-0.5214567184448242
1701980008640716800,5.472716796875,0.8247562050819397,-2.2889437675476074,-1.2088241577148438
1701980008657707500,5.48970751953125,0.7083024978637695,-3.045276165008545,-0.9821844100952148
1701980008674699800,5.50669970703125,0.5053467154502869,-3.7908337116241455,-0.4572563171386719
1701980008691691000,5.52369091796875,0.49390214681625366,-4.104528903961182,-0.754023551940918
1701980008708682200,5.54068212890625,0.5629512071609497,-3.911475658416748,-1.659571647644043
1701980008725673700,5.557673828125,0.7966716289520264,-3.3666067123413086,-2.661609649658203
1701980008742665000,5.5746650390625,0.9685066938400269,-2.8653721809387207,-3.46234130859375
1701980008759656400,5.591656494140625,1.5083974599838257,-3.0127718448638916,-3.3133182525634766
1701980008776646100,5.608646240234375,2.150489330291748,-2.985177516937256,-2.828458786010742
1701980008793641200,5.62564111328125,2.1755924224853516,-3.094161033630371,-2.0084500312805176
1701980008810627300,5.64262744140625,1.7237517833709717,-2.601865530014038,-1.8335914611816406
1701980008827626200,5.659626220703125,1.5261718034744263,-2.048833131790161,-2.3023762702941895
1701980008844613600,5.676613525390625,1.3770582675933838,-2.274786949157715,-2.617076873779297
1701980008861605400,5.69360546875,2.053950786590576,-2.4370696544647217,-2.9390058517456055
1701980008878596900,5.710596923828125,2.7682247161865234,-2.746040105819702,-3.0818161964416504
1701980008895577600,5.72757763671875,3.260059118270874,-3.280663013458252,-2.819282054901123
1701980008912579600,5.74457958984375,2.6030993461608887,-3.79765248298645,-1.6845245361328125
1701980008929568500,5.761568603515625,1.7783058881759644,-4.387475490570068,0.09832382202148438
1701980008946565000,5.778565185546875,1.2280762195587158,-4.616344928741455,0.5276975631713867
1701980008963543300,5.795543212890625,0.24546858668327332,-4.583680629730225,0.2909088134765625
1701980008980545300,5.812545166015625,-0.20768797397613525,-4.226135730743408,-0.38179683685302734
1701980008997526300,5.8295263671875,-0.32650959491729736,-4.673427104949951,-0.1026601791381836
1701980009014528300,5.8465283203125,-0.578401505947113,-5.350163459777832,0.695195198059082
1701980009031519500,5.86351953125,-0.4992326498031616,-5.494699478149414,2.2608890533447266
1701980009048511000,5.880510986328125,0.1136399507522583,-5.3635640144348145,3.4527931213378906
1701980009065502700,5.897502685546875,0.17022740840911865,-5.0457234382629395,3.8403072357177734
1701980009082494200,5.914494140625,-0.5472089052200317,-4.845196723937988,3.3285083770751953
1701980009099483400,5.9314833984375,-0.3953397274017334,-5.000035285949707,2.467820167541504
1701980009116479000,5.94847900390625,0.48353224992752075,-5.674641132354736,2.3273754119873047
1701980009133458200,5.965458251953125,1.260240077972412,-6.0971574783325195,2.939016342163086
1701980009150460000,5.9824599609375,1.4938552379608154,-6.175412178039551,4.043817520141602
1701980009167451100,5.999451171875,0.7168498635292053,-6.282550811767578,4.933150291442871
1701980009184443000,6.01644287109375,0.16705799102783203,-6.164303302764893,4.368607521057129
1701980009201426400,6.033426513671875,0.5630095601081848,-6.163714408874512,2.902613639831543
1701980009218420700,6.050420654296875,1.9704368114471436,-5.822452545166016,1.657515525817871
1701980009235419100,6.067419189453125,2.5900800228118896,-6.003247261047363,2.7151718139648438
1701980009252408600,6.08440869140625,0.8064947128295898,-6.805152893066406,3.8999319076538086
1701980009269399800,6.10139990234375,-0.3915306329727173,-6.507325649261475,2.9865331649780273
1701980009286391600,6.1183916015625,-1.1134878396987915,-6.105647563934326,1.2195405960083008
1701980009303375600,6.135375732421875,-1.261163353919983,-5.676617622375488,-0.6296005249023438
1701980009320369400,6.152369384765625,0.16099196672439575,-5.34326171875,-1.123732566833496
1701980009337358300,6.1693583984375,1.6889574527740479,-5.206907272338867,-0.21483421325683594
1701980009354347800,6.18634765625,2.1042282581329346,-5.4071784019470215,1.4960346221923828
1701980009371343400,6.20334326171875,1.9708831310272217,-5.434566497802734,2.559354782104492
1701980009388331500,6.22033154296875,1.2461111545562744,-4.886165142059326,1.7526016235351562
1701980009405329400,6.237329345703125,0.662180483341217,-4.877993583679199,0.2545948028564453
1701980009422323000,6.254322998046875,2.5437562465667725,-5.2460832595825195,-0.5215740203857422
1701980009439314400,6.271314453125,5.637664794921875,-4.290208339691162,-0.4161252975463867
1701980009456306000,6.288305908203125,4.474218845367432,-2.7900948524475098,1.122319221496582
1701980009473297400,6.30529736328125,0.827180802822113,-2.733907461166382,2.1870784759521484
1701980009490288600,6.32228857421875,-1.0814874172210693,-2.2497336864471436,0.27823352813720703
1701980009507272700,6.339272705078125,-2.4658658504486084,-1.5206682682037354,-2.526093006134033
1701980009524271600,6.356271728515625,-2.776188850402832,-0.8269288539886475,-3.7759623527526855
1701980009541263000,6.37326318359375,-0.5623413324356079,-0.9755585193634033,-3.5242934226989746
1701980009558242300,6.3902421875,1.1708707809448242,-1.0728445053100586,-2.2458438873291016
1701980009575246000,6.40724609375,1.7326627969741821,-0.4872673749923706,-0.701146125793457
1701980009592224800,6.424224853515625,2.1541762351989746,0.48272085189819336,-0.5016880035400391
1701980009609225000,6.441224853515625,2.316753387451172,1.1150435209274292,-1.3709449768066406
1701980009626209500,6.45820947265625,2.1663010120391846,1.3577771186828613,-1.927891731262207
1701980009643212000,6.4752119140625,2.0356061458587646,1.1959340572357178,-2.0636515617370605
1701980009660203500,6.49220361328125,2.063845157623291,1.0430723428726196,-2.0438504219055176
1701980009677194800,6.50919482421875,2.7755789756774902,1.44257390499115,-1.8516507148742676
1701980009694186000,6.52618603515625,3.307013511657715,1.889849066734314,-1.489293098449707
1701980009711177000,6.543177001953125,3.381115436553955,2.064091682434082,-1.0252337455749512
1701980009728160500,6.560160400390625,3.0754146575927734,2.0319650173187256,-0.9140300750732422
1701980009745160400,6.577160400390625,2.9055633544921875,1.8177852630615234,-1.0884981155395508
1701980009762152000,6.59415185546875,2.68633770942688,1.4406192302703857,-1.2582120895385742
1701980009779146200,6.611146240234375,3.0876550674438477,1.2621169090270996,-1.1029119491577148
1701980009796137500,6.628137451171875,3.9316258430480957,1.3556129932403564,-0.8320159912109375
1701980009813126100,6.645126220703125,4.291090488433838,1.3042266368865967,-0.29726600646972656
1701980009830118000,6.662117919921875,3.9989681243896484,1.2513573169708252,-0.17352676391601562
1701980009847109400,6.679109375,3.6573119163513184,1.011596918106079,-0.5102100372314453
1701980009864100900,6.696100830078125,3.5470783710479736,1.1448845863342285,-1.158557415008545
1701980009881092000,6.713092041015625,3.516223669052124,1.2200117111206055,-1.193288803100586
1701980009898083300,6.730083251953125,3.0125732421875,1.4123539924621582,-0.7936897277832031
1701980009915064600,6.747064697265625,2.121037244796753,1.1433475017547607,-0.1568150520324707
1701980009932066600,6.764066650390625,1.6215482950210571,0.6026301383972168,-0.030975341796875
1701980009949057800,6.781057861328125,1.7395061254501343,-0.12525033950805664,-0.28745603561401367
1701980009966049500,6.798049560546875,2.186957359313965,0.019497394561767578,-0.919064998626709
1701980009983040800,6.815040771484375,2.5337839126586914,0.4092984199523926,-0.9017758369445801
1701980010000032500,6.832032470703125,1.9279813766479492,0.11571359634399414,0.32555055618286133
1701980010017023200,6.849023193359375,1.1761822700500488,-0.3593921661376953,1.5455918312072754
1701980010034015500,6.866015380859375,1.205735445022583,-0.49118995666503906,1.6400938034057617
1701980010051006500,6.88300634765625,2.2755775451660156,-0.6062426567077637,1.1441397666931152
1701980010067998200,6.899998291015625,3.1233596801757812,-0.6528010368347168,1.3359899520874023
1701980010084989700,6.91698974609375,3.4070851802825928,-0.34015607833862305,2.0592780113220215
1701980010101981200,6.933981201171875,2.0727176666259766,-0.44364166259765625,2.998528480529785
1701980010118972400,6.950972412109375,1.1414921283721924,-0.458895206451416,3.343959331512451
1701980010135964000,6.9679638671875,0.383472204208374,-0.5217318534851074,3.1931991577148438
1701980010152955100,6.984955078125,0.305511474609375,-0.04044342041015625,3.1642656326293945
1701980010169952500,7.001952392578125,-0.1326439380645752,0.5666985511779785,2.960508346557617
1701980010186938000,7.018938232421875,-0.6165306568145752,0.8346366882324219,2.6968111991882324
1701980010203929600,7.0359296875,-0.23627519607543945,1.0725936889648438,2.1650338172912598
1701980010220914200,7.0529140625,1.0386343002319336,1.364450454711914,2.25814151763916
1701980010237904400,7.069904296875,1.2293548583984375,0.8517508506774902,3.1023340225219727
1701980010254893600,7.0868935546875,1.0769329071044922,1.0199151039123535,3.2104673385620117
1701980010271884800,7.103884765625,0.33738207817077637,1.3735508918762207,3.3034844398498535
1701980010288881400,7.12088134765625,-0.6891958713531494,1.9675893783569336,3.1217403411865234
1701980010305875200,7.137875244140625,-1.116586685180664,2.2787981033325195,3.317984104156494
1701980010322860500,7.154860595703125,-0.4643740653991699,2.7273001670837402,3.7222790718078613
1701980010339854000,7.17185400390625,0.3905606269836426,3.527844190597534,4.112425804138184
1701980010356852200,7.188852294921875,0.6173577308654785,3.2671070098876953,5.225925445556641
1701980010373833500,7.20583349609375,0.6638059616088867,3.119844913482666,5.916871070861816
1701980010390829600,7.22282958984375,0.290585994720459,2.7504730224609375,6.529298782348633
1701980010407818500,7.239818603515625,-0.6243410110473633,2.398642063140869,6.119381904602051
1701980010424808700,7.25680859375,-0.7328174114227295,2.694692611694336,4.4229350090026855
1701980010441804300,7.27380419921875,-0.48760199546813965,3.0761642456054688,3.0479793548583984
1701980010458798600,7.290798583984375,0.587010383605957,2.9200243949890137,2.4393906593322754
1701980010475781400,7.307781494140625,1.616261601448059,2.530400276184082,2.80863094329834
1701980010492783600,7.32478369140625,2.348867654800415,2.0981569290161133,3.749084949493408
1701980010509777200,7.341777099609375,2.709623336791992,2.0454297065734863,4.105263710021973
1701980010526767000,7.35876708984375,2.696763753890991,1.9875311851501465,3.331939220428467
1701980010543758600,7.375758544921875,2.559591770172119,1.8115196228027344,1.8335003852844238
1701980010560750300,7.392750244140625,3.054730176925659,1.6351237297058105,0.8291764259338379
1701980010577741600,7.409741455078125,3.5219004154205322,1.593726634979248,0.4443783760070801
1701980010594733000,7.426733154296875,3.592550754547119,1.441774845123291,0.4198575019836426
1701980010611724800,7.443724853515625,3.678060531616211,1.2814393043518066,0.4849672317504883
1701980010628715800,7.4607158203125,3.7251763343811035,1.1155567169189453,0.6869025230407715
1701980010645707500,7.47770751953125,3.513819694519043,0.8956294059753418,0.8318610191345215
1701980010662698800,7.49469873046875,3.566324472427368,0.6581201553344727,0.46489524841308594
1701980010679690200,7.511690185546875,3.702420949935913,0.6131591796875,-0.6622257232666016
1701980010696681700,7.528681640625,3.9212417602539062,0.5338921546936035,-1.254732608795166
1701980010713673000,7.5456728515625,4.117971897125244,0.584963321685791,-1.2330036163330078
1701980010730662100,7.562662109375,4.285384178161621,0.5645444393157959,-0.5773115158081055
1701980010747656200,7.57965625,3.8536534309387207,0.3208627700805664,0.6104717254638672
1701980010764650000,7.59664990234375,3.5215747356414795,0.13989877700805664,0.6428585052490234
1701980010781639000,7.613638916015625,3.5662593841552734,-0.052904367446899414,-0.5106658935546875
1701980010798620200,7.6306201171875,3.551544189453125,-0.1847538948059082,-1.6827502250671387
1701980010815622000,7.647621826171875,3.7490010261535645,-0.6568603515625,-1.699800968170166
1701980010832613400,7.66461328125,4.407140731811523,-0.9491744041442871,-0.4486703872680664
1701980010849602000,7.68160205078125,3.577962636947632,-1.3125019073486328,1.7448015213012695
1701980010866588200,7.698588134765625,2.396008253097534,-1.7408967018127441,2.4179935455322266
1701980010883587800,7.715587890625,2.3636586666107178,-1.7999444007873535,0.756495475769043
1701980010900579300,7.732579345703125,2.025165557861328,-1.9581265449523926,-0.7393903732299805
1701980010917556700,7.749556640625,1.6541770696640015,-2.069136381149292,-1.2649688720703125
1701980010934562000,7.76656201171875,1.9142429828643799,-2.177375316619873,-1.0477828979492188
1701980010951551000,7.783551025390625,2.2091853618621826,-2.0845437049865723,-0.22735595703125
1701980010968545300,7.800545166015625,1.2485955953598022,-2.281423568725586,1.3671321868896484
1701980010985539000,7.8175390625,0.6184661984443665,-2.6688170433044434,1.8064584732055664
1701980011002528000,7.834528076171875,0.30830514430999756,-2.8732166290283203,0.9118099212646484
1701980011019520500,7.8515205078125,-0.17091131210327148,-3.3184127807617188,-0.10909080505371094
1701980011036518000,7.868517822265625,0.10864448547363281,-3.914093017578125,-0.9301891326904297
1701980011053502500,7.88550244140625,1.1011226177215576,-3.7260148525238037,-1.6173782348632812
1701980011070491600,7.90249169921875,1.7446454763412476,-3.4987590312957764,-1.2685604095458984
1701980011087487200,7.9194873046875,1.5062165260314941,-3.8993403911590576,0.5027532577514648
1701980011104477000,7.936476806640625,1.0802631378173828,-4.265814781188965,1.3259401321411133
1701980011121468200,7.95346826171875,0.6795435547828674,-4.521999359130859,0.47588443756103516
1701980011138460000,7.9704599609375,1.0881589651107788,-4.7601847648620605,-0.6845474243164062
1701980011155451100,7.987451171875,1.5520448684692383,-5.04376220703125,-0.9583063125610352
1701980011172442600,8.004442626953125,2.106350898742676,-4.742483139038086,-0.47252750396728516
1701980011189434000,8.02143408203125,1.5949727296829224,-4.915119171142578,0.6269550323486328
1701980011206431500,8.038431396484375,0.9071445465087891,-5.025191307067871,0.7909154891967773
1701980011223417000,8.0554169921875,1.2514078617095947,-4.957579135894775,-0.2717447280883789
1701980011240408300,8.072408203125,1.4742348194122314,-4.7226338386535645,-0.8754100799560547
1701980011257399800,8.08939990234375,0.38146036863327026,-5.052017688751221,-0.11254405975341797
1701980011274388500,8.106388427734375,-0.8182699680328369,-5.204170227050781,0.5132131576538086
1701980011291385000,8.123385009765625,-0.3527437448501587,-5.40733528137207,1.3567619323730469
1701980011308374300,8.140374267578125,0.33070147037506104,-4.687286853790283,2.3439512252807617
1701980011325365200,8.157365234375,-0.43917620182037354,-4.311429023742676,3.1289443969726562
1701980011342356700,8.174356689453125,-1.6860847473144531,-4.536595821380615,2.606515884399414
1701980011359346200,8.19134619140625,-2.487978458404541,-5.254836559295654,1.9398345947265625
1701980011376342500,8.208342529296875,-1.8649308681488037,-5.598451137542725,1.7635326385498047
1701980011393329000,8.225328857421875,-0.5522716045379639,-5.769870758056641,2.677792549133301
1701980011410325500,8.242325439453126,-0.07171386480331421,-5.491208076477051,3.3630685806274414
1701980011427314400,8.259314453125,-0.4943537712097168,-5.376600742340088,2.953275680541992
1701980011444305700,8.2763056640625,-1.1305174827575684,-5.76418399810791,2.351552963256836
1701980011461297400,8.29329736328125,-1.0802586078643799,-6.050163269042969,1.5227327346801758
1701980011478289000,8.310288818359375,-0.7879171371459961,-6.278079032897949,1.054128646850586
1701980011495280000,8.327280029296874,-0.15373778343200684,-6.065908908843994,1.1579599380493164
1701980011512271600,8.344271728515626,1.1040245294570923,-5.910463809967041,2.5696706771850586
1701980011529265200,8.36126513671875,1.9695582389831543,-6.039159297943115,3.392205238342285
1701980011546252500,8.37825244140625,2.23118257522583,-6.318733215332031,3.0778608322143555
1701980011563245800,8.395245849609376,1.1626834869384766,-5.878398418426514,1.7897138595581055
1701980011580237300,8.4122373046875,-0.0631476640701294,-5.502852439880371,1.022212028503418
1701980011597218300,8.42921826171875,-1.5724326372146606,-4.907247066497803,0.6229896545410156
1701980011614220300,8.44622021484375,-1.4565620422363281,-4.750048637390137,0.9527225494384766
1701980011631201300,8.463201171875,-0.072816401720047,-4.7291259765625,1.0717220306396484
1701980011648203300,8.480203369140625,1.089511513710022,-4.98632287979126,0.9453411102294922
1701980011665194800,8.49719482421875,0.6691497564315796,-4.973630428314209,0.07973670959472656
1701980011682175500,8.514175537109375,0.031602367758750916,-4.379887104034424,-1.054884910583496
1701980011699167000,8.5311669921875,-0.9350447058677673,-3.734464168548584,-1.3985624313354492
1701980011716169000,8.5481689453125,-0.8598196506500244,-3.5326616764068604,-0.61541748046875
1701980011733160700,8.56516064453125,0.42991459369659424,-3.7330727577209473,0.4043750762939453
1701980011750151700,8.582151611328126,1.9314371347427368,-3.64200758934021,1.0865583419799805
1701980011767132700,8.599132568359375,2.850334644317627,-3.1004576683044434,0.6417293548583984
1701980011784135000,8.616135009765625,3.2192068099975586,-2.3191795349121094,-0.1710948944091797
1701980011801126400,8.63312646484375,2.5704967975616455,-1.6117726564407349,-0.5680999755859375
1701980011818118000,8.650117919921875,1.3783655166625977,-1.3013132810592651,-0.29889678955078125
1701980011835099000,8.667098876953125,0.7458328008651733,-0.8865408897399902,0.07833099365234375
1701980011852101000,8.68410107421875,0.8115909695625305,-0.638120174407959,0.674717903137207
1701980011869092400,8.70109228515625,1.3474453687667847,-0.44904327392578125,0.7253780364990234
1701980011886079500,8.71807958984375,2.4532949924468994,-0.22910213470458984,0.5049705505371094
1701980011903079400,8.735079345703125,2.525477170944214,0.09120988845825195,0.33341503143310547
1701980011920068600,8.752068603515625,1.9433720111846924,0.2815849781036377,0.052771568298339844
1701980011937056000,8.769055908203125,1.6320772171020508,0.5554428100585938,-0.05214405059814453
1701980011954047000,8.786046875,1.4449131488800049,0.6516904830932617,0.40525150299072266
1701980011971043600,8.803043701171875,1.8089598417282104,0.72320556640625,0.6934595108032227
1701980011988032300,8.8200322265625,2.2505531311035156,0.834244966506958,0.5746574401855469
1701980012005024000,8.83702392578125,2.709533214569092,1.101198673248291,0.164764404296875
1701980012022015200,8.85401513671875,2.670099973678589,1.2081241607666016,-0.02055644989013672
1701980012039006700,8.8710068359375,2.4401895999908447,1.2086949348449707,-0.04965972900390625
1701980012055998200,8.887998291015625,2.2031989097595215,1.230318546295166,-0.11043930053710938
1701980012072989700,8.90498974609375,2.4077987670898438,1.316084384918213,0.006768226623535156
1701980012089981200,8.921981201171874,2.7534589767456055,1.5331916809082031,0.27671003341674805
1701980012106972400,8.938972412109376,2.8890018463134766,1.435293197631836,0.6160359382629395
1701980012123961600,8.955961669921875,3.286921739578247,1.1377062797546387,0.5351452827453613
1701980012140958000,8.9729580078125,3.7599599361419678,1.0662775039672852,-0.05962800979614258
1701980012157947100,8.989947021484374,4.313121318817139,1.027082920074463,-0.43538951873779297
1701980012174948000,9.006947998046876,4.227085590362549,1.018852710723877,-0.5164628028869629
1701980012191929900,9.023929931640625,3.4269025325775146,0.6409225463867188,-0.35646867752075195
1701980012208921300,9.04092138671875,3.118072986602783,0.5472683906555176,-0.17745065689086914
1701980012225912800,9.057912841796876,2.8891701698303223,0.39905357360839844,-0.04316234588623047
1701980012242904000,9.074904052734375,2.891848564147949,0.3108377456665039,0.0428614616394043
1701980012259895800,9.091895751953125,2.594534158706665,0.18426752090454102,0.5449686050415039
1701980012276887000,9.108886962890624,2.270646572113037,-0.5407857894897461,1.1802210807800293
1701980012293868300,9.125868408203125,2.529465436935425,-0.5402560234069824,1.3620991706848145
1701980012310868000,9.142867919921875,2.7057864665985107,-0.09258031845092773,1.6670022010803223
1701980012327859000,9.15985888671875,2.3028693199157715,0.17904090881347656,2.528660774230957
1701980012344853000,9.17685302734375,1.3669557571411133,0.2136831283569336,3.3320460319519043
1701980012361844500,9.193844482421875,0.7544066905975342,0.5689206123352051,3.255101203918457
1701980012378825700,9.21082568359375,0.48901987075805664,1.217383861541748,2.2012853622436523
1701980012395827500,9.227827392578124,0.8764603137969971,1.8872122764587402,1.3961572647094727
1701980012412819000,9.24481884765625,1.2619965076446533,2.1986465454101562,1.8439602851867676
1701980012429810400,9.261810546875,0.9612021446228027,2.581714153289795,2.875676155090332
1701980012446802000,9.278802001953125,0.51902174949646,2.1879425048828125,4.3102545738220215
1701980012463793200,9.295793212890626,0.4257659912109375,2.174198627471924,3.723379611968994
1701980012480774000,9.31277392578125,1.3924129009246826,2.300724983215332,1.9986591339111328
1701980012497778400,9.3297783203125,2.205477714538574,2.719566822052002,0.41365766525268555
1701980012514767600,9.346767578125,2.0689597129821777,2.1025285720825195,0.5275149345397949
1701980012531768600,9.3637685546875,0.8931355476379395,1.6744556427001953,1.0670852661132812
1701980012548750300,9.380750244140625,-0.4827580451965332,1.8216323852539062,2.0164642333984375
1701980012565731300,9.3977314453125,-0.9687175750732422,2.047417163848877,2.9112892150878906
1701980012582733800,9.41473388671875,-0.9375181198120117,2.619434356689453,3.308359146118164
1701980012599725000,9.43172509765625,-0.5047717094421387,2.9298157691955566,3.9245457649230957
1701980012616716300,9.44871630859375,-0.06415843963623047,2.7553839683532715,4.885070323944092
1701980012633701000,9.465701171875,0.11929488182067871,2.1508378982543945,6.355302810668945
1701980012650699300,9.48269921875,0.5419824123382568,2.2234344482421875,6.665588855743408
1701980012667690800,9.499690673828125,0.7740912437438965,2.5766892433166504,5.425622940063477
1701980012684682000,9.516681884765624,0.682443380355835,2.883075714111328,3.7390923500061035
1701980012701661000,9.533660888671875,0.6976571083068848,2.752775192260742,2.6746621131896973
1701980012718655000,9.550655029296875,1.155336618423462,2.038923740386963,2.7957868576049805
1701980012735659300,9.5676591796875,1.8593683242797852,1.6713776588439941,3.4417648315429688
1701980012752645400,9.584645263671876,2.02586030960083,1.7159233093261719,4.3916473388671875
1701980012769639400,9.601639404296876,1.618963599205017,2.1349472999572754,4.205036163330078
1701980012786621000,9.618620849609375,1.1821990013122559,2.744274616241455,2.850728988647461
1701980012803624400,9.63562451171875,1.0161157846450806,2.774369716644287,1.6927123069763184
1701980012820601600,9.6526015625,1.1190582513809204,2.3093419075012207,1.2840423583984375
1701980012837598200,9.66959814453125,2.4804465770721436,2.545907974243164,1.2824053764343262
1701980012854588000,9.686587890625,2.673736810684204,2.484675884246826,2.1615400314331055
1701980012871579000,9.703578857421874,2.6404001712799072,2.3321046829223633,3.3551220893859863
1701980012888569900,9.72056982421875,3.00632381439209,1.679342269897461,3.4644923210144043
1701980012905562600,9.737562744140625,3.8728394508361816,1.189507007598877,2.4138102531433105
1701980012922558500,9.754558349609376,4.294003486633301,1.1018109321594238,1.0069351196289062
1701980012939558400,9.771558349609375,3.817084789276123,1.0017600059509277,0.06775569915771484
1701980012956547600,9.788547607421876,3.2225866317749023,0.9144635200500488,0.22013187408447266
1701980012973525800,9.80552587890625,2.2042198181152344,0.927187442779541,1.9048686027526855
1701980012990528800,9.82252880859375,1.4281092882156372,0.21193933486938477,2.6014204025268555
1701980013007520000,9.83952001953125,3.1811859607696533,-0.4669804573059082,1.300776481628418
1701980013024502000,9.856501953125,5.043490886688232,-0.6551642417907715,-0.6967244148254395
1701980013041500400,9.87350048828125,5.204793930053711,-0.8931727409362793,-1.5954370498657227
1701980013058497000,9.8904970703125,4.106463432312012,-1.0946574211120605,-1.117696762084961
1701980013075486000,9.90748583984375,2.195624589920044,-1.0817835330963135,0.345367431640625
1701980013092477400,9.9244775390625,0.3606802225112915,-1.0837452411651611,1.063882827758789
1701980013109467600,9.941467529296874,0.15604591369628906,-0.9612226486206055,0.48720836639404297
1701980013126461700,9.958461669921874,0.8333740234375,-1.1327424049377441,-0.7849617004394531
1701980013143451600,9.97545166015625,2.210984945297241,-1.5404138565063477,-1.6721515655517578
1701980013160445700,9.99244580078125,3.6000003814697266,-1.611382246017456,-1.9004230499267578
1701980013177431800,10.009431884765625,3.4194815158843994,-1.7349975109100342,-1.465367317199707
1701980013194423000,10.026423095703125,1.9574739933013916,-1.743240475654602,0.13403701782226562
1701980013211417600,10.04341748046875,0.5567543506622314,-1.893646478652954,0.6181354522705078
1701980013228409000,10.0604091796875,0.7192589044570923,-2.131692409515381,-0.31622982025146484
1701980013245400600,10.077400634765626,1.0345726013183594,-2.623509407043457,-0.9424657821655273
1701980013262391800,10.094391845703125,1.3969438076019287,-2.7259864807128906,-0.9765291213989258
1701980013279383600,10.111383544921875,1.5402796268463135,-2.823014736175537,-0.8958368301391602
1701980013296366000,10.128365966796874,1.0282599925994873,-2.8424673080444336,-0.4925079345703125
1701980013313366500,10.145366455078126,0.275900661945343,-3.184459686279297,-0.17576217651367188
1701980013330357000,10.16235693359375,0.4289819300174713,-3.516916036605835,-0.39524269104003906
1701980013347346700,10.1793466796875,1.0566513538360596,-3.7578089237213135,-0.6836872100830078
1701980013364343600,10.196343505859375,1.5313692092895508,-3.8473355770111084,-1.051905632019043
1701980013381332200,10.213332275390625,1.8708419799804688,-4.199459552764893,-1.1990480422973633
1701980013398323500,10.230323486328125,1.5512670278549194,-4.640174388885498,-0.754277229309082
1701980013415304400,10.247304443359376,1.2962708473205566,-5.073605537414551,-0.3808145523071289
1701980013432304000,10.26430419921875,1.4706766605377197,-5.789907455444336,-0.269287109375
1701980013449303800,10.2813037109375,2.4375524520874023,-5.977799415588379,-1.2523670196533203
1701980013466286300,10.298286376953126,3.3099281787872314,-4.987209796905518,-2.5974159240722656
1701980013483281200,10.31528125,2.4619204998016357,-4.011989116668701,-2.4905385971069336
1701980013500272400,10.3322724609375,0.25176316499710083,-4.73451566696167,-0.08185672760009766
1701980013517264000,10.349263916015625,-0.4991418123245239,-6.260278224945068,2.208528518676758
1701980013534255400,10.36625537109375,1.1297258138656616,-6.285426139831543,2.181952476501465
1701980013551246800,10.383246826171876,2.105818510055542,-5.843478202819824,1.1895198822021484
1701980013568238600,10.400238525390625,1.5239393711090088,-5.497539520263672,0.17158794403076172
1701980013585229600,10.4172294921875,0.637617826461792,-4.868992328643799,-0.3209648132324219
1701980013602221300,10.43422119140625,-1.3386650085449219,-4.082276821136475,-0.059477806091308594
1701980013619212800,10.451212890625,-3.4534547328948975,-3.6680333614349365,0.9840545654296875
1701980013636204300,10.468204345703125,-3.189307689666748,-3.670840263366699,1.8561477661132812
1701980013653185000,10.48518505859375,-2.0561718940734863,-3.6689188480377197,1.6759777069091797
1701980013670187000,10.50218701171875,0.009072065353393555,-3.8030848503112793,1.2928619384765625
1701980013687178500,10.519178466796875,0.8417211771011353,-4.2357683181762695,1.649942398071289
1701980013704158700,10.53615869140625,0.4607342481613159,-4.747832298278809,2.7197608947753906
1701980013721158000,10.553157958984375,-0.7071505188941956,-4.797950744628906,3.8372812271118164
1701980013738147300,10.570147216796874,-1.1938209533691406,-4.250823497772217,3.6823835372924805
1701980013755135500,10.587135498046875,-1.0616258382797241,-4.116619110107422,2.99429988861084
1701980013772124400,10.60412451171875,-0.21882551908493042,-4.28337287902832,2.3648290634155273
1701980013789118200,10.6211181640625,0.4788617491722107,-4.917683124542236,2.7447147369384766
1701980013806109200,10.638109130859375,-0.6834328770637512,-5.758683681488037,3.2937870025634766
1701980013823108600,10.655108642578124,-1.4080145359039307,-5.972470760345459,2.452683448791504
1701980013840092000,10.672091796875,-1.646790862083435,-5.845046043395996,1.3408756256103516
1701980013857083400,10.68908349609375,-0.3502020835876465,-5.23410701751709,0.5753498077392578
1701980013874074000,10.70607421875,0.5565829277038574,-4.82511043548584,0.78204345703125
1701980013891068700,10.723068603515625,0.5965318083763123,-5.066580295562744,2.2209091186523438
1701980013908060200,10.74006005859375,-0.17389839887619019,-5.390556812286377,2.923211097717285
1701980013925049300,10.75704931640625,-0.4726712107658386,-5.251608848571777,1.9672222137451172
1701980013942043100,10.774043212890625,-0.17348501086235046,-4.900755882263184,0.5625638961791992
1701980013959035100,10.79103515625,0.5524630546569824,-4.537774085998535,-0.3781909942626953
1701980013976035300,10.808035400390626,0.9936791658401489,-4.452993392944336,-0.15872764587402344
1701980013993024800,10.825024658203125,0.5911012291908264,-4.2934041023254395,0.8868522644042969
1701980014010016500,10.8420166015625,-0.15402835607528687,-3.8842716217041016,1.757232666015625
1701980014027005400,10.85900537109375,0.24367395043373108,-3.5822982788085938,1.4304742813110352
1701980014044001800,10.876001708984376,1.6775405406951904,-2.8384106159210205,0.2475261688232422
1701980014060990700,10.89299072265625,2.386951446533203,-1.9918646812438965,-0.9946222305297852
1701980014077982500,10.909982421875,2.3296167850494385,-1.4294697046279907,-1.8034982681274414
1701980014094955800,10.926955810546875,2.065098524093628,-1.4168704748153687,-1.7642765045166016
1701980014111965200,10.943965087890625,1.2880686521530151,-1.1528362035751343,-1.1243305206298828
1701980014128954400,10.960954345703126,0.3906390070915222,-0.7626765966415405,-0.7730722427368164
1701980014145950700,10.97795068359375,0.33010029792785645,-0.37345266342163086,-1.4955987930297852
1701980014162939400,10.994939453125,1.0780820846557617,0.10593032836914062,-2.531836986541748
1701980014179931100,11.01193115234375,1.607627034187317,0.46382975578308105,-2.7466115951538086
1701980014196922400,11.02892236328125,1.6921595335006714,0.4684324264526367,-2.239262104034424
1701980014213903400,11.0459033203125,1.072608470916748,0.5694959163665771,-1.3516845703125
1701980014230902800,11.06290283203125,0.45964860916137695,0.568934440612793,-0.5698118209838867
1701980014247899600,11.079899658203125,0.6405365467071533,0.4389944076538086,-0.20540332794189453
1701980014264888300,11.096888427734376,1.94769287109375,0.38073110580444336,-0.15304946899414062
1701980014281879800,11.1138798828125,3.4332809448242188,0.4071321487426758,-0.020867347717285156
1701980014298864000,11.130864013671875,4.391373157501221,0.5518465042114258,0.3167448043823242
1701980014315862800,11.14786279296875,4.110058784484863,0.46031761169433594,1.4078741073608398
1701980014332854300,11.164854248046876,3.500701427459717,0.44147396087646484,1.6442852020263672
1701980014349845800,11.181845703125,3.278618335723877,0.30239009857177734,1.1844677925109863
1701980014366837200,11.198837158203125,3.7013001441955566,0.7417917251586914,0.4171142578125
1701980014383828700,11.215828857421876,3.86238956451416,1.0532355308532715,0.0664215087890625
1701980014400820200,11.2328203125,3.5847411155700684,1.1773781776428223,0.5909552574157715
1701980014417811700,11.249811767578125,2.8388373851776123,1.2134442329406738,1.550384521484375
1701980014434803000,11.266802978515624,2.749457359313965,1.2087764739990234,2.215674877166748
1701980014451806200,11.28380615234375,3.3971707820892334,1.1141819953918457,2.439669132232666
1701980014468786000,11.300785888671875,4.460300445556641,0.9253592491149902,2.3974037170410156
1701980014485775000,11.317775146484376,4.629817008972168,0.9713883399963379,2.0350341796875
1701980014502771500,11.334771484375,4.236069679260254,1.0453910827636719,1.5749545097351074
1701980014519760400,11.351760498046875,3.362478733062744,1.0599513053894043,1.1513872146606445
1701980014536751900,11.368751953125,2.732996940612793,1.0598735809326172,0.9859175682067871
1701980014553738000,11.385738037109375,2.1815571784973145,0.6681618690490723,1.3599247932434082
1701980014570732300,11.402732177734375,1.9264088869094849,0.7478065490722656,1.1723976135253906
1701980014587718400,11.419718505859375,1.2092087268829346,0.929908275604248,0.8267173767089844
1701980014604717800,11.4367177734375,0.3815886974334717,1.2204623222351074,0.38844871520996094
1701980014621709300,11.453709228515624,-0.10967040061950684,0.9698920249938965,0.4673142433166504
1701980014638700800,11.47070068359375,0.5094583034515381,0.9427170753479004,0.6337571144104004
1701980014655684000,11.48768408203125,0.959876298904419,1.1283984184265137,1.0819907188415527
1701980014672681500,11.504681396484376,1.632899522781372,1.1986398696899414,1.8562369346618652
1701980014689662500,11.521662353515625,1.5227465629577637,0.7400307655334473,3.127751350402832
1701980014706668500,11.53866845703125,1.7001159191131592,0.35535383224487305,3.7908449172973633
1701980014723658000,11.555657958984375,1.8745131492614746,0.5685701370239258,3.300729274749756
1701980014740649200,11.572649169921876,2.129274606704712,1.3774738311767578,2.3538355827331543
1701980014757631500,11.589631591796875,1.3515968322753906,1.6739706993103027,3.1479554176330566
1701980014774632400,11.606632568359375,-0.1451563835144043,1.6986069679260254,4.517706871032715
1701980014791624000,11.6236240234375,-0.6347365379333496,2.2684226036071777,4.2193169593811035
1701980014808615200,11.640615234375,-0.42862939834594727,2.696298122406006,4.209590435028076
1701980014825606700,11.657606689453125,-0.010419368743896484,3.285332679748535,3.880394458770752
1701980014842598100,11.67459814453125,-0.026082992553710938,3.609205722808838,3.7830276489257812
1701980014859590000,11.69158984375,-0.4385342597961426,3.4872121810913086,3.9377875328063965
1701980014876584000,11.708583984375,-0.302609920501709,3.3691821098327637,4.122802734375
1701980014893559600,11.7255595703125,0.757260799407959,3.204916000366211,4.498350143432617
1701980014910553900,11.742553955078124,1.8035283088684082,3.202512741088867,4.613132476806641
1701980014927555600,11.7595556640625,2.296964168548584,3.1640892028808594,4.581850051879883
1701980014944547000,11.776547119140625,2.2319631576538086,3.1171011924743652,4.3138957023620605
1701980014961540600,11.79354052734375,1.5758509635925293,3.2082595825195312,3.9186816215515137
1701980014978530000,11.810530029296874,0.8764047622680664,3.261935234069824,3.758448600769043
1701980014995511000,11.827510986328125,0.257335901260376,3.2255868911743164,3.675112247467041
1701980015012513000,11.844512939453125,0.15909886360168457,3.183398723602295,3.3907370567321777
1701980015029500700,11.861500732421876,0.3632345199584961,3.1498966217041016,3.0822877883911133
1701980015046503200,11.878503173828125,0.7335891723632812,3.1569056510925293,2.717226028442383
1701980015063484200,11.895484130859375,1.2139503955841064,2.768535614013672,2.513340473175049
1701980015080479000,11.91247900390625,2.1667017936706543,2.1428613662719727,2.558335781097412
1701980015097470200,11.92947021484375,3.0499792098999023,1.8384690284729004,2.6028780937194824
1701980015114462000,11.9464619140625,2.9493093490600586,1.7769508361816406,2.7072157859802246
1701980015131453400,11.963453369140625,2.281463623046875,1.5188708305358887,2.378492832183838
1701980015148442000,11.980442138671876,2.3103907108306885,1.1480498313903809,1.3581151962280273
1701980015165439000,11.99743896484375,3.479867458343506,0.8080201148986816,0.7185554504394531
1701980015182427600,12.014427734375,4.6292266845703125,0.6262807846069336,0.5730772018432617
1701980015199419100,12.031419189453125,5.172219753265381,0.6461334228515625,0.51043701171875
1701980015216410600,12.04841064453125,4.502443790435791,0.5421037673950195,0.851475715637207
1701980015233401900,12.06540185546875,3.981281280517578,-0.16084861755371094,1.2666630744934082
1701980015250393600,12.0823935546875,3.663733959197998,-1.1389460563659668,0.9844503402709961
1701980015267385000,12.099385009765625,4.401937007904053,-2.039414882659912,0.4746732711791992
1701980015284373800,12.116373779296875,5.889949798583984,-2.149606227874756,-0.017516136169433594
1701980015301370600,12.13337060546875,6.498933792114258,-1.8042478561401367,-0.4865388870239258
1701980015318359600,12.150359619140625,5.280400276184082,-1.9735565185546875,0.04343223571777344
1701980015335350800,12.167350830078124,3.228383779525757,-2.5622105598449707,0.9077844619750977
1701980015352342300,12.18434228515625,1.378949522972107,-2.7245352268218994,0.7455720901489258
1701980015369331200,12.201331298828125,0.39634573459625244,-2.3148655891418457,0.05498313903808594
1701980015386328000,12.218328125,-0.006696820259094238,-1.8582258224487305,-0.528773307800293
1701980015403317000,12.23531689453125,0.4837021827697754,-1.6660120487213135,-0.6212730407714844
1701980015420308000,12.252307861328125,1.1505067348480225,-2.077806234359741,0.015336990356445312
1701980015437299700,12.2692998046875,1.9224283695220947,-2.936460256576538,1.0489568710327148
1701980015454291200,12.286291259765624,2.0825467109680176,-3.4197957515716553,1.6666069030761719
1701980015471282400,12.303282470703126,2.0149943828582764,-3.1127965450286865,1.1743831634521484
1701980015488274000,12.32027392578125,1.325690746307373,-2.866595506668091,0.28084850311279297
1701980015505255400,12.33725537109375,0.6621472835540771,-2.556199789047241,-0.42543983459472656
1701980015522257000,12.3542568359375,0.07564795017242432,-2.709883689880371,-0.538273811340332
1701980015539238000,12.37123779296875,0.2781186103820801,-2.923701047897339,-0.6724452972412109
1701980015556240000,12.388239990234375,0.5221114158630371,-3.031250238418579,-0.9513044357299805
1701980015573227000,12.40522705078125,0.5631941556930542,-2.742642879486084,-1.198369026184082
1701980015590227500,12.4222275390625,0.5172580480575562,-2.946337938308716,-1.2854499816894531
1701980015607214300,12.43921435546875,0.5270819664001465,-3.2759594917297363,-1.6123113632202148
1701980015624205800,12.456205810546875,0.4553171694278717,-3.4372565746307373,-1.7262744903564453
1701980015641197600,12.473197509765624,0.05157184600830078,-3.381547451019287,-1.1391305923461914
1701980015658189000,12.49018896484375,-0.6197171807289124,-3.6592702865600586,-0.4167766571044922
1701980015675187200,12.507187255859375,-1.1336737871170044,-3.840191125869751,-0.2841024398803711
1701980015692171800,12.524171875,-0.9335699081420898,-3.835507392883301,-0.3893623352050781
1701980015709163300,12.541163330078126,-0.5089647769927979,-4.159322738647461,-0.29638004302978516
1701980015726157300,12.5581572265625,-0.32816916704177856,-4.702280521392822,-0.3688173294067383
1701980015743143400,12.575143310546874,0.31191736459732056,-5.182949542999268,-0.34833240509033203
1701980015760127200,12.592127197265626,0.7907652854919434,-5.224959373474121,0.2491922378540039
1701980015777129200,12.609129150390626,0.2711437940597534,-5.37920618057251,1.426513671875
1701980015794118000,12.626117919921874,-1.1272239685058594,-5.461607456207275,2.3012189865112305
1701980015811114800,12.64311474609375,-1.7854328155517578,-5.912782669067383,1.8252487182617188
1701980015828103400,12.660103515625,-1.036218523979187,-6.437211513519287,1.1252212524414062
1701980015845095200,12.67709521484375,-0.2791935205459595,-6.2324137687683105,0.4640016555786133
1701980015862086400,12.69408642578125,-0.21943604946136475,-5.929823398590088,1.1168766021728516
1701980015879078100,12.711078125,-0.75892174243927,-5.686471462249756,2.365865707397461
1701980015896069400,12.7280693359375,-1.3447794914245605,-4.924496650695801,3.4653778076171875
1701980015913061000,12.74506103515625,-1.3311586380004883,-4.703066825866699,3.592569351196289
1701980015930052400,12.76205224609375,-0.7925994992256165,-5.273645877838135,3.2684755325317383
1701980015947041500,12.77904150390625,-0.26001787185668945,-5.883327960968018,2.6690139770507812
1701980015964025900,12.79602587890625,-0.05276930332183838,-6.469963550567627,2.3354597091674805
1701980015981020200,12.813020263671875,-0.48155689239501953,-6.380407810211182,1.5387868881225586
1701980015998018300,12.830018310546874,-0.6857626438140869,-5.696178436279297,0.8100862503051758
1701980016014992400,12.846992431640626,-0.45947587490081787,-4.993818759918213,0.19761371612548828
1701980016032001500,12.86400146484375,-0.6132125854492188,-4.994144916534424,0.29821205139160156
1701980016048992800,12.88099267578125,-0.7782925367355347,-5.203981876373291,0.8708343505859375
1701980016065984300,12.897984375,-0.8469877243041992,-5.063383102416992,0.8683595657348633
1701980016082975500,12.9149755859375,-0.606266975402832,-4.412004470825195,0.839991569519043
1701980016099967000,12.931967041015625,0.12807822227478027,-4.003733158111572,1.3441743850708008
1701980016116958700,12.948958740234374,0.3040733337402344,-3.6918482780456543,1.4713239669799805
1701980016133939700,12.965939697265625,0.43869125843048096,-3.7608981132507324,1.0140619277954102
1701980016150940400,12.9829404296875,1.3275983333587646,-3.7051522731781006,-0.1466960906982422
1701980016167934000,12.999933837890625,2.398527145385742,-3.507580280303955,-0.9898338317871094
1701980016184924700,13.016924560546874,3.1423990726470947,-3.0797195434570312,-1.1398687362670898
1701980016201903000,13.033903076171875,2.492436170578003,-2.5473577976226807,-1.1990747451782227
1701980016218898000,13.05089794921875,0.7992959022521973,-2.2807328701019287,-0.8794374465942383
1701980016235901400,13.0679013671875,-1.143213152885437,-1.9565383195877075,-0.5422554016113281
1701980016252888300,13.084888427734375,-2.133265972137451,-1.5236310958862305,-0.5715389251708984
1701980016269881900,13.1018818359375,-2.3872218132019043,-1.4440672397613525,-0.8370189666748047
1701980016286873600,13.11887353515625,-1.5953434705734253,-1.5941693782806396,-1.263803482055664
1701980016303864600,13.135864501953124,-0.1999882459640503,-1.4449312686920166,-1.6957077980041504
1701980016320846600,13.1528466796875,0.5897027850151062,-1.329362154006958,-1.503756046295166
1701980016337840600,13.169840576171875,0.8077312707901001,-0.9385690689086914,-1.2924375534057617
1701980016354828800,13.186828857421874,0.7063291668891907,-0.572674036026001,-1.499600887298584
1701980016371822300,13.203822265625,0.789099395275116,-0.3492584228515625,-2.0841617584228516
1701980016388812800,13.220812744140625,0.8430504202842712,-0.45206427574157715,-2.6735024452209473
1701980016405805000,13.23780517578125,0.9707273244857788,-0.45505309104919434,-3.3544960021972656
1701980016422805200,13.25480517578125,1.0517003536224365,-0.47629880905151367,-3.8277382850646973
1701980016439796700,13.271796630859376,1.6170949935913086,-0.18643450736999512,-3.394892692565918
1701980016456788000,13.2887880859375,1.5456629991531372,-0.1900618076324463,-1.499845027923584
1701980016473772300,13.305772216796875,1.936215877532959,-0.08545780181884766,0.13003063201904297
1701980016490771200,13.322771240234376,2.3192243576049805,0.1649608612060547,0.8365936279296875
1701980016507762400,13.339762451171875,2.714745283126831,0.565624475479126,-0.040665626525878906
1701980016524754200,13.356754150390625,3.354128837585449,0.9050774574279785,-0.49407339096069336
1701980016541745400,13.373745361328124,3.3216943740844727,1.4651377201080322,-0.02035665512084961
1701980016558736600,13.390736572265626,2.758796215057373,1.6492061614990234,1.486131191253662
1701980016575728400,13.407728271484375,2.4624128341674805,1.6203882694244385,2.333220958709717
1701980016592717300,13.42471728515625,2.657571792602539,1.8103747367858887,2.4068570137023926
1701980016609711400,13.44171142578125,3.3233938217163086,1.8998103141784668,1.4567875862121582
1701980016626695000,13.45869482421875,4.228351593017578,1.745530128479004,0.6535725593566895
1701980016643694300,13.4756943359375,4.555347919464111,1.825639009475708,0.6518559455871582
1701980016660685600,13.492685546875,3.3209640979766846,1.6891818046569824,1.149484634399414
1701980016677677300,13.50967724609375,1.9038070440292358,1.8723087310791016,1.4901161193847656
1701980016694658000,13.526657958984375,1.0446691513061523,2.0969505310058594,1.2695260047912598
1701980016711660300,13.543660400390625,0.8956265449523926,2.1057510375976562,1.254408359527588
1701980016728651800,13.56065185546875,1.590909719467163,1.7451329231262207,1.3218460083007812
1701980016745643300,13.577643310546875,2.353559970855713,1.3041753768920898,0.9987096786499023
1701980016762634500,13.594634521484375,2.612112283706665,1.302208423614502,0.6150836944580078
1701980016779626200,13.611626220703124,1.8545045852661133,1.5505290031433105,0.6673393249511719
1701980016796607000,13.62860693359375,0.7097055912017822,1.6950874328613281,1.148996353149414
1701980016813621000,13.64562109375,-0.0019145011901855469,1.6405129432678223,2.116757392883301
1701980016830600400,13.662600341796875,-0.519521951675415,1.1127400398254395,2.9748921394348145
1701980016847591200,13.679591064453126,-0.21719884872436523,0.6955156326293945,2.7596030235290527
1701980016864584700,13.696584716796876,0.9134836196899414,1.0512065887451172,1.4845542907714844
1701980016881575200,13.7135751953125,1.5296931266784668,1.5466217994689941,1.2889370918273926
1701980016898566100,13.730566162109374,1.2972397804260254,0.8948149681091309,2.9310827255249023
1701980016915558100,13.74755810546875,0.7412688732147217,0.2572135925292969,4.049826145172119
1701980016932549600,13.764549560546875,0.36774325370788574,0.4592595100402832,3.7437524795532227
1701980016949538300,13.781538330078124,-0.000015497207641601562,0.9462680816650391,2.5505051612854004
1701980016966535000,13.798534912109375,0.1056063175201416,1.5053701400756836,0.7158551216125488
1701980016983513300,13.815513427734375,1.1128501892089844,1.9550328254699707,0.4115471839904785
1701980017000515300,13.832515380859375,1.1807067394256592,1.345738410949707,2.621586799621582
1701980017017504500,13.84950439453125,0.03938555717468262,1.3599567413330078,4.952718734741211
1701980017034500900,13.8665009765625,-0.5418248176574707,1.2248635292053223,4.889753818511963
1701980017051489500,13.883489501953125,-0.6330101490020752,0.9596590995788574,2.9237446784973145
1701980017068480500,13.90048046875,0.10135531425476074,0.6641263961791992,1.3586678504943848
1701980017085473000,13.91747314453125,0.8710532188415527,0.6963343620300293,0.8763513565063477
1701980017102464500,13.934464599609376,1.2273633480072021,0.742363452911377,1.9015989303588867
1701980017119455700,13.951455810546875,0.6857438087463379,0.7103753089904785,4.389136791229248
1701980017136447200,13.968447265625,0.08468484878540039,0.6018552780151367,5.188663482666016
1701980017153438500,13.9854384765625,-0.18488502502441406,0.6705307960510254,4.155477523803711
1701980017170429700,14.0024296875,-0.32445430755615234,0.9659662246704102,2.4961485862731934
1701980017187406300,14.01940625,0.033650875091552734,1.388418197631836,1.353602409362793
1701980017204403700,14.03640380859375,0.32857584953308105,1.3790478706359863,1.29433012008667
1701980017221394400,14.05339453125,0.5448827743530273,1.2782678604125977,2.227891445159912
1701980017238396200,14.070396240234375,0.5934770107269287,1.2136712074279785,3.5046796798706055
1701980017255370500,14.08737060546875,0.8268551826477051,1.4227337837219238,3.8671908378601074
1701980017272370700,14.10437060546875,1.0662908554077148,1.8958215713500977,2.958815574645996
1701980017289362200,14.121362060546875,1.0979094505310059,2.0877296924591064,1.8483967781066895
1701980017306351600,14.1383515625,1.3151888847351074,2.1518726348876953,1.0669445991516113
1701980017323346400,14.155346435546875,1.6214544773101807,1.9956586360931396,1.0025887489318848
1701980017340337200,14.172337158203124,2.105034351348877,1.8858261108398438,1.7613859176635742
1701980017357326300,14.189326416015625,2.347583055496216,1.9824810028076172,2.7807650566101074
1701980017374318800,14.20631884765625,2.7148678302764893,2.134333610534668,2.90988826751709
1701980017391312100,14.22331201171875,2.960317611694336,2.077068328857422,2.3317837715148926
1701980017408303000,14.24030322265625,3.226261615753174,2.0334105491638184,1.5023398399353027
1701980017425293000,14.25729296875,3.066511392593384,1.9630084037780762,1.0606613159179688
1701980017442284000,14.274283935546874,3.069079875946045,1.9527628421783447,0.7351927757263184
1701980017459277600,14.291277587890624,3.115515947341919,1.750201940536499,0.8336286544799805
1701980017476269300,14.308269287109376,3.09213924407959,1.5361309051513672,1.3423261642456055
1701980017493268200,14.325268310546875,2.753101110458374,1.2644200325012207,1.3541231155395508
1701980017510249000,14.3422490234375,2.591872215270996,1.1183881759643555,0.4639730453491211
1701980017527251000,14.3592509765625,2.308427095413208,1.1962895393371582,-0.4660940170288086
1701980017544232000,14.37623193359375,2.342263698577881,1.1168768405914307,-0.7006959915161133
1701980017561234200,14.393234130859375,2.505470037460327,0.9542574882507324,-0.39507293701171875
1701980017578225700,14.4102255859375,2.4698944091796875,0.8093752861022949,0.5412702560424805
1701980017595217200,14.427217041015625,2.1893904209136963,0.40995311737060547,0.8582000732421875
1701980017612208600,14.444208740234375,2.2311208248138428,0.08143877983093262,0.4390726089477539
1701980017629200000,14.461199951171874,2.3202338218688965,-0.06304550170898438,-0.22233867645263672
1701980017646191600,14.478191650390626,2.3255863189697266,-0.10942459106445312,-0.7823734283447266
1701980017663183000,14.49518310546875,1.824631929397583,-0.5647480487823486,-1.0082111358642578
1701980017680174300,14.51217431640625,1.2006211280822754,-1.058192491531372,-1.2031583786010742
1701980017697166000,14.529166015625,0.6626062393188477,-1.5517175197601318,-1.3402271270751953
1701980017714157300,14.5461572265625,0.5250730514526367,-1.7908530235290527,-1.376297950744629
1701980017731146200,14.563146240234374,0.937195897102356,-1.724678874015808,-1.363260269165039
1701980017748143400,14.580143310546875,1.2653982639312744,-1.9358888864517212,-1.0727968215942383
1701980017765129200,14.597129150390625,1.230556607246399,-2.5403246879577637,-0.6533727645874023
1701980017782125800,14.614125732421876,1.09424889087677,-3.0633554458618164,-0.5541219711303711
1701980017799112200,14.6311123046875,0.6420064568519592,-3.455444097518921,-0.6836614608764648
1701980017816108800,14.64810888671875,0.24758648872375488,-3.489981174468994,-1.0417518615722656
1701980017833097700,14.66509765625,0.3436315059661865,-3.2850639820098877,-0.9845056533813477
1701980017850089500,14.68208935546875,0.44565725326538086,-3.398972272872925,-0.5135841369628906
1701980017867080700,14.699080810546874,0.6288192868232727,-3.885802745819092,-0.18848228454589844
1701980017884072200,14.716072265625,0.9145822525024414,-4.179788112640381,-0.24994754791259766
1701980017901063400,14.7330634765625,0.9037866592407227,-4.358132362365723,-0.857666015625
1701980017918055200,14.75005517578125,1.5049550533294678,-4.43917989730835,-1.3669633865356445
1701980017935036000,14.767035888671876,1.659828543663025,-4.58312463760376,-1.188441276550293
1701980017952038100,14.7840380859375,1.462877631187439,-4.392411708831787,-0.2549476623535156
1701980017969029600,14.801029541015625,0.3650684952735901,-4.63008451461792,0.688237190246582
1701980017986021000,14.818021240234375,-0.22369825839996338,-5.09475040435791,0.8860912322998047
1701980018003012900,14.835012939453126,-0.1398991346359253,-4.780383110046387,-0.1173553466796875
1701980018020004000,14.852004150390625,0.82160484790802,-4.261724472045898,-1.1146240234375
1701980018036995600,14.86899560546875,1.5305081605911255,-4.148758888244629,-1.5239896774291992
1701980018053988900,14.88598876953125,1.2908083200454712,-4.42391300201416,-1.036428451538086
1701980018070976800,14.902976806640625,0.7850230932235718,-4.6436662673950195,-0.25928211212158203
1701980018087969800,14.9199697265625,-0.020289182662963867,-4.827147483825684,0.1663675308227539
1701980018104961500,14.93696142578125,-0.7216589450836182,-4.723544120788574,0.07799053192138672
1701980018121953000,14.953953125,-1.145087718963623,-4.650544166564941,-0.1636056900024414
1701980018138944300,14.9709443359375,-1.4145324230194092,-4.577103137969971,0.16780853271484375
1701980018155925200,14.98792529296875,-2.145155906677246,-4.735686302185059,2.316584587097168
1701980018172927500,15.004927490234374,-2.668039560317993,-4.768691062927246,3.765011787414551
1701980018189918700,15.021918701171876,-2.985562801361084,-4.746015548706055,3.919236183166504
1701980018206910200,15.03891015625,-2.81364369392395,-4.781330108642578,3.224750518798828
1701980018223891200,15.05589111328125,-2.329442024230957,-4.93639612197876,2.5681676864624023
1701980018240893200,15.07289306640625,-1.9691708087921143,-5.146515846252441,2.1041507720947266
1701980018257885000,15.089885009765625,-2.2590084075927734,-5.66480827331543,2.2789306640625
1701980018274865700,15.10686572265625,-1.7092880010604858,-6.309900283813477,2.5701093673706055
1701980018291867600,15.12386767578125,-0.10589849948883057,-6.495663642883301,2.365449905395508
1701980018308848600,15.1408486328125,0.44541284441947937,-6.414834976196289,2.866250991821289
1701980018325850600,15.1578505859375,-0.8546199202537537,-6.40106201171875,2.327146530151367
1701980018342841900,15.174841796875,-1.8380229473114014,-6.374863147735596,0.33815670013427734
1701980018359833600,15.19183349609375,-1.552126407623291,-6.568996906280518,-1.5089044570922852
1701980018376825300,15.208825439453125,-0.350547194480896,-6.174040794372559,-2.2213430404663086
1701980018393799700,15.225799560546875,1.3207957744598389,-5.6900177001953125,-1.425755500793457
1701980018410805800,15.2428056640625,1.8809375762939453,-4.970472812652588,0.9861345291137695
1701980018427802000,15.259802001953124,1.0960125923156738,-4.415214538574219,2.3446435928344727
1701980018444791000,15.276791015625,0.6783785820007324,-4.19305419921875,0.35540199279785156
1701980018461782300,15.2937822265625,0.5826438665390015,-4.022698879241943,-1.7607440948486328
1701980018478771200,15.310771240234375,-0.015484333038330078,-3.784987688064575,-3.3267970085144043
1701980018495765500,15.327765625,0.3124784827232361,-3.264885902404785,-4.228803634643555
1701980018512757000,15.344757080078125,0.7276880741119385,-3.6055097579956055,-3.572010040283203
1701980018529748500,15.36174853515625,1.1729964017868042,-3.6028456687927246,-1.4220104217529297
1701980018546737200,15.378737060546875,0.9659765362739563,-3.2792744636535645,0.44489479064941406
1701980018563734000,15.395734130859376,0.7632020115852356,-2.607151985168457,1.037550926208496
1701980018580723000,15.412722900390625,1.1473127603530884,-2.234468698501587,0.6170454025268555
1701980018597714400,15.42971435546875,1.8249220848083496,-1.7359442710876465,-0.13248157501220703
1701980018614706000,15.446705810546876,2.2353365421295166,-1.360262393951416,-0.22933006286621094
1701980018631697400,15.463697509765625,2.0830066204071045,-1.1836678981781006,0.2607746124267578
1701980018648679000,15.480678955078124,2.5018529891967773,-0.9577212333679199,0.8577785491943359
1701980018665677800,15.497677734375,2.8165817260742188,-0.4001579284667969,1.4779205322265625
1701980018682675700,15.51467578125,3.0775866508483887,0.019338130950927734,1.5267581939697266
1701980018699661800,15.531661865234375,3.3774266242980957,0.16858339309692383,0.8725290298461914
1701980018716651300,15.5486513671875,3.360718250274658,0.37210750579833984,0.1036539077758789
1701980018733646000,15.56564599609375,2.9519729614257812,0.6470789909362793,-0.26039791107177734
1701980018750641000,15.582640869140626,2.3062658309936523,0.757784366607666,-0.006632804870605469
1701980018767626500,15.59962646484375,1.9176398515701294,0.6360163688659668,0.45013856887817383
1701980018784620800,15.616620849609374,2.0654406547546387,0.5173182487487793,0.7877869606018066
1701980018801612000,15.633612060546875,2.3864927291870117,0.7513599395751953,0.6143646240234375
1701980018818603800,15.650603759765625,2.8049535751342773,0.9967284202575684,0.3102550506591797
1701980018835595300,15.66759521484375,2.63802433013916,1.1210479736328125,0.2704167366027832
1701980018852586500,15.68458642578125,2.3084945678710938,0.7193374633789062,0.9304451942443848
1701980018869576200,15.701576171875,2.1990344524383545,0.4197235107421875,1.261756420135498
1701980018886568700,15.718568603515624,2.5991954803466797,0.5629329681396484,1.1003546714782715
1701980018903563500,15.7355634765625,2.8162589073181152,0.6781959533691406,0.653069019317627
1701980018920552700,15.752552734375,2.9048280715942383,0.9112682342529297,0.3495802879333496
1701980018937530400,15.7695302734375,2.7769806385040283,1.1164422035217285,0.21935415267944336
1701980018954538800,15.786538818359375,2.3491475582122803,1.1702938079833984,0.5733261108398438
1701980018971527000,15.80352685546875,2.1434152126312256,1.2181267738342285,1.1070818901062012
1701980018988518400,15.820518310546875,2.294703483581543,1.1870694160461426,1.6659908294677734
1701980019005505800,15.837505859375,2.6345162391662598,1.425534725189209,1.8004074096679688
1701980019022501600,15.854501708984374,2.8791322708129883,1.7675156593322754,1.5519194602966309
1701980019039492900,15.871492919921875,2.8344390392303467,2.1691267490386963,1.3171710968017578
1701980019056484400,15.888484375,2.6018848419189453,2.4470221996307373,1.7032866477966309
1701980019073476000,15.90547607421875,2.218555212020874,2.3527796268463135,2.5828661918640137
1701980019090467600,15.922467529296876,2.141242265701294,2.35918927192688,3.2802066802978516
1701980019107458800,15.939458740234375,2.2782704830169678,2.3105709552764893,3.4619922637939453
1701980019124450300,15.9564501953125,2.401127576828003,2.0675883293151855,3.4437103271484375
1701980019141451000,15.973450927734374,2.473670721054077,1.9003686904907227,2.766935348510742
1701980019158440200,15.990440185546875,2.2951910495758057,2.050924301147461,2.016329288482666
1701980019175424800,16.0074248046875,1.8642966747283936,2.004848003387451,1.804997444152832
1701980019192418800,16.024418701171875,1.241964340209961,2.0403428077697754,2.132547378540039
1701980019209407500,16.041407470703124,0.5953917503356934,2.135531425476074,2.843851089477539
1701980019226399500,16.0583994140625,0.15928888320922852,1.915137767791748,3.411773681640625
1701980019243391000,16.075390869140627,0.369931697845459,1.7664551734924316,2.8280797004699707
1701980019260382200,16.09238232421875,0.7852730751037598,1.8223485946655273,1.9235658645629883
1701980019277373700,16.109373779296874,1.3396949768066406,2.0439023971557617,1.3677091598510742
1701980019294371800,16.126371826171876,1.6156346797943115,1.8793249130249023,1.6815381050109863
1701980019311356700,16.143356689453125,1.8635907173156738,1.4413647651672363,2.934591293334961
1701980019328339000,16.1603388671875,1.6588704586029053,1.2345771789550781,4.052302360534668
1701980019345340000,16.17733984375,1.4163403511047363,1.3622221946716309,3.482390880584717
1701980019362331000,16.194330810546877,1.3583979606628418,1.3829474449157715,2.178964138031006
1701980019379322600,16.211322509765626,0.9628250598907471,1.1378750801086426,1.3322067260742188
1701980019396312000,16.22831201171875,0.7613718509674072,0.7868924140930176,1.3313899040222168
1701980019413302800,16.245302734375,0.5695066452026367,0.7993888854980469,1.9059429168701172
1701980019430297300,16.26229736328125,0.45259904861450195,1.4670238494873047,2.9952378273010254
1701980019447288800,16.279288818359376,0.3355584144592285,1.9988417625427246,3.2258377075195312
1701980019464280300,16.2962802734375,0.27474498748779297,1.8895363807678223,3.002568244934082
1701980019481271800,16.313271728515623,0.5298805236816406,1.403852939605713,2.6567907333374023
1701980019498263000,16.330262939453124,1.3091728687286377,1.358863353729248,2.0360846519470215
1701980019515254500,16.347254638671874,2.0396628379821777,1.7207374572753906,1.5828347206115723
1701980019532246000,16.36424609375,2.0004987716674805,1.9893865585327148,2.139410972595215
1701980019549237500,16.381237548828125,1.9408173561096191,1.8471999168395996,3.049734115600586
1701980019566228700,16.398228759765626,2.140192985534668,1.4315223693847656,3.2185444831848145
1701980019583220700,16.415220703125,2.369168281555176,1.56390380859375,2.333383083343506
1701980019600212200,16.432212158203125,2.173405885696411,1.605604648590088,1.5224614143371582
1701980019617203500,16.449203369140626,1.72316575050354,1.7483868598937988,1.2237200736999512
1701980019634195200,16.4661953125,1.3025314807891846,1.7976646423339844,1.1264762878417969
1701980019651186200,16.483186279296874,1.1302013397216797,1.1424322128295898,1.7581944465637207
1701980019668178000,16.500177978515627,1.5330357551574707,0.7548632621765137,1.9301280975341797
1701980019685169700,16.517169677734376,2.3003737926483154,1.2193679809570312,1.3023147583007812
1701980019702148400,16.5341484375,2.300386428833008,1.1723780632019043,0.9314041137695312
1701980019719144000,16.55114404296875,2.011303663253784,0.9494614601135254,0.6239914894104004
1701980019736145700,16.568145751953125,1.6321748495101929,0.727971076965332,0.43828296661376953
1701980019753135400,16.58513525390625,1.3630036115646362,0.6260385513305664,0.5837674140930176
1701980019770126800,16.602126953125,1.2325228452682495,0.6483397483825684,1.1804895401000977
1701980019787118000,16.6191181640625,1.2873014211654663,0.7096343040466309,1.5665149688720703
1701980019804109600,16.636109619140626,1.708896517753601,0.6919941902160645,1.4918813705444336
1701980019821089000,16.653089111328125,2.2760448455810547,0.4414510726928711,1.2070121765136719
1701980019838086700,16.670086669921876,2.6165785789489746,0.0019707679748535156,0.6417446136474609
1701980019855074000,16.687073974609376,2.868657350540161,-0.18054676055908203,-0.18707942962646484
1701980019872068000,16.704068115234374,2.930915355682373,-0.2662820816040039,-0.5623073577880859
1701980019889059000,16.72105908203125,2.851285219192505,-0.1923685073852539,-0.4164304733276367
1701980019906060300,16.738060302734375,2.556147336959839,-0.22942566871643066,0.31827259063720703
1701980019923050200,16.75505029296875,2.383349895477295,-0.6569783687591553,0.848484992980957
1701980019940039200,16.7720390625,2.791808843612671,-1.2011439800262451,0.39022159576416016
1701980019957035800,16.789035888671876,2.8752126693725586,-2.010805606842041,-0.3330717086791992
1701980019974022000,16.80602197265625,2.318413496017456,-2.6535696983337402,-1.0939970016479492
1701980019991001900,16.823001953125,1.2720468044281006,-1.9454677104949951,-1.9212265014648438
1701980020008007700,16.840007568359376,-0.03627824783325195,-1.5810778141021729,-1.8659391403198242
1701980020024999200,16.856999267578125,-0.6526117324829102,-1.4011328220367432,-1.6989502906799316
1701980020041990700,16.87399072265625,-0.12913501262664795,-1.1380574703216553,-1.6138391494750977
1701980020058971600,16.8909716796875,0.4351198673248291,-1.1426172256469727,-1.2675504684448242
1701980020075973600,16.9079736328125,1.0404059886932373,-1.3175184726715088,-0.7266254425048828
1701980020092965000,16.924965087890627,1.4372974634170532,-1.6282953023910522,-0.11339855194091797
1701980020109956600,16.94195654296875,1.1701229810714722,-1.8303115367889404,-0.04736137390136719
1701980020126948000,16.958947998046874,0.5427944660186768,-1.9935243129730225,-0.4933795928955078
1701980020143939300,16.975939208984375,0.6072927117347717,-2.368678092956543,-0.8766899108886719
1701980020160934100,16.99293408203125,0.9539714455604553,-2.1755552291870117,-0.8175821304321289
1701980020177919200,17.009919189453125,1.181462287902832,-2.181868314743042,-0.5608615875244141
1701980020194904300,17.026904296875,1.212158441543579,-2.3254141807556152,0.3092508316040039
1701980020211905500,17.043905517578125,1.0322082042694092,-2.693720817565918,1.0946311950683594
1701980020228896800,17.060896728515626,0.7867869138717651,-3.2824511528015137,0.713841438293457
1701980020245880600,17.077880615234374,1.1097614765167236,-4.2153449058532715,-0.04193305969238281
1701980020262875400,17.09487548828125,0.8153577446937561,-5.0379533767700195,-1.0737485885620117
1701980020279871200,17.111871337890626,0.8384193181991577,-5.495364189147949,-2.0007686614990234
1701980020296863000,17.128863037109376,0.5661484599113464,-5.1228437423706055,-1.8834280967712402
1701980020313843700,17.14584375,-0.23477649688720703,-4.028049468994141,-1.015268325805664
1701980020330843100,17.162843017578126,-1.322051763534546,-3.140463352203369,0.08402156829833984
1701980020347840000,17.179840087890625,-1.9565435647964478,-2.3804218769073486,0.5286798477172852
1701980020364818400,17.196818359375,-2.93192720413208,-2.4009342193603516,1.398233413696289
1701980020381819000,17.21381884765625,-3.035175323486328,-3.043166160583496,2.5304698944091797
1701980020398813400,17.2308134765625,-2.056900978088379,-4.814608097076416,2.879082679748535
1701980020415787500,17.24778759765625,-0.05475586652755737,-5.928173542022705,1.8177404403686523
1701980020432795100,17.264795166015624,1.0727856159210205,-5.495427131652832,0.4400491714477539
1701980020449784300,17.281784423828125,0.31739574670791626,-4.502358436584473,-0.2045297622680664
1701980020466780200,17.2987802734375,-1.1421822309494019,-4.050893306732178,1.7188405990600586
1701980020483770600,17.3157705078125,-2.7012839317321777,-4.391922950744629,4.501550674438477
1701980020500761000,17.332760986328125,-2.5986223220825195,-4.381896018981934,4.769095420837402
1701980020517752300,17.34975244140625,-1.27799391746521,-4.836845874786377,3.8510093688964844
1701980020534743800,17.366743896484376,0.1890978217124939,-5.587732791900635,2.563985824584961
1701980020551735000,17.383735107421874,0.9707528948783875,-6.027811050415039,1.3458442687988281
1701980020568726800,17.400726806640623,0.23536205291748047,-6.131866931915283,1.2831735610961914
1701980020585718300,17.41771826171875,-2.25795578956604,-6.22995138168335,2.8718128204345703
1701980020602709500,17.43470947265625,-4.338315486907959,-6.925152778625488,3.149639129638672
1701980020619701200,17.451701171875,-2.387432813644409,-6.47396993637085,1.4243383407592773
1701980020636692700,17.468692626953125,0.00923466682434082,-5.143725395202637,0.1817493438720703
1701980020653683000,17.485682861328126,1.8822128772735596,-4.492345809936523,0.25371551513671875
1701980020670674200,17.502674072265624,2.9344840049743652,-4.31125020980835,1.5370807647705078
1701980020687657500,17.519657470703127,1.095342993736267,-4.645656108856201,3.575624465942383
1701980020704652300,17.53665234375,-0.38281846046447754,-4.583191394805908,2.586789131164551
1701980020721640400,17.553640380859374,-1.3600996732711792,-4.054872512817383,0.30730724334716797
1701980020738632700,17.5706328125,-1.4919737577438354,-3.6785686016082764,-1.2408790588378906
1701980020755623200,17.587623046875,-0.9842183589935303,-3.9059104919433594,-1.4500913619995117
1701980020772618000,17.604617919921875,0.041904985904693604,-3.857177734375,-1.6390743255615234
1701980020789612300,17.6216123046875,0.8448089361190796,-3.7753076553344727,-1.1142444610595703
1701980020806600400,17.638600341796874,0.6175087690353394,-3.5075790882110596,0.057351112365722656
1701980020823588400,17.65558837890625,-0.7216780185699463,-3.2997584342956543,1.314509391784668
1701980020840582400,17.67258251953125,-1.4836591482162476,-3.1055266857147217,0.13796710968017578
1701980020857574000,17.689573974609374,-0.974547266960144,-2.414376974105835,-1.797994613647461
1701980020874562600,17.7065625,-0.5703270435333252,-1.8102853298187256,-2.7580337524414062
1701980020891556000,17.72355615234375,0.3449555039405823,-1.7492806911468506,-2.2127790451049805
1701980020908548400,17.74054833984375,1.314635157585144,-1.709794521331787,-1.089716911315918
1701980020925540000,17.7575400390625,1.6201786994934082,-1.208345890045166,-0.05701732635498047
1701980020942529000,17.774529052734376,1.5907347202301025,-0.7420523166656494,0.35523223876953125
1701980020959522800,17.791522705078126,1.2271034717559814,-0.496837854385376,0.20665645599365234
1701980020976522500,17.8085224609375,1.2641291618347168,-0.2126612663269043,-0.3737516403198242
1701980020993514200,17.82551416015625,1.327222228050232,-0.22543740272521973,-0.5916213989257812
1701980021010505700,17.842505615234376,1.6700007915496826,-0.2131490707397461,-0.14980125427246094
1701980021027496700,17.85949658203125,1.176802158355713,-0.4149954319000244,0.5330905914306641
1701980021044488200,17.87648828125,0.8588380813598633,-0.3607666492462158,0.1786813735961914
1701980021061480000,17.89347998046875,1.1209704875946045,-0.1039881706237793,-0.9381389617919922
1701980021078471400,17.910471435546874,1.83262038230896,0.1331017017364502,-1.1384963989257812
1701980021095463000,17.927462890625,2.872559070587158,0.4463169574737549,-0.5477933883666992
1701980021112454000,17.944453857421873,2.9972450733184814,0.6609406471252441,0.6966314315795898
1701980021129446400,17.9614462890625,2.4499850273132324,0.9327049255371094,1.5274038314819336
1701980021146435800,17.978435791015624,1.9246482849121094,1.101938009262085,1.594078540802002
1701980021163430400,17.995430419921874,2.387208938598633,1.2430915832519531,1.296712875366211
1701980021180420400,18.01242041015625,3.174776315689087,1.169196367263794,0.9998002052307129
1701980021197411600,18.02941162109375,4.326938152313232,1.402987003326416,0.8399362564086914
1701980021214403300,18.0464033203125,4.4274468421936035,1.7686827182769775,1.184110164642334
1701980021231394600,18.06339453125,4.131272792816162,2.0767269134521484,1.674227237701416
1701980021248370700,18.08037060546875,3.7704315185546875,2.020082950592041,1.8222999572753906
1701980021265378000,18.0973779296875,3.8172967433929443,2.050861120223999,1.2661433219909668
1701980021282369500,18.11436962890625,3.6642649173736572,1.931731939315796,0.7603802680969238
1701980021299361000,18.131361083984373,3.4936673641204834,1.9225046634674072,0.1738443374633789
1701980021316352500,18.1483525390625,3.1288366317749023,1.9420933723449707,0.1778416633605957
1701980021333343500,18.165343505859376,2.917623996734619,2.1118032932281494,0.849881649017334
1701980021350335200,18.182335205078125,2.5547385215759277,2.5602900981903076,1.8502836227416992
1701980021367326700,18.19932666015625,2.1279537677764893,2.966402053833008,2.6929879188537598
1701980021384318200,18.216318115234376,1.505199909210205,2.372201681137085,3.5119094848632812
1701980021401309700,18.233309814453126,1.3693325519561768,2.036895990371704,2.935429096221924
1701980021418301400,18.250301513671875,1.3729350566864014,1.912660837173462,2.335970878601074
1701980021435288800,18.267288818359376,1.603182077407837,2.181104898452759,2.277945041656494
1701980021452274400,18.2842744140625,1.3485939502716064,2.2157435417175293,2.996161460876465
1701980021469274600,18.301274658203123,1.0947816371917725,2.2016217708587646,3.4518213272094727
1701980021486268200,18.31826806640625,0.9038162231445312,2.4593584537506104,2.6630778312683105
1701980021503256300,18.33525634765625,0.7267165184020996,2.980762004852295,1.7270827293395996
1701980021520253000,18.3522529296875,0.37787914276123047,3.219618082046509,1.9624757766723633
1701980021537241900,18.369241943359373,-0.11261606216430664,2.5321006774902344,2.536902904510498
1701980021554233300,18.3862333984375,-0.1734614372253418,2.0118889808654785,2.7069811820983887
1701980021571222300,18.40322216796875,0.6414549350738525,1.7679948806762695,2.3938608169555664
1701980021588219000,18.420218994140626,1.212256669998169,1.944040298461914,1.797335147857666
1701980021605197000,18.437197021484376,1.2073090076446533,1.987192153930664,1.9272289276123047
1701980021622199300,18.45419921875,0.5788567066192627,2.13248872756958,2.4643149375915527
1701980021639190500,18.4711904296875,-0.2212200164794922,2.004297971725464,3.491515636444092
1701980021656182300,18.488182373046875,-0.6602797508239746,1.7230195999145508,3.852849006652832
1701980021673173800,18.505173828125,0.646141767501831,1.5255541801452637,2.92592716217041
1701980021690165000,18.5221650390625,1.758495807647705,0.9831256866455078,2.2537007331848145
1701980021707156500,18.539156494140624,2.1259992122650146,0.8134799003601074,2.2809805870056152
1701980021724148200,18.556148193359373,1.6526353359222412,0.9448823928833008,3.209545135498047
1701980021741139700,18.5731396484375,0.3420722484588623,1.1845684051513672,4.23315954208374
1701980021758131000,18.590130859375,-0.43609046936035156,1.6194934844970703,4.1087751388549805
1701980021775112200,18.6071123046875,-0.4683403968811035,1.889986515045166,3.407693386077881
1701980021792114200,18.6241142578125,0.13014650344848633,1.9868278503417969,2.568296432495117
1701980021809105700,18.641105712890624,0.9852895736694336,1.8881287574768066,1.9536080360412598
1701980021826097000,18.658096923828126,1.6211886405944824,1.6204183101654053,1.936903476715088
1701980021843088600,18.675088623046875,1.6257872581481934,1.308638572692871,2.5917439460754395
1701980021860079900,18.692079833984376,1.1516704559326172,1.13120698928833,3.1354517936706543
1701980021877071400,18.7090712890625,0.8170511722564697,1.287980318069458,2.5683155059814453
1701980021894063000,18.72606298828125,0.8137733936309814,1.5460877418518066,1.5957884788513184
1701980021911054300,18.743054443359377,1.00229811668396,1.6339755058288574,0.9470162391662598
1701980021928035300,18.760035400390624,1.6539831161499023,1.6635966300964355,0.901451587677002
1701980021945035000,18.777034912109375,2.0385324954986572,1.6362290382385254,1.1776981353759766
1701980021962022700,18.794022705078124,2.1241092681884766,1.6170494556427002,1.768587589263916
1701980021979020500,18.8110205078125,2.144237756729126,1.544506311416626,1.9421467781066895
1701980021996012000,18.828011962890624,2.190537929534912,1.329796314239502,1.0396976470947266
1701980022013003500,18.84500341796875,2.1433095932006836,1.2629036903381348,-0.20830202102661133
1701980022029992200,18.8619921875,2.2997565269470215,1.2698767185211182,-0.5690631866455078
1701980022046989000,18.878989013671877,2.1420106887817383,1.137831211090088,0.07250022888183594
1701980022063978000,18.89597802734375,0.8028156757354736,1.0396616458892822,0.8901462554931641
1701980022080968200,18.91296826171875,-0.2154831886291504,0.6982285976409912,0.5470724105834961
1701980022097963500,18.929963623046874,0.06676816940307617,0.6979830265045166,-0.8913145065307617
1701980022114957000,18.94695703125,0.766653299331665,0.9558463096618652,-1.7471342086791992
1701980022131940900,18.96394091796875,1.6129664182662964,0.672619104385376,-1.473404884338379
1701980022148935700,18.980935791015625,2.517782211303711,0.21724653244018555,-0.8572998046875
1701980022165925400,18.99792529296875,2.8357977867126465,-0.1333458423614502,-0.09114742279052734
1701980022182920000,19.014919921875,2.112375259399414,-0.6137361526489258,0.675724983215332
1701980022199910000,19.031909912109374,1.6807618141174316,-1.041332721710205,0.3436155319213867
1701980022216901400,19.0489013671875,1.7742702960968018,-1.3044750690460205,-0.5778465270996094
1701980022233882400,19.06588232421875,1.9657816886901855,-1.3664774894714355,-1.0059852600097656
1701980022250881800,19.0828818359375,2.365668773651123,-1.476942539215088,-0.6043434143066406
1701980022267878700,19.099878662109376,2.3495378494262695,-1.7456483840942383,0.30455493927001953
1701980022284867600,19.11686767578125,1.5008578300476074,-1.8561216592788696,0.7740077972412109
1701980022301869600,19.13386962890625,0.8613373041152954,-2.02702260017395,0.36592864990234375
1701980022318850600,19.1508505859375,0.5253932476043701,-2.1875181198120117,-0.5714225769042969
1701980022335829000,19.1678291015625,0.7337319850921631,-2.277313709259033,-1.5186347961425781
1701980022352827100,19.1848271484375,1.6111258268356323,-2.3164610862731934,-1.6539115905761719
1701980022369826800,19.201826904296876,1.8976540565490723,-2.667597532272339,-0.9267120361328125
1701980022386816300,19.218816162109373,1.5437355041503906,-2.847191333770752,-0.4516716003417969
1701980022403807200,19.23580712890625,1.8006699085235596,-2.9300692081451416,-1.01861572265625
1701980022420800000,19.252800048828124,2.1166069507598877,-2.5738720893859863,-1.9610142707824707
1701980022437780200,19.2697802734375,2.696275472640991,-2.5576846599578857,-2.249647617340088
1701980022454782500,19.286782470703123,2.899704933166504,-3.0083999633789062,-1.7846384048461914
1701980022471774000,19.30377392578125,2.531728506088257,-3.3349030017852783,-0.5804510116577148
1701980022488765200,19.32076513671875,1.0318348407745361,-3.7100236415863037,0.15376949310302734
1701980022505756700,19.337756591796875,-0.3342092037200928,-3.4372706413269043,-0.30988407135009766
1701980022522748700,19.354748779296877,-1.636264681816101,-3.067615032196045,-0.7249011993408203
1701980022539740000,19.371739990234374,-2.3086161613464355,-2.589033603668213,0.0027923583984375
1701980022556731400,19.3887314453125,-2.6078073978424072,-2.6170334815979004,1.4178152084350586
1701980022573713000,19.405712890625,-2.2695446014404297,-3.23490571975708,2.3411388397216797
1701980022590710800,19.422710693359374,-1.8606961965560913,-3.919865131378174,2.146275520324707
1701980022607709200,19.439709228515625,-1.3187170028686523,-5.025677680969238,0.8289985656738281
1701980022624697000,19.456697021484374,0.1820148229598999,-5.56436824798584,-0.4947395324707031
1701980022641688600,19.4736884765625,0.6330379843711853,-5.363025665283203,-0.42124271392822266
1701980022658677800,19.490677734375,-1.001694917678833,-5.241307258605957,0.6062355041503906
1701980022675664000,19.507663818359376,-2.5083065032958984,-4.975356578826904,1.4774961471557617
1701980022692663300,19.524663330078123,-3.396132707595825,-4.884660720825195,1.804220199584961
1701980022709652200,19.54165234375,-2.5172641277313232,-4.695886135101318,1.6615715026855469
1701980022726648800,19.55864892578125,-1.2408866882324219,-5.0269775390625,2.069106101989746
1701980022743637500,19.575637451171875,-1.1616919040679932,-5.532807350158691,3.2003517150878906
1701980022760629000,19.59262890625,-1.8066836595535278,-5.629145622253418,3.659189224243164
1701980022777620500,19.609620361328126,-2.3043112754821777,-5.2015180587768555,3.2753095626831055
1701980022794612200,19.6266123046875,-2.0770766735076904,-5.1955742835998535,2.6194257736206055
1701980022811604000,19.64360400390625,-1.1771119832992554,-5.067408084869385,1.201547622680664
1701980022828595000,19.660594970703126,-0.41193366050720215,-5.240563869476318,1.174117088317871
1701980022845576200,19.677576171875,-0.6758661270141602,-5.651974678039551,1.5931434631347656
1701980022862578400,19.694578369140626,-0.8597627878189087,-5.497178077697754,1.887986183166504
1701980022879569700,19.711569580078127,-1.209936261177063,-5.366899490356445,2.069392204284668
1701980022896561200,19.72856103515625,-1.1032381057739258,-4.940211296081543,1.5063095092773438
1701980022913560800,19.745560791015624,-1.2643290758132935,-4.421113014221191,0.7407283782958984
1701980022930541800,19.762541748046875,-1.8796401023864746,-4.187014579772949,0.3233604431152344
1701980022947538400,19.779538330078125,-2.0556440353393555,-4.246610641479492,-0.07045173645019531
1701980022964529700,19.79652978515625,-1.2032341957092285,-4.389815807342529,-0.21117115020751953
1701980022981516300,19.813516357421875,0.08733475208282471,-4.5350141525268555,-0.4432506561279297
1701980022998500000,19.8305,1.1313161849975586,-4.361151695251465,-0.6937999725341797
1701980023015501800,19.847501708984375,0.6200292706489563,-3.987593650817871,-0.5128135681152344
1701980023032482300,19.864482421875,-0.2857809066772461,-3.2684378623962402,-0.30270862579345703
1701980023049483500,19.8814833984375,-1.1209228038787842,-2.8223631381988525,-0.5909852981567383
1701980023066477300,19.898477294921875,-0.739108681678772,-2.5857064723968506,-0.9647340774536133
1701980023083467500,19.915467529296876,0.4008685350418091,-2.612342357635498,-0.8168478012084961
1701980023100456700,19.932456787109373,1.6151371002197266,-2.5853443145751953,-0.3458518981933594
1701980023117453000,19.949453125,2.196133613586426,-2.1309046745300293,-0.23289108276367188
1701980023134432300,19.966432373046874,2.3603410720825195,-1.7627692222595215,-0.2093973159790039
1701980023151433500,19.98343359375,2.186687707901001,-1.0358738899230957,-0.510624885559082
1701980023168425200,20.00042529296875,2.0940134525299072,-0.4932398796081543,-0.689967155456543
1701980023185414700,20.01741455078125,1.687619924545288,-0.33239078521728516,-0.7100648880004883
1701980023202407700,20.03440771484375,1.2664779424667358,-0.149735689163208,-0.9743871688842773
1701980023219389400,20.051389404296874,1.3490928411483765,0.1833193302154541,-1.6628446578979492
1701980023236383500,20.068383544921875,1.8699491024017334,0.48389410972595215,-2.0611672401428223
1701980023253386500,20.085386474609376,2.3801486492156982,0.6564345359802246,-1.6800661087036133
1701980023270372900,20.102372802734376,1.7994019985198975,0.37906718254089355,-0.5649394989013672
1701980023287365400,20.119365478515626,0.34580564498901367,0.29256176948547363,-0.47690773010253906
1701980023304357000,20.136357177734375,-0.2545645236968994,0.25292420387268066,-0.9571704864501953
1701980023321341000,20.1533408203125,-0.0991976261138916,0.18845653533935547,-0.9492969512939453
1701980023338337800,20.170337890625,1.1115772724151611,-0.05813121795654297,-0.16043663024902344
1701980023355323600,20.18732373046875,2.2949187755584717,-0.10288286209106445,0.3535785675048828
1701980023372316700,20.204316650390624,2.8147268295288086,0.2982316017150879,0.46317005157470703
1701980023389308000,20.221307861328125,2.7263689041137695,0.42226219177246094,0.5173492431640625
1701980023406301200,20.23830126953125,2.6982240676879883,0.4442586898803711,0.39582252502441406
1701980023423298600,20.255298583984374,2.7066006660461426,0.2908754348754883,0.35712432861328125
1701980023440289300,20.272289306640626,2.614633083343506,0.1058802604675293,0.26125288009643555
1701980023457280500,20.289280517578124,2.6564364433288574,0.4069991111755371,-0.11584711074829102
1701980023474268000,20.306267822265625,2.4708411693573,0.826784610748291,-0.40156078338623047
1701980023491263500,20.323263427734375,2.2000670433044434,1.1688485145568848,-0.367825984954834
1701980023508255200,20.340255126953124,2.2398805618286133,1.2497365474700928,-0.10140848159790039
1701980023525243600,20.35724365234375,2.390408754348755,1.167675495147705,0.18743467330932617
1701980023542240500,20.374240478515624,2.484353542327881,1.1615149974822998,0.1578044891357422
1701980023559229700,20.391229736328125,2.379364490509033,1.3366596698760986,0.1892566680908203
1701980023576210700,20.408210693359376,2.357419490814209,1.5537405014038086,0.6759872436523438
1701980023593212700,20.425212646484376,2.522854804992676,1.0409374237060547,1.6090850830078125
1701980023610204000,20.442203857421877,3.4152636528015137,1.0010466575622559,1.925645351409912
1701980023627196000,20.45919580078125,3.7963833808898926,1.2333345413208008,1.8890047073364258
1701980023644187000,20.476186767578124,3.5557284355163574,1.6175451278686523,2.028071403503418
1701980023661180200,20.49318017578125,2.815239906311035,1.5303373336791992,2.258635997772217
1701980023678168300,20.510168212890626,2.008190631866455,1.2922120094299316,2.6673951148986816
1701980023695151400,20.5271513671875,1.4718103408813477,0.9702458381652832,3.0730209350585938
1701980023712153000,20.544153076171874,1.6433241367340088,0.9970927238464355,2.8230652809143066
1701980023729144600,20.56114453125,1.9301364421844482,1.2337961196899414,2.6404409408569336
1701980023746136000,20.578135986328125,1.4882779121398926,1.3541889190673828,2.9932994842529297
1701980023763127800,20.5951279296875,0.7961304187774658,1.339151382446289,3.147021770477295
1701980023780119000,20.612119140625,0.43578529357910156,1.4881010055541992,2.9724984169006348
1701980023797100000,20.62910009765625,0.44939565658569336,1.4518141746520996,2.978086471557617
1701980023814091500,20.646091552734376,0.8061220645904541,1.5401525497436523,3.3952178955078125
1701980023831091000,20.663091064453123,0.19030284881591797,1.5768351554870605,4.281579494476318
1701980023848087600,20.680087646484374,-0.6360015869140625,1.8995695114135742,3.945239543914795
1701980023865076500,20.697076416015626,-0.5194559097290039,2.324118137359619,2.2499351501464844
1701980023882068200,20.714068115234376,0.0807957649230957,2.4681894779205322,1.4701342582702637
1701980023899059500,20.7310595703125,1.3646869659423828,2.061927556991577,2.1991119384765625
1701980023916051200,20.74805126953125,2.5380916595458984,1.6205482482910156,3.1733407974243164
1701980023933042400,20.76504248046875,2.1831448078155518,1.7161283493041992,3.9979023933410645
1701980023950034200,20.7820341796875,1.079442024230957,1.3932266235351562,4.1404805183410645
1701980023967025700,20.799025634765623,-0.036121368408203125,1.2589530944824219,3.1255664825439453
1701980023984017200,20.81601708984375,-0.6487655639648438,1.185309886932373,2.084766387939453
1701980024001008400,20.83300830078125,-0.5990028381347656,1.3960752487182617,1.691683292388916
1701980024017989400,20.8499892578125,-0.4561643600463867,1.5753045082092285,2.266186237335205
1701980024034999600,20.86699951171875,-0.22911500930786133,1.747915267944336,3.1183948516845703
1701980024051982800,20.88398291015625,-0.1943979263305664,1.6913151741027832,3.5948190689086914
1701980024068974300,20.900974365234376,-0.15844297409057617,1.8296842575073242,3.1132912635803223
1701980024085965800,20.9179658203125,-0.11118841171264648,1.9222478866577148,2.57889986038208
1701980024102957300,20.934957275390627,0.04892301559448242,1.8015046119689941,2.5072450637817383
1701980024119938800,20.951938720703126,0.3495512008666992,1.9962615966796875,2.5082387924194336
1701980024136940500,20.9689404296875,0.7860367298126221,2.175337553024292,2.845414161682129
1701980024153921800,20.985921875,1.3181812763214111,2.2409980297088623,3.0086112022399902
1701980024170921000,21.0029208984375,1.7288014888763428,2.325469493865967,2.9267992973327637
1701980024187907000,21.019906982421876,1.8582139015197754,2.2517330646514893,2.674867630004883
1701980024204914700,21.036914794921874,1.7751739025115967,2.3011398315429688,2.2079110145568848
1701980024221891600,21.0538916015625,2.0194010734558105,2.3785269260406494,1.9179234504699707
1701980024238880000,21.0708798828125,2.2508649826049805,2.3281538486480713,2.069995880126953
1701980024255870200,21.0878701171875,2.4027867317199707,2.138915538787842,2.327549457550049
1701980024272864500,21.104864501953124,2.658383846282959,2.013382911682129,2.245760917663574
1701980024289855500,21.12185546875,2.7867844104766846,1.8462443351745605,1.594151496887207
1701980024306848800,21.138848876953126,2.709080219268799,1.7805049419403076,1.013216495513916
1701980024323836700,21.155836669921875,2.4805474281311035,1.6772384643554688,0.7183718681335449
1701980024340830500,21.17283056640625,2.0729148387908936,1.2956140041351318,0.6269464492797852
1701980024357819600,21.189819580078126,1.7300077676773071,0.8578956127166748,0.9074630737304688
1701980024374813400,21.2068134765625,1.4085562229156494,0.41842031478881836,0.8829278945922852
1701980024391803400,21.223803466796873,1.4374010562896729,0.018987417221069336,0.37178707122802734
1701980024408796000,21.2407958984375,1.8844385147094727,-0.3264193534851074,-0.00003719329833984375
1701980024425784800,21.257784912109376,2.5630898475646973,-0.4395890235900879,-0.38721561431884766
1701980024442779000,21.27477880859375,3.0869946479797363,-0.7309715747833252,-0.7962207794189453
1701980024459781000,21.291781005859374,2.907160997390747,-1.1573121547698975,-0.7550754547119141
1701980024476770600,21.3087705078125,2.288461208343506,-1.2818176746368408,-0.6262693405151367
1701980024493756400,21.32575634765625,1.4522650241851807,-1.176405906677246,-1.0182523727416992
1701980024510750500,21.34275048828125,1.331269383430481,-1.3096227645874023,-1.516054630279541
1701980024527748600,21.35974853515625,2.1007590293884277,-1.3947687149047852,-1.7849464416503906
1701980024544736500,21.376736572265624,2.7018561363220215,-1.5861272811889648,-1.8028850555419922
1701980024561727700,21.393727783203126,2.6707658767700195,-1.926483392715454,-1.6873159408569336
1701980024578719500,21.410719482421875,2.183750867843628,-1.9671430587768555,-1.6425585746765137
1701980024595711000,21.4277109375,1.4211443662643433,-1.8073228597640991,-1.5492963790893555
1701980024612702500,21.444702392578126,0.5062331557273865,-1.819573163986206,-1.5054683685302734
1701980024629691600,21.461691650390627,0.5645244121551514,-2.155451774597168,-1.107229232788086
1701980024646688300,21.478688232421874,1.4496428966522217,-1.9303916692733765,-0.46833324432373047
1701980024663677200,21.49567724609375,1.248948097229004,-1.4488791227340698,-0.013619422912597656
1701980024680668700,21.512668701171876,0.5768693089485168,-1.4807552099227905,0.08868026733398438
1701980024697660200,21.52966015625,-0.1765691041946411,-1.7730525732040405,0.7078189849853516
1701980024714651400,21.5466513671875,-0.08970177173614502,-2.1359975337982178,0.9845790863037109
