time,seconds_elapsed,z,y,x
1702063394591417600,0.15941748046875,-3.22945499420166,-1.1943628787994385,-0.12125778198242188
1702063394608422100,0.176422119140625,-3.9571852684020996,-1.9353039264678955,-0.79891037940979
1702063394625416200,0.193416259765625,-4.590752601623535,-1.538908839225769,-1.185032606124878
1702063394642407000,0.210406982421875,-3.9705419540405273,-2.0293455123901367,-1.717908501625061
1702063394659402200,0.22740234375,-2.013223648071289,-2.5852394104003906,-2.4488625526428223
1702063394676397300,0.244397216796875,-0.21347427368164062,-2.999817371368408,-2.8229012489318848
1702063394693379800,0.2613798828125,0.3003530502319336,-3.492568254470825,-2.7334423065185547
1702063394710386200,0.27838623046875,-0.6980452537536621,-3.4944677352905273,-2.3784079551696777
1702063394727371000,0.29537109375,-1.4372062683105469,-3.4034018516540527,-2.272059440612793
1702063394744375300,0.312375244140625,-1.1006793975830078,-3.483780860900879,-2.042569637298584
1702063394761353700,0.329353759765625,-0.28452634811401367,-3.808912754058838,-1.5825543403625488
1702063394778358800,0.34635888671875,0.369962215423584,-3.956087350845337,-1.2466225624084473
1702063394795351600,0.3633515625,0.9840145111083984,-3.83784818649292,-1.033304214477539
1702063394812343600,0.380343505859375,1.6594057083129883,-3.5818681716918945,-0.6890773773193359
1702063394829337000,0.397337158203125,2.132575511932373,-3.122666120529175,0.23150253295898438
1702063394846334000,0.414333984375,1.9132568836212158,-2.6304025650024414,1.599827766418457
1702063394863321900,0.43132177734375,1.0798828601837158,-2.4389047622680664,2.7741622924804688
1702063394880320000,0.448320068359375,0.37120580673217773,-2.4395925998687744,2.434502601623535
1702063394897311700,0.465311767578125,0.6212174892425537,-2.349510431289673,1.0350914001464844
1702063394914304300,0.48230419921875,0.9365423917770386,-2.4135324954986572,-0.6296730041503906
1702063394931300900,0.49930078125,0.6019481420516968,-2.0927557945251465,-0.7913608551025391
1702063394948291800,0.516291748046875,-0.15388429164886475,-2.02360200881958,0.8645524978637695
1702063394965289500,0.53328955078125,-0.7961924076080322,-1.8617926836013794,1.9995670318603516
1702063394982271000,0.55027099609375,-1.235121726989746,-2.4575953483581543,2.1339521408081055
1702063394999271200,0.567271240234375,-1.4084205627441406,-2.567643165588379,0.9925031661987305
1702063395016271400,0.584271240234375,-0.8252468705177307,-2.5942611694335938,-0.03971576690673828
1702063395033257700,0.6012578125,-0.4583131670951843,-2.577989339828491,-0.2807655334472656
1702063395050256400,0.61825634765625,-0.37905532121658325,-2.1201186180114746,-0.247589111328125
1702063395067247000,0.6352470703125,-0.649061918258667,-2.0873842239379883,0.36564064025878906
1702063395084243700,0.65224365234375,-0.8710660934448242,-2.640876054763794,0.5777950286865234
1702063395101229600,0.6692294921875,-1.3734122514724731,-3.4776198863983154,-0.4110088348388672
1702063395118232000,0.686232177734375,-0.9342502355575562,-3.96685791015625,-2.0844736099243164
1702063395135222500,0.703222412109375,-0.17959606647491455,-3.9845848083496094,-1.8883051872253418
1702063395152214300,0.72021435546875,-0.2978694438934326,-4.163942337036133,0.7730016708374023
1702063395169208800,0.737208740234375,-0.46230781078338623,-4.563284397125244,2.343313217163086
1702063395186205400,0.754205322265625,-0.5291173458099365,-4.942441940307617,1.789327621459961
1702063395203187000,0.77118701171875,-0.5920655727386475,-5.5626020431518555,1.0665273666381836
1702063395220189000,0.78818896484375,0.3002582788467407,-5.422153949737549,1.4928579330444336
1702063395237185800,0.805185791015625,0.16822469234466553,-5.358479976654053,2.3401708602905273
1702063395254179800,0.822179931640625,-0.292807936668396,-5.3097944259643555,3.331296920776367
1702063395271167700,0.839167724609375,-0.36420369148254395,-5.804521560668945,3.7206039428710938
1702063395288165000,0.8561650390625,0.24230003356933594,-6.013665199279785,4.108931541442871
1702063395305159200,0.8731591796875,-0.6410958766937256,-5.454785346984863,3.1015024185180664
1702063395322155000,0.890155029296875,-0.525191068649292,-5.561480522155762,1.6692867279052734
1702063395339145000,0.90714501953125,0.7022535800933838,-5.968132972717285,1.9864444732666016
1702063395356141000,0.92414111328125,2.0175695419311523,-5.9994587898254395,3.292734146118164
1702063395373129500,0.94112939453125,1.4839324951171875,-5.783819198608398,3.828197479248047
1702063395390127400,0.95812744140625,-0.8146913051605225,-7.007177352905273,3.6593189239501953
1702063395407119000,0.975119140625,-1.3564701080322266,-7.42219877243042,2.4232587814331055
1702063395424114700,0.99211474609375,-0.08876299858093262,-7.388463020324707,1.831831932067871
1702063395441103600,1.009103515625,1.439281702041626,-7.751181125640869,1.4296503067016602
1702063395458101000,1.02610107421875,1.8052070140838623,-8.829523086547852,3.8016176223754883
1702063395475094800,1.0430947265625,0.5779348611831665,-9.266876220703125,5.304624557495117
1702063395492085500,1.06008544921875,-1.1443181037902832,-8.303132057189941,3.491748809814453
1702063395509080600,1.07708056640625,-1.9393458366394043,-8.185541152954102,2.0843076705932617
1702063395526076700,1.09407666015625,-1.283156156539917,-8.713936805725098,2.8252038955688477
1702063395543065000,1.111065185546875,-0.359616756439209,-9.221833229064941,3.801886558532715
1702063395560063000,1.12806298828125,0.3818953037261963,-9.81011962890625,4.376344680786133
1702063395577055200,1.14505517578125,-0.27890682220458984,-10.168827056884766,3.9117555618286133
1702063395594053000,1.16205322265625,-0.7149289846420288,-10.410778999328613,2.2726659774780273
1702063395611037000,1.179036865234375,-0.24643230438232422,-10.444938659667969,0.6988391876220703
1702063395628035800,1.196035888671875,0.7509236335754395,-10.193419456481934,-0.5331668853759766
1702063395645030700,1.21303076171875,1.6709184646606445,-9.919614791870117,-1.0906009674072266
1702063395662021400,1.230021484375,1.69536554813385,-9.803483963012695,-0.9945230484008789
1702063395679015000,1.247014892578125,1.2559094429016113,-9.481868743896484,-0.7925071716308594
1702063395696011800,1.26401171875,0.20953556895256042,-8.977649688720703,-0.5948524475097656
1702063395712995600,1.28099560546875,-0.6660000681877136,-8.422062873840332,-0.7708415985107422
1702063395729999000,1.2979990234375,-1.3336926698684692,-7.954679489135742,-1.3379831314086914
1702063395746990300,1.314990234375,-1.5021908283233643,-7.602916717529297,-1.9469752311706543
1702063395763986700,1.331986572265625,-0.8675328493118286,-7.307186126708984,-2.3464913368225098
1702063395780975000,1.34897509765625,-0.41570037603378296,-6.819340705871582,-2.7685914039611816
1702063395797972500,1.365972412109375,0.13109320402145386,-6.409204483032227,-2.9800243377685547
1702063395814966000,1.382966064453125,0.851022481918335,-6.040727615356445,-2.9389419555664062
1702063395831957000,1.39995703125,1.0887322425842285,-5.720949649810791,-2.4664177894592285
1702063395848949000,1.416948974609375,0.671272873878479,-4.910435199737549,-2.4834227561950684
1702063395865951000,1.433950927734375,0.25032714009284973,-3.9968881607055664,-2.5180506706237793
1702063395882942000,1.45094189453125,0.1743602752685547,-3.4166946411132812,-2.660346031188965
1702063395899926800,1.4679267578125,0.34225064516067505,-3.1883678436279297,-2.6648950576782227
1702063395916923000,1.4849228515625,0.9718937277793884,-2.983074903488159,-2.610179901123047
1702063395933922000,1.501922119140625,1.4569003582000732,-2.6111514568328857,-2.5557861328125
1702063395950903800,1.51890380859375,1.7226459980010986,-2.1146411895751953,-2.355875015258789
1702063395967913700,1.535913818359375,1.570207118988037,-1.6710896492004395,-2.0421314239501953
1702063395984903400,1.5529033203125,1.157012701034546,-1.4878109693527222,-1.4447870254516602
1702063396001893600,1.5698935546875,1.2573392391204834,-1.2353003025054932,-1.0541505813598633
1702063396018873900,1.586873779296875,1.4717466831207275,-1.0117061138153076,-0.6615877151489258
1702063396035885300,1.60388525390625,1.5672497749328613,-0.6312379837036133,-0.18187522888183594
1702063396052871000,1.620870849609375,1.3685896396636963,-0.06124258041381836,0.40396976470947266
1702063396069869800,1.637869873046875,1.3841716051101685,0.5034120082855225,0.5403070449829102
1702063396086862800,1.65486279296875,1.7716363668441772,0.7841591835021973,0.4442586898803711
1702063396103852800,1.671852783203125,1.8560700416564941,0.9234826564788818,0.228240966796875
1702063396120846800,1.688846923828125,1.7908931970596313,1.0562858581542969,0.05640411376953125
1702063396137842400,1.705842529296875,1.5103542804718018,0.945519208908081,0.5045547485351562
1702063396154839300,1.72283935546875,1.3818740844726562,1.0616471767425537,1.2864446640014648
1702063396171828500,1.739828369140625,1.6066581010818481,0.8934547901153564,1.8300533294677734
1702063396188823300,1.7568232421875,2.0650620460510254,0.49692630767822266,2.1459999084472656
1702063396205809700,1.7738095703125,1.9056307077407837,0.5821201801300049,1.8431196212768555
1702063396222808300,1.790808349609375,0.7066206932067871,0.5473902225494385,0.8454065322875977
1702063396239806000,1.807805908203125,0.14983105659484863,0.28919482231140137,0.1678152084350586
1702063396256797700,1.824797607421875,0.6397485733032227,-0.048983097076416016,0.7399330139160156
1702063396273794600,1.841794677734375,1.4965853691101074,-0.7462606430053711,2.1925878524780273
1702063396290783700,1.85878369140625,2.518916130065918,-0.7069058418273926,3.1496009826660156
1702063396307779600,1.875779541015625,2.664750337600708,-0.3629016876220703,3.0623769760131836
1702063396324774000,1.89277392578125,1.7812116146087646,-0.12798285484313965,2.1799793243408203
1702063396341764400,1.909764404296875,1.2160685062408447,-0.42679619789123535,1.4673948287963867
1702063396358759000,1.926759033203125,1.0089483261108398,-1.086315393447876,1.3652305603027344
1702063396375755500,1.943755615234375,1.0935685634613037,-1.2087104320526123,1.5305776596069336
1702063396392744000,1.960743896484375,0.9340102672576904,-0.8778576850891113,1.7787609100341797
1702063396409742000,1.9777421875,0.07174944877624512,-0.4552154541015625,1.568800926208496
1702063396426734800,1.99473486328125,-0.8349366188049316,-0.373380184173584,0.9976873397827148
1702063396443725800,2.011725830078125,-0.9994442462921143,-0.6266133785247803,0.7525348663330078
1702063396460721700,2.0287216796875,-0.17924141883850098,-0.8813142776489258,1.2040119171142578
1702063396477714700,2.045714599609375,1.205108642578125,-0.49460482597351074,1.9077701568603516
1702063396494696400,2.062696533203125,1.6518268585205078,0.259462833404541,2.4665613174438477
1702063396511699700,2.07969970703125,1.7646957635879517,0.6874878406524658,2.6959400177001953
1702063396528696000,2.096696044921875,1.7405095100402832,0.7014777660369873,2.637228012084961
1702063396545683500,2.113683349609375,1.5970234870910645,0.5218446254730225,2.349268913269043
1702063396562674200,2.130674072265625,1.7847284078598022,0.27819180488586426,2.355447769165039
1702063396579679200,2.14767919921875,1.8815879821777344,0.22699642181396484,2.3702964782714844
1702063396596670200,2.164670166015625,1.6823004484176636,0.35219359397888184,2.0883798599243164
1702063396613688300,2.181688232421875,1.2576950788497925,0.5083420276641846,1.83685302734375
1702063396630658300,2.198658203125,0.932114839553833,0.6315426826477051,1.8976097106933594
1702063396647649800,2.21564990234375,0.6851668357849121,0.7971818447113037,1.9423580169677734
1702063396664645000,2.23264501953125,0.653106689453125,0.8203215599060059,1.9795284271240234
1702063396681640000,2.249639892578125,0.9536051750183105,0.8623344898223877,1.7796916961669922
1702063396698628400,2.26662841796875,1.26583731174469,0.8595073223114014,1.3988027572631836
1702063396715609600,2.283609619140625,1.3517913818359375,0.6123318672180176,1.1147394180297852
1702063396732616700,2.30061669921875,1.434891700744629,0.10773921012878418,1.1293487548828125
1702063396749611000,2.317611083984375,1.659252405166626,-0.08793330192565918,1.2019100189208984
1702063396766602000,2.33460205078125,1.6500039100646973,-0.1721963882446289,1.243607521057129
1702063396783592200,2.35159228515625,1.3903043270111084,-0.2665059566497803,1.3779211044311523
1702063396800596200,2.36859619140625,1.0639500617980957,-0.27970385551452637,1.0114812850952148
1702063396817586700,2.385586669921875,0.6239533424377441,-0.24515056610107422,0.4095773696899414
1702063396834583300,2.402583251953125,0.0875859260559082,-0.18375802040100098,-0.10346126556396484
1702063396851571500,2.419571533203125,-0.039879560470581055,-0.570598840713501,-0.2604331970214844
1702063396868566300,2.436566162109375,-0.0956258773803711,-1.106857180595398,-0.2740211486816406
1702063396885563100,2.453563232421875,0.17065894603729248,-1.6075360774993896,-0.038707733154296875
1702063396902551000,2.470551025390625,0.3134744167327881,-1.7842919826507568,-0.19672489166259766
1702063396919549000,2.487548828125,0.1740574836730957,-2.0243682861328125,-0.6749038696289062
1702063396936544300,2.504544189453125,0.39147067070007324,-2.2695670127868652,-1.3475656509399414
1702063396953530400,2.5215302734375,0.5378434658050537,-2.8563921451568604,-1.9060425758361816
1702063396970528800,2.53852880859375,0.648935854434967,-3.4136440753936768,-2.3740882873535156
1702063396987523600,2.555523681640625,0.8164702653884888,-3.7749061584472656,-2.64412784576416
1702063397004526000,2.572526123046875,0.9846648573875427,-3.956515312194824,-2.512478828430176
1702063397021507600,2.589507568359375,0.7711719274520874,-4.191164970397949,-2.326951026916504
1702063397038502100,2.606502197265625,0.30661118030548096,-4.781796455383301,-2.2061209678649902
1702063397055498500,2.62349853515625,0.28964948654174805,-5.407773494720459,-2.8512463569641113
1702063397072487200,2.640487060546875,1.0210143327713013,-5.40778923034668,-4.1069183349609375
1702063397089485300,2.6574853515625,1.063406229019165,-5.059258937835693,-4.745326995849609
1702063397106476500,2.6744765625,0.9592227339744568,-5.1885809898376465,-3.4948158264160156
1702063397123469600,2.691469482421875,1.9026808738708496,-5.396402835845947,-1.2616920471191406
1702063397140465000,2.70846484375,1.9972238540649414,-5.632590293884277,0.20721054077148438
1702063397157458400,2.72545849609375,1.0899690389633179,-5.272003650665283,-0.6039266586303711
1702063397174452200,2.7424521484375,0.6327095031738281,-5.300482273101807,-1.8988018035888672
1702063397191441000,2.75944091796875,0.41124284267425537,-5.873557090759277,-2.690866470336914
1702063397208438800,2.776438720703125,-0.31150174140930176,-6.567698955535889,-2.9980077743530273
1702063397225426400,2.793426513671875,-1.0332868099212646,-6.866550445556641,-2.2365493774414062
1702063397242422500,2.810422607421875,-2.6055850982666016,-6.637179851531982,-1.1991024017333984
1702063397259426600,2.827426513671875,-3.123039722442627,-6.268553256988525,-0.33622264862060547
1702063397276407300,2.8444072265625,-2.1027770042419434,-6.205528736114502,0.5106935501098633
1702063397293404700,2.86140478515625,-1.0042858123779297,-6.699140548706055,0.8042144775390625
1702063397310399500,2.8783994140625,0.07625412940979004,-7.2168145179748535,0.21160221099853516
1702063397327401500,2.8954013671875,1.3165268898010254,-7.702790260314941,-0.20856475830078125
1702063397344389000,2.91238916015625,2.204885721206665,-8.056177139282227,0.9649057388305664
1702063397361377500,2.92937744140625,1.7798362970352173,-7.578702926635742,1.9715557098388672
1702063397378374400,2.94637451171875,0.831024169921875,-8.342130661010742,1.9251279830932617
1702063397395369000,2.963368896484375,1.655747413635254,-7.8067545890808105,0.8186502456665039
1702063397412357600,2.980357666015625,2.4293980598449707,-7.2271623611450195,0.7967853546142578
1702063397429357800,2.99735791015625,2.186183452606201,-7.868464469909668,2.3880186080932617
1702063397446349000,3.01434912109375,1.788728952407837,-8.59709644317627,3.5877742767333984
1702063397463340800,3.0313408203125,1.4724085330963135,-8.402446746826172,3.505352020263672
1702063397480335600,3.048335693359375,0.34033751487731934,-7.346031188964844,3.6897354125976562
1702063397497330000,3.065329833984375,-1.690854549407959,-6.984960079193115,3.5955886840820312
1702063397514324000,3.082323974609375,-2.9257397651672363,-7.225104331970215,2.954437255859375
1702063397531314700,3.099314697265625,-3.475527763366699,-7.750382423400879,2.8561363220214844
1702063397548303400,3.116303466796875,-3.309116840362549,-7.94011116027832,2.771439552307129
1702063397565306000,3.13330615234375,-2.5051543712615967,-7.915067195892334,2.618353843688965
1702063397582297300,3.15029736328125,-2.007875680923462,-7.929371356964111,2.7638015747070312
1702063397599292000,3.1672919921875,-2.003174066543579,-8.25039291381836,3.0512828826904297
1702063397616275000,3.18427490234375,-1.6764299869537354,-8.9602689743042,2.440049171447754
1702063397633279700,3.20127978515625,-0.5876414775848389,-9.473943710327148,1.3652524948120117
1702063397650271700,3.218271728515625,0.5256705284118652,-9.682991981506348,0.8763618469238281
1702063397667266600,3.2352666015625,0.4173465967178345,-9.392606735229492,0.9606037139892578
1702063397684251400,3.25225146484375,-0.5542744398117065,-8.588533401489258,0.5983057022094727
1702063397701253400,3.26925341796875,-1.326653003692627,-8.222467422485352,0.12391948699951172
1702063397718248700,3.286248779296875,-1.5340423583984375,-8.376853942871094,-0.2533693313598633
1702063397735241000,3.303240966796875,-0.5893934965133667,-8.61587142944336,-0.7040605545043945
1702063397752233500,3.3202333984375,0.7818506360054016,-8.98814868927002,-1.0138559341430664
1702063397769228300,3.337228271484375,1.183988094329834,-8.63320255279541,-1.5549869537353516
1702063397786220300,3.35422021484375,0.594312310218811,-7.869837760925293,-1.8574886322021484
1702063397803212800,3.371212890625,-0.05582618713378906,-7.2184343338012695,-1.652794361114502
1702063397820217300,3.38821728515625,-0.3335922956466675,-6.524316787719727,-1.2380952835083008
1702063397837202700,3.40520263671875,-0.13145041465759277,-5.838103294372559,-1.2399749755859375
1702063397854193700,3.422193603515625,0.6878466606140137,-5.358698844909668,-1.7680778503417969
1702063397871190500,3.4391904296875,1.4756954908370972,-5.232069969177246,-2.516643524169922
1702063397888187000,3.456186767578125,2.131333827972412,-4.997657775878906,-2.9122986793518066
1702063397905177000,3.473177001953125,2.6496195793151855,-4.5225510597229,-3.0403847694396973
1702063397922168800,3.4901689453125,3.198955535888672,-3.752854108810425,-2.808018684387207
1702063397939164000,3.507163818359375,3.3091235160827637,-2.8743886947631836,-2.1343607902526855
1702063397956156400,3.524156494140625,2.5432820320129395,-2.057269334793091,-2.189047336578369
1702063397973151200,3.541151123046875,1.9525877237319946,-1.5961359739303589,-2.8766703605651855
1702063397990140200,3.55814013671875,1.8235974311828613,-1.6518664360046387,-3.18174409866333
1702063398007141400,3.575141357421875,2.087581157684326,-1.566205382347107,-2.9640612602233887
1702063398024134000,3.5921337890625,1.9522162675857544,-1.1470929384231567,-2.5732545852661133
1702063398041122300,3.609122314453125,1.8268001079559326,-0.46962928771972656,-1.7449278831481934
1702063398058117600,3.62611767578125,1.720867395401001,-0.11760377883911133,-1.0262680053710938
1702063398075112400,3.643112548828125,2.145415782928467,0.0996406078338623,-0.75274658203125
1702063398092105000,3.66010498046875,2.2067956924438477,0.35454559326171875,-0.7882204055786133
1702063398109100000,3.67710009765625,1.84010910987854,0.7782714366912842,-0.9590024948120117
1702063398126092000,3.694092041015625,1.5726697444915771,1.106863021850586,-0.5471906661987305
1702063398143086800,3.7110869140625,1.3253146409988403,1.5247913599014282,0.1250896453857422
1702063398160076800,3.728076904296875,1.1166496276855469,1.898764729499817,0.34549808502197266
1702063398177076500,3.745076416015625,1.1787261962890625,1.9942972660064697,0.0672769546508789
1702063398194066400,3.76206640625,1.3689560890197754,1.8718407154083252,0.038298606872558594
1702063398211061200,3.779061279296875,1.5524080991744995,1.6714634895324707,0.6086645126342773
1702063398228053500,3.796053466796875,2.025909423828125,1.5116536617279053,1.3509674072265625
1702063398245048300,3.81304833984375,2.250366449356079,1.5534546375274658,1.518392562866211
1702063398262040600,3.83004052734375,2.188434600830078,1.5772285461425781,1.272939682006836
1702063398279035600,3.84703564453125,2.144423007965088,1.339963436126709,0.9001646041870117
1702063398296028000,3.86402783203125,1.4701591730117798,0.6643409729003906,0.8552255630493164
1702063398313022700,3.881022705078125,0.14048361778259277,0.4219357967376709,0.48991966247558594
1702063398330014700,3.8980146484375,-1.153116226196289,0.47128772735595703,0.15974140167236328
1702063398347009500,3.915009521484375,-2.1319944858551025,0.18713879585266113,0.6886186599731445
1702063398364002300,3.932002197265625,-2.9502382278442383,0.14978456497192383,1.4876976013183594
1702063398380997000,3.9489970703125,-2.3424465656280518,0.02726125717163086,2.3595352172851562
1702063398397988000,3.965988037109375,-0.9995846748352051,-0.355867862701416,3.001112937927246
1702063398414985200,3.982985107421875,0.15570855140686035,-2.7594447135925293,8.518716812133789
1702063398431976400,3.9999765625,3.9637818336486816,-0.5562562942504883,11.95435905456543
1702063398448975000,4.01697509765625,5.8680195808410645,1.4981820583343506,3.6225318908691406
1702063398465957400,4.033957275390625,3.3600525856018066,-0.19409728050231934,-0.24690723419189453
1702063398482955500,4.05095556640625,0.6887273788452148,-0.03836202621459961,0.11795806884765625
1702063398499953400,4.067953369140625,-1.345658540725708,0.3508481979370117,1.0384140014648438
1702063398516946000,4.08494580078125,-3.631439685821533,0.1192636489868164,0.9276914596557617
1702063398533935400,4.101935302734375,-3.817105770111084,-0.16365480422973633,0.2641592025756836
1702063398550935000,4.11893505859375,-2.6315348148345947,-0.7152543067932129,-0.11921119689941406
1702063398567925200,4.13592529296875,-1.2736871242523193,-0.7878644466400146,-0.23964405059814453
1702063398584920000,4.152920166015625,0.372020959854126,-0.7974357604980469,-0.1190805435180664
1702063398601912000,4.169912109375,1.2375259399414062,-0.6582367420196533,0.6587209701538086
1702063398618907100,4.1869072265625,0.17365264892578125,-0.6014397144317627,2.132205009460449
1702063398635899400,4.2038994140625,-1.0156748294830322,-0.5146698951721191,2.678269386291504
1702063398652894200,4.220894287109375,-0.9098138809204102,0.23279786109924316,2.1072206497192383
1702063398669886500,4.237886474609375,-0.6648797988891602,0.5318424701690674,1.6374902725219727
1702063398686878700,4.254878662109375,-0.5201718807220459,0.6769270896911621,1.4954462051391602
1702063398703876400,4.27187646484375,-0.4721183776855469,0.7525854110717773,1.5397214889526367
1702063398720868600,4.28886865234375,-0.5732941627502441,0.9420332908630371,2.1066389083862305
1702063398737850400,4.305850341796875,-0.7023453712463379,1.1028404235839844,2.452425003051758
1702063398754855400,4.32285546875,-0.20967674255371094,1.153703212738037,2.101734161376953
1702063398771848200,4.33984814453125,0.6537516117095947,1.0222063064575195,1.3949785232543945
1702063398788843000,4.356843017578125,1.3672633171081543,0.7244744300842285,0.7790737152099609
1702063398805835000,4.3738349609375,2.012766122817993,0.5678756237030029,0.40501880645751953
1702063398822829800,4.390829833984375,2.458775281906128,0.4078216552734375,0.6744222640991211
1702063398839812400,4.407812255859375,2.5322163105010986,0.35840344429016113,1.0655317306518555
1702063398856817400,4.4248173828125,2.3442656993865967,0.14193153381347656,0.8489599227905273
1702063398873809400,4.441809326171875,2.254599094390869,-0.042938947677612305,0.16993331909179688
1702063398890804200,4.45880419921875,2.0327703952789307,-0.26592135429382324,-0.3817634582519531
1702063398907790800,4.475790771484375,2.0183351039886475,-0.40581393241882324,-0.5359601974487305
1702063398924791800,4.492791748046875,1.7786844968795776,-0.5494117736816406,-0.48166465759277344
1702063398941783600,4.509783447265625,1.6217541694641113,-0.799607515335083,-0.4453468322753906
1702063398958778600,4.526778564453125,1.8066463470458984,-1.1289691925048828,-0.49809837341308594
1702063398975771100,4.543771240234375,1.9094123840332031,-1.1394094228744507,-1.0350160598754883
1702063398992766000,4.560765869140625,1.4794237613677979,-1.076499581336975,-1.5284461975097656
1702063399009758000,4.577758056640625,0.8531277775764465,-1.1974842548370361,-1.7230439186096191
1702063399026752800,4.594752685546875,0.17988955974578857,-1.4021462202072144,-1.8490562438964844
1702063399043745300,4.611745361328125,0.06489062309265137,-1.6585125923156738,-2.0280656814575195
1702063399060737500,4.628737548828125,0.47628796100616455,-2.1572623252868652,-2.1535167694091797
1702063399077735000,4.64573486328125,1.1829537153244019,-2.8125877380371094,-2.1847734451293945
1702063399094727000,4.662726806640625,1.4231690168380737,-3.1772449016571045,-2.191103458404541
1702063399111717000,4.679717041015625,1.0308367013931274,-3.237494707107544,-2.3945236206054688
1702063399128717000,4.696717041015625,0.6208276152610779,-3.139472007751465,-2.6238555908203125
1702063399145707000,4.71370703125,0.44836217164993286,-3.180584669113159,-2.600001335144043
1702063399162701300,4.730701416015625,0.37643110752105713,-3.47074294090271,-2.105910301208496
1702063399179694000,4.747694091796875,0.07371252775192261,-3.6883416175842285,-1.5333490371704102
1702063399196689000,4.76468896484375,-0.1162981390953064,-3.6502623558044434,-1.0667638778686523
1702063399213681200,4.78168115234375,-0.3638313412666321,-3.7407100200653076,-1.0502939224243164
1702063399230665200,4.798665283203125,-0.19088906049728394,-4.1691789627075195,-1.383890151977539
1702063399247668200,4.815668212890625,0.6519117951393127,-4.579550266265869,-1.2820167541503906
1702063399264663300,4.832663330078125,1.2453020811080933,-4.792598724365234,-0.7441930770874023
1702063399281655300,4.8496552734375,0.426071435213089,-4.922657012939453,0.12252616882324219
1702063399298650000,4.866650146484375,-1.3355913162231445,-5.565065383911133,0.5962820053100586
1702063399315642600,4.883642578125,-2.579361915588379,-6.126544952392578,0.19979286193847656
1702063399332637400,4.900637451171875,-2.107774257659912,-6.548574447631836,0.22566604614257812
1702063399349629400,4.91762939453125,-0.844551146030426,-6.753506660461426,0.7198295593261719
1702063399366624300,4.934624267578125,-0.6399202346801758,-6.741161823272705,1.0373868942260742
1702063399383617000,4.951616943359375,-0.8196780681610107,-6.7349443435668945,1.3041229248046875
1702063399400611800,4.96861181640625,-0.9597382545471191,-6.633944511413574,1.0615577697753906
1702063399417603800,4.985603759765625,-1.3249742984771729,-6.751347064971924,0.5293607711791992
1702063399434598700,5.0025986328125,-1.5343409776687622,-7.009084701538086,-0.1727313995361328
1702063399451591200,5.019591064453125,-0.9956121444702148,-7.680952548980713,-0.5547075271606445
1702063399468586000,5.0365859375,0.6558315753936768,-8.351167678833008,-0.36940479278564453
1702063399485578200,5.053578125,1.7281494140625,-8.458513259887695,0.6643123626708984
1702063399502573000,5.070572998046875,1.3856768608093262,-8.39237117767334,1.5447978973388672
1702063399519565600,5.087565673828125,-0.2992877960205078,-8.30090618133545,1.8931732177734375
1702063399536560400,5.104560302734375,-1.2769145965576172,-8.092778205871582,2.1624011993408203
1702063399553552400,5.121552490234375,-0.9946222305297852,-7.883847713470459,3.490939140319824
1702063399570547200,5.138547119140625,-1.050343632698059,-8.208818435668945,5.647266387939453
1702063399587539000,5.1555390625,-2.8308045864105225,-7.856285095214844,6.1416120529174805
1702063399604535600,5.17253564453125,-4.387482643127441,-7.168920993804932,5.3039093017578125
1702063399621520000,5.189519775390625,-3.8669838905334473,-7.345953941345215,4.676727294921875
1702063399638521600,5.206521484375,-3.218860626220703,-7.917569637298584,2.9583330154418945
1702063399655514000,5.22351416015625,-2.8003172874450684,-8.106513977050781,2.1534996032714844
1702063399672509000,5.240509033203125,-2.069833517074585,-8.443676948547363,2.641169548034668
1702063399689501200,5.257501220703125,-1.731674313545227,-8.437015533447266,3.3582324981689453
1702063399706496000,5.27449609375,-1.1286938190460205,-8.128707885742188,3.136996269226074
1702063399723478000,5.29147802734375,-0.7762701511383057,-8.179981231689453,2.5386056900024414
1702063399740483600,5.308483642578125,-0.7764072418212891,-8.256258964538574,1.6906166076660156
1702063399757475300,5.325475341796875,-0.8633954524993896,-8.375226974487305,1.2398605346679688
1702063399774470100,5.34247021484375,-0.6308115124702454,-8.513544082641602,1.1323137283325195
1702063399791463000,5.359462890625,-0.3328353762626648,-8.376296997070312,1.0216541290283203
1702063399808455000,5.376454833984375,-0.10666865110397339,-7.868528366088867,0.5982818603515625
1702063399825452300,5.393452392578125,-0.25215059518814087,-7.399022102355957,-0.2017230987548828
1702063399842444500,5.410444580078125,-0.6744000911712646,-6.933701992034912,-0.8098831176757812
1702063399859437000,5.42743701171875,-1.0294699668884277,-6.526635646820068,-0.8975763320922852
1702063399876432000,5.444431884765625,-0.6301713585853577,-6.3490190505981445,-0.6518373489379883
1702063399893424000,5.461424072265625,0.9948512315750122,-6.078765392303467,-0.17451858520507812
1702063399910418700,5.478418701171875,2.260100841522217,-4.932799339294434,-0.27808570861816406
1702063399927411500,5.495411376953125,2.030806064605713,-3.7901039123535156,-1.2321653366088867
1702063399944406500,5.512406494140625,1.1313694715499878,-3.136518716812134,-1.8542795181274414
1702063399961398500,5.5293984375,-0.03045523166656494,-3.1490650177001953,-2.2068634033203125
1702063399978393300,5.546393310546875,-0.44631218910217285,-3.1371748447418213,-3.324522018432617
1702063399995385600,5.563385498046875,0.08202362060546875,-2.836334228515625,-4.3840837478637695
1702063400012362000,5.580362060546875,0.8896403312683105,-2.441863536834717,-4.465250015258789
1702063400029372700,5.59737255859375,1.5557529926300049,-2.143094778060913,-3.6201086044311523
1702063400046367500,5.614367431640625,1.9317702054977417,-1.895803451538086,-2.388723373413086
1702063400063360000,5.631360107421875,1.7008081674575806,-1.6651378870010376,-1.6520280838012695
1702063400080354800,5.648354736328125,1.1571667194366455,-1.3743133544921875,-1.7149791717529297
1702063400097347000,5.66534716796875,0.9788841009140015,-1.1783952713012695,-2.3343067169189453
1702063400114341600,5.682341552734375,1.069671630859375,-1.1494405269622803,-2.7841925621032715
1702063400131334100,5.699334228515625,1.4198943376541138,-1.126960277557373,-2.5590991973876953
1702063400148329200,5.7163291015625,1.4959810972213745,-1.174914836883545,-1.6358022689819336
1702063400165320400,5.733320556640625,0.9646897315979004,-0.8644343614578247,-0.705256462097168
1702063400182310700,5.750310546875,0.7800300121307373,-0.8056190013885498,-0.15755176544189453
1702063400199308500,5.76730859375,1.0336878299713135,-0.7826495170593262,-0.22175979614257812
1702063400216303600,5.7843037109375,1.547663927078247,-0.3634457588195801,-0.3345632553100586
1702063400233295600,5.801295654296875,1.7714340686798096,0.07586073875427246,-0.4740123748779297
1702063400250290400,5.81829052734375,2.263972282409668,0.46947693824768066,-0.31804370880126953
1702063400267283000,5.835282958984375,2.5446977615356445,0.5484673976898193,0.6732931137084961
1702063400284277800,5.85227783203125,2.7159228324890137,0.5013208389282227,2.030858039855957
1702063400301267500,5.869267333984375,2.592313528060913,0.6645779609680176,2.6480493545532227
1702063400318267100,5.88626708984375,2.2484354972839355,0.652165412902832,2.1471920013427734
1702063400335257000,5.903257080078125,2.2089521884918213,0.6825203895568848,1.5677719116210938
1702063400352252400,5.92025244140625,2.3951191902160645,0.751943826675415,2.083505153656006
1702063400369233400,5.9372333984375,2.1955771446228027,0.7712304592132568,3.377159595489502
1702063400386239000,5.954239013671875,1.6520910263061523,0.8597495555877686,4.336637020111084
1702063400403231700,5.971231689453125,1.0997953414916992,0.6472783088684082,4.546316623687744
1702063400420223700,5.9882236328125,0.6451811790466309,0.41701388359069824,4.024980545043945
1702063400437220900,6.005220947265625,1.196162223815918,0.2644360065460205,4.208926677703857
1702063400454199000,6.022198974609375,2.1460394859313965,0.7422196865081787,6.78047513961792
1702063400471206000,6.039205810546875,1.403780460357666,0.5583539009094238,8.138299942016602
1702063400488200700,6.05620068359375,0.04402637481689453,1.3752655982971191,7.930157661437988
1702063400505190100,6.073190185546875,-1.2120780944824219,1.3445347547531128,5.249203681945801
1702063400522190000,6.090190185546875,-1.9575481414794922,0.7202610969543457,1.4492931365966797
1702063400539180000,6.107179931640625,-1.8316454887390137,0.11967611312866211,-0.6302661895751953
1702063400556165600,6.12416552734375,-1.1364107131958008,-0.49103832244873047,-1.5138230323791504
1702063400573164500,6.14116455078125,0.2572779655456543,-0.8356866836547852,-2.0673842430114746
1702063400590164500,6.15816455078125,1.492739200592041,-0.6987190246582031,-1.9567251205444336
1702063400607154700,6.17515478515625,1.6287126541137695,-0.5073816776275635,-0.7361373901367188
1702063400624149200,6.192149169921875,0.9955739974975586,-0.5500044822692871,0.45642852783203125
1702063400641141500,6.2091416015625,0.29476451873779297,-0.41408371925354004,0.8160333633422852
1702063400658133800,6.2261337890625,-0.3076362609863281,0.061234474182128906,0.622868537902832
1702063400675128600,6.243128662109375,-1.0496182441711426,0.483264684677124,0.30225276947021484
1702063400692126200,6.260126220703125,-1.27374267578125,0.6794536113739014,0.6028337478637695
1702063400709116000,6.277115966796875,-1.2504730224609375,0.7077035903930664,1.6352739334106445
1702063400726110500,6.2941103515625,-1.258636474609375,0.8171637058258057,2.825326919555664
1702063400743103200,6.311103271484375,-1.2510170936584473,0.9488112926483154,3.462460517883301
1702063400760097800,6.328097900390625,-0.8837776184082031,1.0935313701629639,3.20729923248291
1702063400777089800,6.34508984375,-0.1431903839111328,1.1812903881072998,2.62357234954834
1702063400794080000,6.362080078125,0.4512495994567871,1.0618925094604492,2.2360687255859375
1702063400811077400,6.379077392578125,1.2147626876831055,0.8530399799346924,2.2082834243774414
1702063400828083000,6.3960830078125,1.8214936256408691,0.628692626953125,2.5799083709716797
1702063400845064400,6.413064453125,1.7264869213104248,0.46993374824523926,3.1793031692504883
1702063400862046500,6.43004638671875,1.503464698791504,0.479339599609375,2.8914995193481445
1702063400879044000,6.447044189453125,1.4115774631500244,0.6119899749755859,1.939682960510254
1702063400896046300,6.46404638671875,1.2810547351837158,0.5082740783691406,1.0058183670043945
1702063400913028600,6.481028564453125,1.3466796875,0.2606329917907715,0.3413543701171875
1702063400930023000,6.49802294921875,1.7244267463684082,0.15561914443969727,0.04216957092285156
1702063400947026000,6.51502587890625,2.0685060024261475,0.05401110649108887,0.1590709686279297
1702063400964021000,6.53202099609375,2.2219977378845215,-0.17345976829528809,0.34607982635498047
1702063400981013000,6.549012939453125,2.4366226196289062,-0.4893622398376465,0.06250572204589844
1702063400998007800,6.5660078125,2.5557861328125,-0.7644832134246826,-0.6297149658203125
1702063401015000300,6.583000244140625,2.536534309387207,-0.8445777893066406,-1.2651386260986328
1702063401031995400,6.599995361328125,2.260610580444336,-0.8798937797546387,-1.387598991394043
1702063401048984000,6.616984130859375,1.6898428201675415,-1.0223181247711182,-1.1374521255493164
1702063401065985000,6.633985107421875,1.3465855121612549,-1.1636537313461304,-0.706486701965332
1702063401082974500,6.650974365234375,1.1007074117660522,-1.491051435470581,-0.6813716888427734
1702063401099969500,6.667969482421875,1.0740772485733032,-1.6991456747055054,-1.3204593658447266
1702063401116961500,6.68496142578125,1.053213357925415,-1.8721023797988892,-2.026388168334961
1702063401133956600,6.70195654296875,1.1611334085464478,-2.0470190048217773,-2.3662476539611816
1702063401150948900,6.718948974609375,1.0527410507202148,-2.363173246383667,-2.4686131477355957
1702063401167943700,6.735943603515625,0.9480506777763367,-2.613307476043701,-2.2166829109191895
1702063401184936200,6.752936279296875,0.4570540189743042,-2.85447096824646,-1.624344825744629
1702063401201930500,6.769930419921875,0.02552032470703125,-2.866617441177368,-1.2941694259643555
1702063401218923300,6.78692333984375,-0.06579327583312988,-2.8989129066467285,-1.3454418182373047
1702063401235918000,6.80391796875,0.09542238712310791,-2.9710209369659424,-1.531275749206543
1702063401252910000,6.82091015625,-0.09831047058105469,-3.3288209438323975,-1.7205748558044434
1702063401269905200,6.8379052734375,0.02605462074279785,-3.684710741043091,-1.9349851608276367
1702063401286897400,6.8548974609375,-0.14571094512939453,-3.8232157230377197,-2.3301687240600586
1702063401303884800,6.871884765625,-0.47364115715026855,-4.015666484832764,-2.3589115142822266
1702063401320884500,6.888884521484375,-0.37586474418640137,-3.938457489013672,-2.1158523559570312
1702063401337879000,6.905879150390625,-0.3230407238006592,-3.9701013565063477,-1.917088508605957
1702063401354871800,6.922871826171875,-0.1926363706588745,-4.476303577423096,-1.858515739440918
1702063401371867000,6.939866943359375,0.19402623176574707,-5.056318759918213,-1.7628536224365234
1702063401388855600,6.95685546875,0.5906562805175781,-5.420415878295898,-1.7443618774414062
1702063401405856800,6.973856689453125,0.5783976912498474,-5.581469535827637,-1.465930461883545
1702063401422848000,6.990847900390625,0.34061145782470703,-5.92966365814209,-0.8991012573242188
1702063401439838200,7.007838134765625,0.23205113410949707,-6.220351219177246,-0.08536911010742188
1702063401456830500,7.02483056640625,0.23319625854492188,-6.283519744873047,1.4317140579223633
1702063401473830700,7.04183056640625,-0.373077392578125,-6.2375898361206055,2.832183837890625
1702063401490820400,7.0588203125,-0.6205310821533203,-6.174180030822754,3.1853647232055664
1702063401507815200,7.075815185546875,0.0721445083618164,-6.286670684814453,2.3716516494750977
1702063401524799200,7.09279931640625,-0.011365652084350586,-6.778012275695801,1.5636005401611328
1702063401541802200,7.10980224609375,-0.5459704399108887,-6.6937761306762695,0.1896963119506836
1702063401558794800,7.126794677734375,-0.18104791641235352,-6.62123966217041,-0.4529886245727539
1702063401575789600,7.14378955078125,0.41692352294921875,-6.707407474517822,0.5581283569335938
1702063401592781600,7.160781494140625,0.5915820598602295,-6.953935623168945,2.557591438293457
1702063401609776400,7.1777763671875,0.7326385974884033,-7.7875165939331055,4.128203392028809
1702063401626769000,7.194768798828125,1.6245933771133423,-7.885175704956055,4.211247444152832
1702063401643764000,7.211763916015625,2.5068817138671875,-7.707408905029297,3.7814016342163086
1702063401660752600,7.228752685546875,1.7485907077789307,-7.164611339569092,4.307433128356934
1702063401677743600,7.24574365234375,-0.4861021041870117,-6.719512939453125,6.070268630981445
1702063401694728400,7.262728515625,-2.4571008682250977,-6.476358413696289,7.34075927734375
1702063401711738000,7.279738037109375,-3.625523805618286,-6.562361717224121,7.134156227111816
1702063401728730000,7.296730224609375,-3.8553884029388428,-6.632701873779297,6.431456565856934
1702063401745725000,7.313724853515625,-3.8781397342681885,-6.6865363121032715,4.8187971115112305
1702063401762720500,7.330720458984375,-3.576035976409912,-7.254307746887207,2.908841133117676
1702063401779709400,7.34770947265625,-2.490159034729004,-7.867725372314453,1.683354377746582
1702063401796701700,7.36470166015625,-1.311239242553711,-8.285320281982422,1.3874540328979492
1702063401813702000,7.381701904296875,-0.323386549949646,-8.521989822387695,1.8320417404174805
1702063401830691800,7.39869189453125,0.21982026100158691,-8.367118835449219,2.185368537902832
1702063401847686700,7.415686767578125,0.3335099220275879,-7.944921493530273,1.955796241760254
1702063401864676000,7.432676025390625,0.3601565361022949,-7.5647478103637695,1.1984901428222656
1702063401881676500,7.449676513671875,0.43194425106048584,-7.166484355926514,0.4027519226074219
1702063401898666000,7.466666015625,0.41749107837677,-6.774237632751465,-0.2632627487182617
1702063401915661000,7.4836611328125,0.12795114517211914,-6.436331748962402,-0.6093587875366211
1702063401932650800,7.500650634765625,-0.2136085033416748,-6.037538528442383,-0.35838794708251953
1702063401949650400,7.517650390625,-0.4801466464996338,-5.579171180725098,-0.36908531188964844
1702063401966640400,7.534640380859375,-0.15688633918762207,-5.2164459228515625,-0.7223186492919922
1702063401983635500,7.551635498046875,0.2025744915008545,-4.76032018661499,-1.2511968612670898
1702063402000627500,7.56862744140625,0.3650468587875366,-4.339278221130371,-1.9204840660095215
1702063402017622300,7.585622314453125,0.7230170965194702,-3.884951114654541,-2.4882922172546387
1702063402034614800,7.60261474609375,1.0433857440948486,-3.550126075744629,-2.572542667388916
1702063402051609600,7.619609619140625,1.3781428337097168,-3.1611392498016357,-1.945608139038086
1702063402068601600,7.6366015625,1.218644142150879,-2.714017868041992,-1.0844049453735352
1702063402085596700,7.6535966796875,1.0329958200454712,-2.4166207313537598,-0.7433376312255859
1702063402102589000,7.6705888671875,1.1080316305160522,-1.9994394779205322,-1.23663330078125
1702063402119583700,7.687583740234375,1.3759268522262573,-1.6318210363388062,-1.9806337356567383
1702063402136576000,7.704575927734375,1.504254698753357,-1.2933357954025269,-2.529928207397461
1702063402153568300,7.721568359375,1.9278712272644043,-1.030918002128601,-2.1745033264160156
1702063402170564900,7.73856494140625,2.035081386566162,-0.7364529371261597,-0.9771137237548828
1702063402187559200,7.75555908203125,1.2336665391921997,-0.3783290386199951,-0.29083251953125
1702063402204550400,7.77255029296875,0.2032606601715088,-0.12431633472442627,-0.7402181625366211
1702063402221545000,7.789544921875,-0.2133629322052002,0.1735081672668457,-1.9460835456848145
1702063402238538000,7.8065380859375,-0.2640392780303955,0.05447983741760254,-2.556324005126953
1702063402255515400,7.823515380859375,-0.17304730415344238,-0.26540303230285645,-2.1054420471191406
1702063402272524500,7.840524658203125,0.30399036407470703,-0.35906505584716797,-0.977208137512207
1702063402289519600,7.85751953125,0.8507120609283447,-0.3276193141937256,0.1718006134033203
1702063402306512000,7.874511962890625,1.4269027709960938,-0.14348292350769043,0.5199718475341797
1702063402323506700,7.891506591796875,2.4078481197357178,-0.23737621307373047,0.43948936462402344
1702063402340498700,7.908498779296875,3.604081153869629,-0.46360278129577637,0.4041557312011719
1702063402357493500,7.925493408203125,4.422243595123291,-0.17586755752563477,0.7419261932373047
1702063402374475800,7.942475830078125,4.334259510040283,0.27413034439086914,1.7641639709472656
1702063402391478500,7.959478515625,3.693434238433838,0.6809406280517578,2.6124305725097656
1702063402408476000,7.976475830078125,3.075944423675537,0.9908828735351562,2.513552665710449
1702063402425468000,7.993468017578125,2.866513252258301,1.138639211654663,1.9538908004760742
1702063402442464800,8.01046484375,2.607106924057007,1.1432316303253174,1.661271095275879
1702063402459455200,8.027455322265626,2.1994597911834717,1.1206225156784058,1.7454586029052734
1702063402476447700,8.04444775390625,2.442784070968628,1.002036213874817,1.629664421081543
1702063402493442300,8.0614423828125,3.0617008209228516,0.7299606800079346,1.5723876953125
1702063402510434800,8.078434814453125,3.7604384422302246,0.4220092296600342,2.250321388244629
1702063402527429400,8.095429443359375,4.135116100311279,0.1571202278137207,3.2320661544799805
1702063402544422000,8.112421875,3.301645278930664,0.45478320121765137,3.569748878479004
1702063402561416400,8.12941650390625,1.9469332695007324,1.1959559917449951,3.179777145385742
1702063402578409000,8.146408935546875,0.22767019271850586,1.7577452659606934,2.6344852447509766
1702063402595404300,8.163404296875,-1.0866813659667969,1.8652637004852295,2.2838449478149414
1702063402612395800,8.180395751953125,-1.0294756889343262,1.4599297046661377,2.1219749450683594
1702063402629390800,8.197390869140625,0.1221616268157959,1.3173267841339111,1.8517074584960938
1702063402646383600,8.214383544921875,0.9963512420654297,1.2167751789093018,1.4472265243530273
1702063402663367700,8.23136767578125,1.248443841934204,0.8721268177032471,1.6126441955566406
1702063402680370200,8.2483701171875,1.0201539993286133,0.7169842720031738,2.036205291748047
1702063402697365200,8.265365234375,0.19995570182800293,0.7786533832550049,2.582137107849121
1702063402714357500,8.282357421875,-0.8985557556152344,0.9877064228057861,2.7423715591430664
1702063402731352600,8.2993525390625,-0.8387925624847412,1.3428244590759277,2.1070079803466797
1702063402748344800,8.3163447265625,-0.27449870109558105,1.664198398590088,1.6923980712890625
1702063402765339400,8.33333935546875,0.6506755352020264,1.5072689056396484,1.9657354354858398
1702063402782332000,8.350331787109376,1.8597710132598877,1.3660132884979248,2.217527389526367
1702063402799324700,8.36732470703125,2.563607931137085,1.1919324398040771,2.3879222869873047
1702063402816321300,8.3843212890625,2.1144180297851562,1.0853197574615479,2.653090476989746
1702063402833313800,8.401313720703126,1.2672958374023438,1.0677292346954346,2.577996253967285
1702063402850306300,8.418306396484375,0.782456636428833,1.296539545059204,2.3086929321289062
1702063402867301000,8.435301025390626,0.6177847385406494,1.4838645458221436,2.099721908569336
1702063402884293000,8.452293212890625,0.9979290962219238,1.469451665878296,2.095841407775879
1702063402901285600,8.46928564453125,1.5093574523925781,1.3193633556365967,2.0951194763183594
1702063402918280400,8.486280517578125,1.9033385515213013,1.3135478496551514,1.8887128829956055
1702063402935275300,8.503275146484375,1.8863246440887451,1.2863682508468628,1.4657220840454102
1702063402952270000,8.52027001953125,1.755275011062622,1.3914172649383545,1.0622177124023438
1702063402969262300,8.537262451171875,1.598024845123291,1.3641672134399414,0.8383569717407227
1702063402986254800,8.5542548828125,1.4471077919006348,1.2687968015670776,0.791590690612793
1702063403003252700,8.571252685546876,1.657799243927002,1.0610716342926025,0.41129302978515625
1702063403020238600,8.588238525390626,1.676938772201538,0.799738883972168,0.5128383636474609
1702063403037232400,8.605232421875,1.5447369813919067,0.44423770904541016,0.41654014587402344
1702063403054229200,8.622229248046875,1.7278687953948975,0.14357781410217285,0.25382232666015625
1702063403071223800,8.639223876953125,1.8179106712341309,0.08808350563049316,-0.047214508056640625
1702063403088216000,8.656216064453124,1.0448873043060303,-0.023813843727111816,-0.5566110610961914
1702063403105211000,8.6732109375,0.39472341537475586,-0.07615625858306885,-0.8057117462158203
1702063403122203400,8.690203369140624,0.09606480598449707,-0.3096531629562378,-0.44663143157958984
1702063403139198200,8.7071982421875,0.3766770362854004,-0.5609865188598633,0.020109176635742188
1702063403156190200,8.724190185546876,0.8908425569534302,-0.8450692892074585,0.10015583038330078
1702063403173185000,8.74118505859375,1.0958843231201172,-1.1140146255493164,-0.07098102569580078
1702063403190172200,8.758172119140625,0.6953651905059814,-1.3174569606781006,-0.5174016952514648
1702063403207175400,8.775175537109375,0.24619770050048828,-1.609229326248169,-0.5839271545410156
1702063403224164600,8.79216455078125,0.39477407932281494,-1.9379534721374512,-0.08572864532470703
1702063403241159400,8.809159423828126,1.0056195259094238,-2.414519786834717,0.2485980987548828
1702063403258152000,8.82615185546875,1.3616328239440918,-2.606020212173462,-0.08402538299560547
1702063403275146800,8.843146728515626,1.1759684085845947,-2.751443862915039,-0.7764682769775391
1702063403292139000,8.860138916015625,1.0789201259613037,-3.0164732933044434,-1.3840789794921875
1702063403309133800,8.8771337890625,1.3529624938964844,-3.493894338607788,-1.6320209503173828
1702063403326126000,8.8941259765625,1.625736117362976,-3.8441107273101807,-1.5986919403076172
1702063403343121200,8.91112109375,1.7948884963989258,-4.113607406616211,-1.2717609405517578
1702063403360113200,8.928113037109375,2.0161850452423096,-4.4174957275390625,-1.134592056274414
1702063403377108000,8.94510791015625,1.8723632097244263,-4.740030765533447,-0.9439611434936523
1702063403394100500,8.9621005859375,1.0001403093338013,-4.9270920753479,-0.6657390594482422
1702063403411093200,8.97909326171875,0.10630446672439575,-5.2307844161987305,-0.623443603515625
1702063403428079000,8.9960791015625,-0.06301259994506836,-5.814619064331055,-0.5172147750854492
1702063403445082000,9.01308203125,-0.13081157207489014,-6.100275993347168,-0.5737829208374023
1702063403462075000,9.030074951171875,-0.7500542402267456,-6.327831268310547,-0.533238410949707
1702063403479069700,9.047069580078125,-1.0710208415985107,-6.572120189666748,-0.42347145080566406
1702063403496061700,9.064061767578124,-0.22096943855285645,-6.752110481262207,-0.3060159683227539
1702063403513056500,9.081056396484374,0.7310612201690674,-7.158459186553955,0.2824821472167969
1702063403530049000,9.098049072265624,0.9385346174240112,-7.400763511657715,0.3666191101074219
1702063403547044000,9.115044189453124,0.6699198484420776,-7.892120838165283,-0.4629545211791992
1702063403564036000,9.1320361328125,0.6953988671302795,-8.66931438446045,-0.8355236053466797
1702063403581030700,9.14903076171875,0.373268723487854,-8.480100631713867,-0.36116886138916016
1702063403598023400,9.1660234375,-0.4469771385192871,-8.004411697387695,0.835719108581543
1702063403615018200,9.183018310546874,-0.6417503356933594,-7.470892906188965,1.7737836837768555
1702063403632010200,9.20001025390625,-0.1417529582977295,-7.211626052856445,2.179215431213379
1702063403648997000,9.2169970703125,0.5446866750717163,-7.298978805541992,2.2954330444335938
1702063403665997600,9.23399755859375,0.2809562683105469,-7.22515344619751,2.5169076919555664
1702063403682992400,9.250992431640626,0.3922922611236572,-6.8144073486328125,4.6964569091796875
1702063403699984600,9.267984619140625,-2.7452447414398193,-6.0326409339904785,6.355452537536621
1702063403716979500,9.2849794921875,-6.619851112365723,-4.277261734008789,5.888496398925781
1702063403733972000,9.301971923828125,-7.389279842376709,-3.8656067848205566,5.218019485473633
1702063403750966800,9.318966796875,-5.527788162231445,-4.926748275756836,2.2030487060546875
1702063403767958800,9.335958740234375,-3.9647719860076904,-6.007873058319092,0.72723388671875
1702063403784960000,9.3529599609375,-2.4021413326263428,-6.564093589782715,0.9452495574951172
1702063403801947100,9.369947021484375,-1.5421085357666016,-6.517582416534424,1.5827360153198242
1702063403818941000,9.38694091796875,-1.347656011581421,-6.495276927947998,2.090691566467285
1702063403835929300,9.403929443359376,-0.9736084938049316,-6.844396591186523,2.248843193054199
1702063403852931800,9.420931884765626,-0.6238658428192139,-7.267544269561768,1.958043098449707
1702063403869915400,9.437915283203125,-0.4926166534423828,-7.46114444732666,1.5463037490844727
1702063403886915300,9.454915283203125,-0.27841734886169434,-7.353551387786865,1.3042583465576172
1702063403903907300,9.4719072265625,-0.03426098823547363,-7.090007305145264,0.9722080230712891
1702063403920902100,9.488902099609374,0.5816761255264282,-6.991758346557617,0.5379962921142578
1702063403937894700,9.505894775390624,0.7468012571334839,-7.035282135009766,-0.15781879425048828
1702063403954889500,9.522889404296874,1.1339402198791504,-6.917959690093994,-0.8241806030273438
1702063403971881700,9.5398818359375,1.3118834495544434,-6.974501132965088,-0.762049674987793
1702063403988876500,9.55687646484375,1.2844473123550415,-6.838780879974365,-0.14184951782226562
1702063404005869000,9.573869140625,1.0851879119873047,-6.070361137390137,0.05714702606201172
1702063404022864000,9.59086376953125,0.5053125619888306,-5.362616539001465,0.012082099914550781
1702063404039855900,9.60785595703125,0.1081916093826294,-4.869067192077637,-0.20028209686279297
1702063404056852000,9.62485205078125,0.4674546718597412,-4.569145202636719,-0.7598094940185547
1702063404073845200,9.64184521484375,0.9866267442703247,-4.318692207336426,-1.579543113708496
1702063404090838300,9.65883837890625,1.1926867961883545,-4.030929088592529,-2.1588172912597656
1702063404107830300,9.675830322265625,1.4241352081298828,-3.630603313446045,-2.282621383666992
1702063404124825000,9.6928251953125,1.5314879417419434,-3.1638355255126953,-1.7578601837158203
1702063404141817300,9.7098173828125,1.400094985961914,-2.6296849250793457,-1.1409368515014648
1702063404158812400,9.7268125,1.3883484601974487,-2.1310677528381348,-1.2407817840576172
1702063404175794000,9.7437939453125,1.693787693977356,-1.7797658443450928,-1.7502880096435547
1702063404192799200,9.76079931640625,2.0531082153320312,-1.4840991497039795,-2.287583351135254
1702063404209791700,9.777791748046875,2.174520969390869,-1.1468009948730469,-2.499875068664551
1702063404226786800,9.794786865234375,1.9569449424743652,-0.5621991157531738,-2.402430534362793
1702063404243778800,9.81177880859375,1.4430946111679077,-0.14673876762390137,-2.0609564781188965
1702063404260773400,9.8287734375,1.1898882389068604,0.23504996299743652,-1.3994436264038086
1702063404277763000,9.84576318359375,1.478179931640625,0.5363907814025879,-0.5402841567993164
1702063404294761000,9.862760986328125,1.6912397146224976,0.525097131729126,0.601353645324707
1702063404311753000,9.8797529296875,2.0398342609405518,0.4178030490875244,1.0569067001342773
1702063404328747800,9.896747802734374,2.5114011764526367,0.6281399726867676,0.38465404510498047
1702063404345740500,9.913740478515624,2.7959494590759277,1.1426775455474854,-0.7556881904602051
1702063404362735000,9.930735107421874,2.9960927963256836,1.234769582748413,-1.2637395858764648
1702063404379724800,9.947724853515625,3.2433371543884277,1.2615275382995605,-0.6383075714111328
1702063404396724700,9.964724853515625,3.0240907669067383,1.3393633365631104,0.6748027801513672
1702063404413714400,9.98171435546875,2.473093032836914,1.4337644577026367,1.3355817794799805
1702063404430709500,9.99870947265625,1.9869136810302734,1.8347282409667969,1.065110683441162
1702063404447701500,10.015701416015625,1.69624662399292,2.075827121734619,0.7337193489074707
1702063404464696300,10.0326962890625,2.1817119121551514,1.8512918949127197,1.1070270538330078
1702063404481689000,10.049689208984375,2.97177791595459,1.6398842334747314,2.11960506439209
1702063404498683600,10.06668359375,3.3991832733154297,1.1172072887420654,3.2592415809631348
1702063404515676000,10.083676025390625,3.6394505500793457,0.8157830238342285,3.4286179542541504
1702063404532670700,10.100670654296875,3.3171403408050537,1.012544870376587,3.007162094116211
1702063404549663200,10.117663330078125,2.6156840324401855,1.116530418395996,2.810166835784912
1702063404566647600,10.1346474609375,2.1707849502563477,0.8597407341003418,3.1735501289367676
1702063404583650000,10.151650146484375,1.9178452491760254,0.9957695007324219,3.732050895690918
1702063404600644900,10.168644775390625,1.685945987701416,1.112715482711792,4.437438488006592
1702063404617637400,10.185637451171875,0.9629096984863281,0.8567333221435547,4.772369861602783
1702063404634632400,10.202632568359375,-0.01689434051513672,1.2931723594665527,5.012667655944824
1702063404651624400,10.21962451171875,-0.7824339866638184,1.915539264678955,5.104372501373291
1702063404668619300,10.236619384765625,-1.3863987922668457,2.3585524559020996,4.230421543121338
1702063404685611800,10.25361181640625,-1.1660943031311035,2.603841781616211,3.4454946517944336
1702063404702606600,10.270606689453125,-1.0844340324401855,2.0933876037597656,2.1052751541137695
1702063404719598800,10.287598876953124,-0.9976134300231934,1.3736293315887451,0.8165607452392578
1702063404736593400,10.304593505859375,-0.9803900718688965,0.7671751976013184,0.017633914947509766
1702063404753586000,10.3215859375,-0.9355330467224121,0.0858151912689209,-0.13304758071899414
1702063404770580700,10.338580810546874,-0.0962834358215332,-0.39084744453430176,-0.1277904510498047
1702063404787573000,10.355572998046876,0.9383721351623535,-0.196852445602417,0.5282559394836426
1702063404804567800,10.37256787109375,1.1467571258544922,0.381319522857666,1.5517239570617676
1702063404821560000,10.38956005859375,0.960139274597168,0.807607889175415,2.1352734565734863
1702063404838555100,10.40655517578125,1.3031764030456543,0.9369363784790039,1.9620146751403809
1702063404855547100,10.423547119140625,1.8825337886810303,0.8634231090545654,1.7903413772583008
1702063404872542200,10.440542236328126,2.497706890106201,0.9345452785491943,2.005678653717041
1702063404889536000,10.457535888671876,2.8040552139282227,0.8786458969116211,2.8664517402648926
1702063404906528000,10.474528076171875,2.583207130432129,0.8523645401000977,3.7243576049804688
1702063404923510800,10.4915107421875,1.751871109008789,1.1133253574371338,3.9593076705932617
1702063404940516000,10.50851611328125,0.9286928176879883,1.3239901065826416,3.8593602180480957
1702063404957498600,10.52549853515625,0.34588003158569336,1.3561434745788574,3.553210735321045
1702063404974503700,10.542503662109375,-0.07692670822143555,1.1667840480804443,3.3386850357055664
1702063404991495400,10.559495361328125,0.059903621673583984,0.9386653900146484,3.3143868446350098
1702063405008490500,10.576490478515625,0.4640979766845703,0.8152115345001221,3.442324638366699
1702063405025483000,10.59348291015625,0.5499973297119141,0.7657761573791504,3.1667823791503906
1702063405042478000,10.61047802734375,0.872251033782959,0.8149816989898682,2.36151123046875
1702063405059470000,10.627469970703125,0.9520783424377441,0.7027614116668701,1.493936538696289
1702063405076464600,10.644464599609375,0.9873902797698975,0.6371467113494873,0.7970676422119141
1702063405093457400,10.66145751953125,1.0523262023925781,0.7491879463195801,0.4302492141723633
1702063405110452200,10.6784521484375,0.9763469696044922,0.789203405380249,0.4924612045288086
1702063405127444200,10.6954443359375,0.918220043182373,0.6205458641052246,0.4195232391357422
1702063405144439300,10.712439208984375,1.1348342895507812,0.32693910598754883,0.053978919982910156
1702063405161429500,10.729429443359376,1.304893970489502,0.15099740028381348,-0.4255247116088867
1702063405178426000,10.746426025390624,1.323901891708374,-0.09154510498046875,-0.6764602661132812
1702063405195411500,10.763411376953124,0.657707691192627,-0.14606523513793945,-0.8671398162841797
1702063405212413200,10.7804130859375,-0.0494077205657959,-0.25477075576782227,-1.4428014755249023
1702063405229405700,10.79740576171875,-0.16452693939208984,-0.3595893383026123,-1.8721718788146973
1702063405246400800,10.81440087890625,0.08693218231201172,-0.5094220638275146,-2.1082816123962402
1702063405263392800,10.831392822265625,0.8088376522064209,-0.6375396251678467,-2.1031789779663086
1702063405280385000,10.848385009765625,1.546504259109497,-0.7702784538269043,-1.8161430358886719
1702063405297382400,10.86538232421875,1.5765738487243652,-1.0949956178665161,-1.7614593505859375
1702063405314376400,10.88237646484375,1.4526762962341309,-1.6172442436218262,-2.0762457847595215
1702063405331365400,10.899365478515625,1.3203823566436768,-1.89570152759552,-2.489834785461426
1702063405348361700,10.91636181640625,0.9112197756767273,-2.158391237258911,-2.6032094955444336
1702063405365354500,10.9333544921875,0.36660051345825195,-2.340512275695801,-2.697084426879883
1702063405382349000,10.95034912109375,0.24057352542877197,-2.461047410964966,-2.792825698852539
1702063405399339000,10.967339111328124,0.2450244426727295,-2.7713513374328613,-2.9053072929382324
1702063405416338700,10.984338623046876,0.4684666395187378,-3.1197996139526367,-2.6087188720703125
1702063405433328600,11.00132861328125,0.6802027821540833,-3.22712779045105,-2.580949306488037
1702063405450323500,11.018323486328125,0.6367042064666748,-3.1703624725341797,-2.529233932495117
1702063405467315700,11.035315673828125,0.5242410898208618,-3.173133134841919,-2.2628393173217773
1702063405484310300,11.052310302734375,0.3872784376144409,-3.658445358276367,-2.0575103759765625
1702063405501300500,11.069300537109376,0.3590911626815796,-4.239410877227783,-1.886521339416504
1702063405518300200,11.086300048828125,0.2657414674758911,-4.684901714324951,-1.5448837280273438
1702063405535289900,11.103289794921874,-0.32348012924194336,-4.834514617919922,-0.9734506607055664
1702063405552284700,11.12028466796875,-1.0146796703338623,-4.902960777282715,-0.8794116973876953
1702063405569277000,11.13727685546875,-1.0833324193954468,-5.14487886428833,-0.8828086853027344
1702063405586269400,11.15426953125,-0.3850303888320923,-4.963120460510254,-1.0918331146240234
1702063405603266600,11.1712666015625,-0.10506105422973633,-4.441806793212891,-0.3774375915527344
1702063405620258800,11.1882587890625,-0.5646418333053589,-4.216565132141113,1.0099706649780273
1702063405637251300,11.205251220703126,-0.918302059173584,-4.20965051651001,2.5337648391723633
1702063405654246400,11.222246337890626,-1.4815430641174316,-4.833457946777344,3.4458789825439453
1702063405671235600,11.239235595703125,-1.77247953414917,-5.553380012512207,3.114004135131836
1702063405688235800,11.25623583984375,-1.3044849634170532,-6.183289527893066,1.7895898818969727
1702063405705215000,11.273215087890625,-0.4048103094100952,-6.146358013153076,0.5208759307861328
1702063405722218500,11.290218505859375,0.4555255174636841,-5.913972854614258,0.5815229415893555
1702063405739212500,11.307212646484375,-0.397996187210083,-6.357263565063477,1.369664192199707
1702063405756207600,11.32420751953125,-0.3872096538543701,-6.912176132202148,1.5678224563598633
1702063405773200000,11.341199951171875,0.4225703477859497,-6.948575973510742,1.767868995666504
1702063405790194700,11.358194580078125,0.955493152141571,-6.916207313537598,2.6857213973999023
1702063405807195100,11.375195068359375,0.9446978569030762,-6.645595073699951,4.065716743469238
1702063405824181800,11.392181640625,0.18526113033294678,-6.1112470626831055,5.1015777587890625
1702063405841174000,11.409174072265625,-1.5150864124298096,-5.739935874938965,5.148365020751953
1702063405858169000,11.426169189453125,-3.270928382873535,-5.819505214691162,4.443642616271973
1702063405875160800,11.443160888671875,-4.400649070739746,-6.1673970222473145,3.644664764404297
1702063405892156000,11.460156005859375,-4.038400650024414,-6.386676788330078,3.2948713302612305
1702063405909148400,11.4771484375,-3.330327272415161,-6.428577423095703,3.411487579345703
1702063405926143200,11.494143310546875,-2.460123062133789,-6.489988327026367,3.8032655715942383
1702063405943135500,11.511135498046874,-2.2574310302734375,-6.607796669006348,3.7849884033203125
1702063405960130300,11.52813037109375,-2.3851370811462402,-6.649511337280273,2.7241640090942383
1702063405977122600,11.54512255859375,-2.005849599838257,-6.65826940536499,1.3097972869873047
1702063405994117600,11.56211767578125,-1.3170995712280273,-6.8715667724609375,0.5393075942993164
1702063406011107000,11.579107177734375,-0.4385404586791992,-7.259677886962891,0.6360740661621094
1702063406028104400,11.5961044921875,0.16006827354431152,-7.276486873626709,0.817021369934082
1702063406045099500,11.613099609375,0.08608019351959229,-6.663106918334961,0.3180656433105469
1702063406062090500,11.630090576171876,-0.3561943769454956,-6.068276405334473,-0.4758720397949219
1702063406079085300,11.647085205078126,-0.6369473934173584,-5.624576568603516,-0.8840179443359375
1702063406096078600,11.66407861328125,-0.6094793081283569,-5.518523216247559,-0.89434814453125
1702063406113071400,11.6810712890625,-0.40256619453430176,-5.476396560668945,-0.9844741821289062
1702063406130066000,11.69806591796875,-0.22942078113555908,-5.165554046630859,-1.377882957458496
1702063406147058200,11.71505810546875,-0.329988956451416,-4.590072154998779,-1.654026985168457
1702063406164053000,11.732052978515625,-0.5939298868179321,-4.042763710021973,-1.6877522468566895
1702063406181044500,11.74904443359375,-0.4415919780731201,-3.5299792289733887,-1.663060188293457
1702063406198030600,11.766030517578125,-0.008273839950561523,-3.203483819961548,-1.5204248428344727
1702063406215032300,11.7830322265625,0.8140642642974854,-2.969982862472534,-1.3963708877563477
1702063406232027100,11.800027099609375,1.3684824705123901,-2.7100415229797363,-1.3730640411376953
1702063406249019600,11.81701953125,1.654877781867981,-2.3056466579437256,-1.3876686096191406
1702063406266014500,11.834014404296875,1.5979262590408325,-1.8267319202423096,-1.6330575942993164
1702063406283001600,11.851001708984375,1.336456298828125,-1.2803502082824707,-1.8643770217895508
1702063406299999500,11.86799951171875,1.1593544483184814,-0.7998300790786743,-2.083841323852539
1702063406316995800,11.884995849609375,1.194838523864746,-0.4257476329803467,-2.3646888732910156
1702063406333988600,11.901988525390625,1.9083456993103027,-0.2029787302017212,-2.7501516342163086
1702063406350981000,11.918981201171874,2.6895265579223633,-0.026639938354492188,-2.5944175720214844
1702063406367975400,11.935975341796874,2.6387076377868652,0.24747371673583984,-1.6341743469238281
1702063406384968200,11.95296826171875,2.1807899475097656,0.2687373161315918,-0.8138675689697266
1702063406401969700,11.9699697265625,1.89507257938385,0.413707971572876,-0.4188518524169922
1702063406418955000,11.986955078125,1.677565097808838,0.658259391784668,-0.11141586303710938
1702063406435953000,12.003952880859375,1.8319580554962158,0.7460300922393799,-0.24392032623291016
1702063406452935400,12.020935302734374,2.4163265228271484,0.663769006729126,-0.5429787635803223
1702063406469941200,12.037941162109375,3.3606414794921875,0.6227841377258301,-0.3080892562866211
1702063406486929400,12.054929443359375,3.674042224884033,0.7445971965789795,0.981755256652832
1702063406503924000,12.071924072265626,3.2533223628997803,1.0027141571044922,2.0819082260131836
1702063406520916700,12.088916748046875,2.5976145267486572,1.2967314720153809,2.136669158935547
1702063406537901000,12.105901123046875,2.6976799964904785,1.1697843074798584,1.4769325256347656
1702063406554903600,12.122903564453125,3.8286044597625732,0.8717403411865234,1.0994844436645508
1702063406571898400,12.1398984375,4.988272666931152,0.8769514560699463,1.3824458122253418
1702063406588891000,12.156890869140625,4.768184661865234,1.3978915214538574,2.2461018562316895
1702063406605886000,12.173885986328125,3.1594772338867188,1.864839792251587,2.887082576751709
1702063406622876400,12.19087646484375,1.4891314506530762,1.9670921564102173,2.8488521575927734
1702063406639874000,12.2078740234375,0.37358570098876953,1.9596807956695557,2.8384861946105957
1702063406656847600,12.22484765625,0.5132155418395996,1.6230781078338623,3.280061721801758
1702063406673847800,12.241847900390624,0.8145451545715332,0.65378737449646,4.741550445556641
1702063406690852000,12.25885205078125,1.335892677307129,-0.09004402160644531,5.996150493621826
1702063406707847000,12.275846923828125,1.6056504249572754,0.23009395599365234,6.227726459503174
1702063406724839400,12.29283935546875,1.1675643920898438,0.2921931743621826,5.253056526184082
1702063406741823700,12.30982373046875,0.855219841003418,0.3713054656982422,3.941765308380127
1702063406758826200,12.326826171875,0.4896831512451172,0.3666214942932129,3.0113329887390137
1702063406775821000,12.343821044921874,0.36814165115356445,0.19790863990783691,2.8256359100341797
1702063406792813600,12.3608134765625,0.521944522857666,0.11488199234008789,3.0581016540527344
1702063406809808600,12.37780859375,1.0476603507995605,0.24541473388671875,3.568338394165039
1702063406826800600,12.394800537109376,1.2954258918762207,0.3857381343841553,3.5112318992614746
1702063406843778000,12.411778076171874,1.3613700866699219,1.0782697200775146,2.5982556343078613
1702063406860788000,12.4287880859375,0.5532140731811523,1.5674149990081787,1.8931884765625
1702063406877784000,12.4457841796875,-0.5715560913085938,1.705176591873169,2.123108386993408
1702063406894773500,12.4627734375,-1.6621742248535156,1.7207746505737305,2.6442694664001465
1702063406911759400,12.47975927734375,-1.8219246864318848,1.8316597938537598,2.935971260070801
1702063406928762400,12.496762451171875,-1.173408031463623,1.8379871845245361,3.2117819786071777
1702063406945757000,12.5137568359375,-0.14437246322631836,1.7137699127197266,3.34810733795166
1702063406962749200,12.530749267578125,1.1000566482543945,1.6124868392944336,3.034817695617676
1702063406979744000,12.547743896484375,2.055361270904541,1.702523946762085,2.863661766052246
1702063406996736500,12.564736572265625,2.1753358840942383,1.734086275100708,2.94691801071167
1702063407013728000,12.58172802734375,1.8746731281280518,1.9130172729492188,3.090345859527588
1702063407030731800,12.598731689453125,1.4178876876831055,1.9776158332824707,3.254514217376709
1702063407047718000,12.6157177734375,1.3322961330413818,1.8139569759368896,3.0982236862182617
1702063407064713500,12.63271337890625,1.7534394264221191,1.8215112686157227,2.684081554412842
1702063407081703000,12.649702880859374,2.2122063636779785,1.840836524963379,2.6481986045837402
1702063407098697700,12.66669775390625,2.1140801906585693,1.855034351348877,3.0183959007263184
1702063407115692300,12.6836923828125,1.216691017150879,1.779512882232666,3.1995792388916016
1702063407132686600,12.7006865234375,0.6674072742462158,1.8672709465026855,2.136404037475586
1702063407149677800,12.717677734375,0.38794994354248047,2.009154796600342,0.6543903350830078
1702063407166661400,12.734661376953126,0.4376225471496582,2.1683998107910156,0.12439489364624023
1702063407183666700,12.751666748046874,0.7092430591583252,2.4072682857513428,0.4830751419067383
1702063407200659200,12.7686591796875,0.8626694679260254,2.254376173019409,1.3354530334472656
1702063407217654000,12.785654052734374,0.9137916564941406,1.7987959384918213,1.8211183547973633
1702063407234634200,12.80263427734375,1.2035999298095703,1.3442916870117188,1.37896728515625
1702063407251634000,12.819634033203124,1.951162338256836,1.2587488889694214,0.5066452026367188
1702063407268633000,12.836633056640625,2.348728895187378,1.0106544494628906,0.031241416931152344
1702063407285628200,12.853628173828126,2.5686569213867188,0.6754522323608398,-0.13521289825439453
1702063407302610200,12.870610107421875,2.345547676086426,0.2584495544433594,-0.17845726013183594
1702063407319612700,12.88761279296875,1.800782561302185,-0.22728943824768066,-0.1493663787841797
1702063407336610000,12.904610107421876,1.4852057695388794,-0.6000471115112305,-0.2511920928955078
1702063407353610500,12.921610595703125,1.4671669006347656,-0.9119993448257446,-0.5599679946899414
1702063407370594800,12.9385947265625,1.683579921722412,-1.2825428247451782,-0.7384395599365234
1702063407387572500,12.955572509765625,1.7741799354553223,-1.7284104824066162,-0.9886178970336914
1702063407404581600,12.97258154296875,1.9000961780548096,-2.152740955352783,-1.4558687210083008
1702063407421576700,12.98957666015625,2.028578042984009,-2.358208179473877,-1.822092056274414
1702063407438568700,13.006568603515625,1.955873966217041,-2.616201162338257,-1.673759937286377
1702063407455563500,13.0235634765625,1.6100356578826904,-2.761108875274658,-1.5279808044433594
1702063407472556000,13.04055615234375,1.080460786819458,-3.015777826309204,-1.60567045211792
1702063407489547300,13.05754736328125,0.8513953685760498,-3.0932912826538086,-1.6235151290893555
1702063407506546700,13.074546630859375,1.1073079109191895,-3.237239360809326,-1.809499740600586
1702063407523539700,13.091539794921875,1.5622563362121582,-3.3037686347961426,-2.1139678955078125
1702063407540528400,13.1085283203125,1.76680326461792,-3.6197218894958496,-2.462984085083008
1702063407557525200,13.125525146484375,1.9660547971725464,-3.8745968341827393,-2.660097599029541
1702063407574517200,13.142517333984374,1.4223432540893555,-4.19821834564209,-2.358377456665039
1702063407591512000,13.159511962890624,0.5131669044494629,-4.661410331726074,-2.14605712890625
1702063407608504600,13.176504638671876,0.2659938335418701,-5.185835361480713,-2.2282838821411133
1702063407625499400,13.19349951171875,0.669320821762085,-5.428264617919922,-2.190164089202881
1702063407642491400,13.210491455078126,0.6072752475738525,-5.398688793182373,-1.7025251388549805
1702063407659486200,13.227486328125,0.06807565689086914,-5.007695198059082,-0.9606122970581055
1702063407676478700,13.244478759765625,-0.8155326843261719,-5.07841157913208,-0.11313915252685547
1702063407693463000,13.261463134765625,-1.428844690322876,-5.313096046447754,0.32149696350097656
1702063407710465800,13.2784658203125,-1.673506498336792,-5.580599784851074,0.09887123107910156
1702063407727460400,13.29546044921875,-1.446570873260498,-5.951849460601807,0.2156991958618164
1702063407744453000,13.312453125,-1.1241161823272705,-6.188455104827881,0.9497575759887695
1702063407761450800,13.32945068359375,-0.738741397857666,-6.4187469482421875,1.7562103271484375
1702063407778436900,13.346436767578124,-0.03344869613647461,-6.620370864868164,2.771045684814453
1702063407795434500,13.3634345703125,0.8681418895721436,-6.628289222717285,3.1319942474365234
1702063407812427300,13.38042724609375,1.4769225120544434,-6.781749248504639,3.2240219116210938
1702063407829422000,13.397422119140625,0.8870435953140259,-6.802432060241699,3.729537010192871
1702063407846414300,13.414414306640625,1.1035890579223633,-7.265600204467773,4.518034934997559
1702063407863409000,13.431408935546875,2.385082960128784,-7.159049987792969,4.876853942871094
1702063407880401400,13.4484013671875,2.162885904312134,-7.080944538116455,5.448691368103027
1702063407897399600,13.465399658203125,-0.05907106399536133,-7.390196800231934,5.980857849121094
1702063407914385200,13.48238525390625,-1.734332799911499,-7.444552421569824,6.147943496704102
1702063407931380500,13.49938037109375,-2.831376075744629,-7.3107075691223145,4.947625160217285
1702063407948378400,13.51637841796875,-2.7916903495788574,-7.079865455627441,2.957489013671875
1702063407965370600,13.53337060546875,-2.3363027572631836,-7.126605987548828,1.8383970260620117
1702063407982361000,13.550361083984376,-2.2002980709075928,-7.167636394500732,1.2664756774902344
1702063407999357000,13.56735693359375,-2.3232548236846924,-6.945322036743164,1.264216423034668
1702063408016352000,13.58435205078125,-2.0529448986053467,-6.895463943481445,1.3151559829711914
1702063408033334300,13.601334228515626,-1.1411998271942139,-6.850498676300049,1.3955841064453125
1702063408050336800,13.618336669921876,-0.44062066078186035,-6.706342697143555,1.3744869232177734
1702063408067331600,13.63533154296875,0.011464595794677734,-6.524842262268066,1.0854368209838867
1702063408084316400,13.65231640625,0.4001755714416504,-6.107135772705078,0.4696369171142578
1702063408101316400,13.66931640625,0.6979660987854004,-5.755958080291748,0.07990550994873047
1702063408118313700,13.686313720703126,0.897587776184082,-5.5045623779296875,0.09959983825683594
1702063408135306000,13.703305908203125,0.4498629570007324,-5.253025531768799,-0.1554880142211914
1702063408152298500,13.720298583984375,-0.22150707244873047,-5.009557723999023,-0.6599502563476562
1702063408169293300,13.737293212890625,-0.5448746681213379,-4.664419174194336,-1.0612010955810547
1702063408186269700,13.754269775390625,-0.3356659412384033,-4.3625078201293945,-1.127272605895996
1702063408203280100,13.771280029296875,0.3635101318359375,-4.122467994689941,-1.074946403503418
1702063408220272600,13.788272705078125,1.155310034751892,-3.7745273113250732,-0.8957405090332031
1702063408237267500,13.805267333984375,1.5630791187286377,-3.5384023189544678,-1.0268945693969727
1702063408254259500,13.822259521484375,1.583134651184082,-3.0246543884277344,-1.6558818817138672
1702063408271251500,13.83925146484375,0.6496005058288574,-2.6114563941955566,-2.731616497039795
1702063408288249900,13.856249755859375,-0.3739175796508789,-2.675092935562134,-3.4914846420288086
1702063408305241900,13.873241943359375,0.5302801132202148,-3.0052950382232666,-2.9984655380249023
1702063408322233900,13.89023388671875,2.445255756378174,-2.6690115928649902,-1.766510009765625
1702063408339228400,13.907228515625,3.2784810066223145,-2.082810163497925,-0.23878192901611328
1702063408356210700,13.924210693359376,3.1851959228515625,-1.3705170154571533,0.7163047790527344
1702063408373213200,13.941213134765626,2.7214362621307373,-0.888277530670166,0.8961696624755859
1702063408390210600,13.95821044921875,2.3803791999816895,-0.3204641342163086,0.3843259811401367
1702063408407199700,13.97519970703125,2.233578681945801,0.13847684860229492,-0.25868844985961914
1702063408424198700,13.99219873046875,2.38316011428833,0.3928499221801758,-0.39803314208984375
1702063408441190400,14.0091904296875,2.5883944034576416,0.6360836029052734,0.007913589477539062
1702063408458177500,14.026177490234375,2.518676280975342,0.879385232925415,0.562283992767334
1702063408475191300,14.04319140625,2.4928712844848633,1.1847772598266602,0.9185247421264648
1702063408492169500,14.06016943359375,2.4243507385253906,1.5860204696655273,0.8064522743225098
1702063408509164500,14.07716455078125,2.404438018798828,1.9268884658813477,0.5122694969177246
1702063408526156500,14.094156494140625,2.350261926651001,2.1723949909210205,0.5003204345703125
1702063408543151000,14.111151123046875,2.1447901725769043,2.1793198585510254,0.9297142028808594
1702063408560144000,14.128143798828125,1.8780922889709473,2.152106761932373,1.4821839332580566
1702063408577138700,14.145138671875,2.4676661491394043,1.8016467094421387,1.6563668251037598
1702063408594130700,14.162130615234375,3.9080569744110107,1.1730127334594727,2.075894832611084
1702063408611122700,14.179122802734375,5.004189491271973,0.8335580825805664,2.5678110122680664
1702063408628120800,14.196120849609375,5.22460412979126,1.0433988571166992,3.159024238586426
1702063408645110500,14.213110595703125,3.813711643218994,1.6025221347808838,3.036966323852539
1702063408662096600,14.2300966796875,2.445892810821533,1.927591323852539,2.7795968055725098
1702063408679099600,14.247099609375,1.4396944046020508,1.5844814777374268,3.1171669960021973
1702063408696092200,14.264092041015624,1.786670207977295,1.422452688217163,3.599316120147705
1702063408713087000,14.2810869140625,2.4217381477355957,1.324190616607666,4.215207099914551
1702063408730079000,14.298078857421874,2.356186866760254,1.233212947845459,4.541870594024658
1702063408747074000,14.315073974609374,1.9769930839538574,0.7531962394714355,4.447686672210693
1702063408764066600,14.332066650390624,1.8625988960266113,0.5663371086120605,4.079502582550049
1702063408781061400,14.349061279296874,1.7591047286987305,0.8076486587524414,4.0976104736328125
1702063408798053000,14.36605322265625,0.9714746475219727,1.1648783683776855,4.283906936645508
1702063408815046400,14.38304638671875,-0.4188880920410156,1.360163688659668,3.6364688873291016
1702063408832043300,14.400043212890624,-1.219655990600586,1.304481029510498,2.5148162841796875
1702063408849035500,14.417035400390626,-1.2963309288024902,0.9348239898681641,1.7712864875793457
1702063408866027800,14.43402783203125,-0.5092434883117676,0.7790894508361816,1.7385225296020508
1702063408883022300,14.451022216796876,0.5333595275878906,0.6403970718383789,2.2295360565185547
1702063408900013600,14.468013671875,1.1990537643432617,0.49317097663879395,2.270174980163574
1702063408917011200,14.48501123046875,0.9871845245361328,0.6279754638671875,2.8102645874023438
1702063408934001700,14.502001708984375,0.3161735534667969,0.7513773441314697,3.0699234008789062
1702063408950996700,14.518996826171875,0.2880992889404297,1.0494003295898438,3.053819179534912
1702063408967989000,14.535989013671875,0.3163619041442871,1.561861515045166,3.2290143966674805
1702063408984984000,14.552984130859375,0.39371538162231445,2.0285863876342773,3.189828872680664
1702063409001973500,14.569973388671874,0.578193187713623,2.2956154346466064,3.188706398010254
1702063409018973700,14.5869736328125,0.7927126884460449,2.223288059234619,3.4994168281555176
1702063409035963400,14.60396337890625,1.1245713233947754,2.098297595977783,3.9359917640686035
1702063409052958200,14.620958251953125,1.4596691131591797,2.0322999954223633,4.3488030433654785
1702063409069950200,14.6379501953125,1.5329413414001465,1.8939356803894043,4.675439834594727
1702063409086943700,14.65494384765625,1.592428207397461,1.710970401763916,4.791643142700195
1702063409103939000,14.67193896484375,1.916557788848877,1.6578624248504639,4.447062969207764
1702063409120932400,14.688932373046875,2.201402187347412,1.7209298610687256,3.958876132965088
1702063409137924600,14.705924560546874,2.123566150665283,1.7201886177062988,3.7362775802612305
1702063409154919200,14.722919189453124,1.725229024887085,1.756467342376709,3.647933006286621
1702063409171912000,14.739911865234374,1.3261430263519287,1.825657844543457,3.437775135040283
1702063409188906500,14.756906494140624,1.1977663040161133,1.7481200695037842,3.1639413833618164
1702063409205898800,14.773898681640626,1.14638090133667,1.7199065685272217,2.590639114379883
1702063409222906000,14.790906005859375,1.2771944999694824,1.7698190212249756,1.8888416290283203
1702063409239886000,14.807885986328126,1.2833356857299805,1.7391014099121094,1.152970314025879
1702063409256881000,14.824880859375,1.2851042747497559,1.6254150867462158,0.3512730598449707
1702063409273873000,14.841872802734375,1.4557278156280518,1.5706543922424316,-0.21685361862182617
1702063409290857500,14.858857421875,1.6122698783874512,1.4462029933929443,-0.1547679901123047
1702063409307860500,14.875860595703125,1.7846016883850098,1.1385767459869385,0.3988313674926758
1702063409324855000,14.89285498046875,1.8649632930755615,0.5960347652435303,0.4654502868652344
1702063409341847600,14.90984765625,1.7817199230194092,-0.0438838005065918,-0.03769969940185547
1702063409358841900,14.926841796875,1.1791749000549316,-0.18340110778808594,-1.113168716430664
1702063409375834400,14.94383447265625,0.7664039134979248,-0.13401365280151367,-1.7914962768554688
1702063409392829200,14.9608291015625,0.7205750942230225,-0.3361072540283203,-1.7233028411865234
1702063409409821400,14.977821533203125,0.7770166397094727,-0.6844455003738403,-1.4288387298583984
1702063409426816300,14.994816162109375,1.3163836002349854,-1.1313831806182861,-1.0444846153259277
1702063409443808500,15.01180859375,1.2338277101516724,-1.5444977283477783,-0.7809944152832031
1702063409460803600,15.028803466796875,0.8533542156219482,-1.893145203590393,-0.6735696792602539
1702063409477795600,15.045795654296874,0.36510276794433594,-1.9446946382522583,-1.0007133483886719
1702063409494790400,15.062790283203125,0.49277710914611816,-1.98688542842865,-1.4613370895385742
1702063409511783000,15.079782958984374,0.8465921878814697,-2.287914991378784,-1.786325454711914
1702063409528777700,15.09677783203125,0.6240315437316895,-2.8209469318389893,-2.0469603538513184
1702063409545769700,15.113769775390624,0.740740180015564,-3.0346322059631348,-1.9631857872009277
1702063409562764500,15.1307646484375,0.8212237358093262,-3.1107640266418457,-1.526906967163086
1702063409579757300,15.14775732421875,0.2887551784515381,-3.149488925933838,-0.9950828552246094
1702063409596752100,15.164752197265624,-0.2511286735534668,-3.587458848953247,-1.058816909790039
1702063409613743900,15.181743896484376,-0.27899861335754395,-3.874711751937866,-1.7159004211425781
1702063409630739000,15.198739013671876,-0.20305609703063965,-4.261881351470947,-1.9968419075012207
1702063409647732000,15.21573193359375,-0.22302556037902832,-4.579833984375,-1.928410530090332
1702063409664725800,15.232725830078126,-0.43833494186401367,-5.024614334106445,-1.6303110122680664
1702063409681718500,15.249718505859375,-0.753145694732666,-5.32936954498291,-1.2026262283325195
1702063409698713000,15.266713134765626,-0.7916514873504639,-5.47002649307251,-1.1085615158081055
1702063409715703000,15.283703125,-0.7295060157775879,-5.674211025238037,-0.887873649597168
1702063409732703000,15.300702880859374,-0.5216453075408936,-5.637232780456543,-0.8232088088989258
1702063409749682200,15.31768212890625,-0.35660576820373535,-5.322641372680664,-0.24003982543945312
1702063409766685200,15.334685302734375,-0.74843430519104,-5.677311897277832,1.0345983505249023
1702063409783682000,15.35168212890625,-0.730294942855835,-6.243116855621338,2.0323429107666016
1702063409800674800,15.3686748046875,-1.0796794891357422,-6.305668830871582,1.5854301452636719
1702063409817666600,15.38566650390625,-1.7149126529693604,-6.154009819030762,-0.21542739868164062
1702063409834660600,15.40266064453125,-0.7579634189605713,-6.200611114501953,-1.6369938850402832
1702063409851655000,15.419655029296875,0.9379396438598633,-6.165472984313965,-0.19411087036132812
1702063409868648700,15.436648681640625,1.1170158386230469,-5.994002819061279,3.0085630416870117
1702063409885640700,15.453640625,0.8009786605834961,-5.413809299468994,4.633976936340332
1702063409902635800,15.4706357421875,-0.02983880043029785,-4.9696431159973145,3.974419593811035
1702063409919628000,15.4876279296875,-1.2388758659362793,-4.813344478607178,2.6480274200439453
1702063409936623000,15.504623046875,-1.790328025817871,-4.751267910003662,2.8548898696899414
1702063409953615000,15.521614990234376,-0.9770958423614502,-4.798221111297607,4.576133728027344
1702063409970610000,15.53860986328125,-1.273453950881958,-5.020439147949219,6.576396942138672
1702063409987602700,15.555602783203126,-3.35626220703125,-4.616689205169678,5.524833679199219
1702063410004597200,15.57259716796875,-4.825325012207031,-5.106725215911865,3.971965789794922
1702063410021581000,15.5895810546875,-4.673776149749756,-5.624368667602539,2.6838903427124023
1702063410038584300,15.606584228515626,-3.7737514972686768,-6.001753807067871,2.0838756561279297
1702063410055576600,15.62357666015625,-2.815723419189453,-6.19286584854126,2.086848258972168
1702063410072571400,15.6405712890625,-2.1041462421417236,-6.427489757537842,2.380110740661621
1702063410089563400,15.6575634765625,-1.5620219707489014,-6.693867206573486,2.256180763244629
1702063410106550000,15.674550048828126,-0.8351986408233643,-6.903569221496582,1.957106590270996
1702063410123550700,15.69155078125,0.08970189094543457,-6.937359809875488,1.4139728546142578
1702063410140545500,15.708545654296875,0.7076811790466309,-6.821938991546631,0.7929897308349609
1702063410157537800,15.725537841796875,0.9481186866760254,-6.633711338043213,0.2573966979980469
1702063410174532600,15.74253271484375,0.5337626934051514,-6.3882904052734375,0.07496929168701172
1702063410191525000,15.759525146484375,-0.27226710319519043,-6.139474868774414,-0.05743408203125
1702063410208520200,15.776520263671875,-0.9406661987304688,-5.817811489105225,-0.31390380859375
1702063410225509000,15.793509033203126,-0.8263857364654541,-5.348942756652832,-0.3876495361328125
1702063410242509600,15.810509521484375,-0.6892733573913574,-4.7846574783325195,-0.8270940780639648
1702063410259497200,15.827497314453124,-0.5619280338287354,-4.442267894744873,-1.0456953048706055
1702063410276496100,15.84449609375,-0.33098697662353516,-4.282227516174316,-0.8980484008789062
1702063410293486300,15.861486328125,-0.1126101016998291,-4.196638107299805,-0.6431217193603516
1702063410310478300,15.878478271484376,0.206512451171875,-3.77197003364563,-0.7665548324584961
1702063410327476000,15.89547607421875,0.3714447021484375,-3.056936740875244,-1.3680696487426758
1702063410344466000,15.9124658203125,0.48926210403442383,-2.502974033355713,-1.8063116073608398
1702063410361460700,15.929460693359376,0.5036470890045166,-2.1350719928741455,-1.9184789657592773
1702063410378455000,15.946455078125,0.7514777183532715,-1.8734692335128784,-1.723151683807373
1702063410395446000,15.963446044921875,1.0751595497131348,-1.4485446214675903,-1.0956764221191406
1702063410412444200,15.980444091796874,1.2444322109222412,-1.0433247089385986,-0.6278390884399414
1702063410429430300,15.99743017578125,2.1288304328918457,-0.6957659721374512,-0.6669301986694336
1702063410446431200,16.01443115234375,3.0758554935455322,-0.5646252632141113,-0.8911867141723633
1702063410463422000,16.031421875,3.7708396911621094,-0.1862649917602539,-1.1126384735107422
1702063410480416800,16.048416748046876,3.474019765853882,0.41257786750793457,-1.6894683837890625
1702063410497408800,16.06540869140625,2.6873865127563477,0.7629220485687256,-1.7017583847045898
1702063410514401000,16.082401123046875,1.976729154586792,0.8784089088439941,-1.4488611221313477
1702063410531398700,16.099398681640626,1.7613120079040527,0.8650040626525879,-1.0092353820800781
1702063410548390400,16.116390380859375,2.042057752609253,0.8886117935180664,-0.7392692565917969
1702063410565393700,16.1333935546875,2.9451241493225098,0.9776360988616943,-0.6504068374633789
1702063410582377700,16.150377685546875,3.6239166259765625,1.2156527042388916,-0.5668888092041016
1702063410599370200,16.167370361328125,4.066973686218262,1.6221232414245605,-0.5345377922058105
1702063410616362500,16.184362548828126,4.16879940032959,1.9539728164672852,-0.2396683692932129
1702063410633359600,16.201359619140625,3.8697032928466797,2.119480848312378,0.14699983596801758
1702063410650351900,16.218351806640626,3.618483781814575,2.142910957336426,0.8436160087585449
1702063410667344400,16.235344482421876,3.6465566158294678,2.3081207275390625,2.0610756874084473
1702063410684339200,16.252339111328126,3.215475559234619,2.7077436447143555,3.8887901306152344
1702063410701329000,16.269328857421876,2.1758902072906494,2.7917470932006836,4.937107563018799
1702063410718328600,16.28632861328125,1.0723624229431152,2.5516276359558105,4.163308620452881
1702063410735308300,16.303308349609374,0.6375336647033691,2.2636547088623047,3.2891244888305664
1702063410752313600,16.320313720703126,0.7639727592468262,2.211705446243286,3.705719470977783
1702063410769305900,16.337305908203124,1.2414870262145996,2.1604154109954834,4.415141582489014
1702063410786300400,16.354300537109374,1.5563554763793945,1.8466649055480957,5.020347595214844
1702063410803293000,16.37129296875,0.5941195487976074,1.8642446994781494,4.874014377593994
1702063410820287700,16.388287841796874,-0.32488107681274414,2.0082876682281494,3.9439682960510254
1702063410837269200,16.405269287109373,-1.0360188484191895,1.8281688690185547,3.462523937225342
1702063410854274800,16.42227490234375,-0.8346056938171387,1.13985013961792,3.8955631256103516
1702063410871267000,16.43926708984375,0.6013402938842773,0.3109922409057617,4.875514507293701
1702063410888259300,16.45625927734375,2.2499661445617676,0.3732891082763672,7.15332555770874
1702063410905256700,16.473256591796876,2.3160300254821777,1.121138334274292,7.987433910369873
1702063410922248700,16.490248779296873,2.3913393020629883,1.6385812759399414,5.520931720733643
1702063410939241200,16.5072412109375,2.2446255683898926,2.040806293487549,1.9616646766662598
1702063410956236300,16.524236328125,1.4516758918762207,2.0798745155334473,0.4195981025695801
1702063410973228500,16.541228515625,0.5229325294494629,1.8249359130859375,1.0629987716674805
1702063410990222800,16.558222900390625,-0.46637725830078125,1.5439226627349854,2.8091325759887695
1702063411007214000,16.575214111328126,-1.656175136566162,1.4219422340393066,3.868379592895508
1702063411024211700,16.592211669921873,-2.165318489074707,1.720749855041504,3.7338943481445312
1702063411041202400,16.609202392578126,-1.3092713356018066,1.9290790557861328,2.9819273948669434
1702063411058197200,16.626197265625,-0.2615694999694824,2.063389778137207,2.408759117126465
1702063411075189800,16.643189697265626,0.8022689819335938,2.0799057483673096,2.083057403564453
1702063411092184600,16.6601845703125,1.8121294975280762,2.0608699321746826,2.318631649017334
1702063411109176800,16.6771767578125,2.0304789543151855,1.9411547183990479,3.141176223754883
1702063411126171400,16.69417138671875,1.9199867248535156,1.8998703956604004,3.885861396789551
1702063411143164000,16.711163818359374,1.4857769012451172,2.0171165466308594,4.271584987640381
1702063411160159000,16.728158935546876,1.1510591506958008,2.2982044219970703,4.039134502410889
1702063411177147100,16.745147216796877,0.8099675178527832,2.5054397583007812,3.2188925743103027
1702063411194149000,16.762149169921877,0.9332623481750488,2.6518290042877197,2.414430618286133
1702063411211138300,16.77913818359375,1.3989429473876953,2.5905818939208984,2.150242805480957
1702063411228132900,16.7961328125,1.902466058731079,2.547790765762329,2.642653465270996
1702063411245125000,16.813125,1.8542087078094482,2.5422773361206055,3.198749542236328
1702063411262120000,16.830119873046876,1.4160490036010742,2.448262929916382,3.1096134185791016
1702063411279112400,16.847112548828125,0.8554301261901855,2.3097341060638428,2.4280614852905273
1702063411296107000,16.86410693359375,0.4584312438964844,2.1894583702087402,1.5426130294799805
1702063411313099500,16.881099609375,0.46028900146484375,1.9647799730300903,0.7266559600830078
1702063411330094000,16.898093994140623,0.8988547325134277,1.6959940195083618,0.33648157119750977
1702063411347086300,16.91508642578125,1.5543088912963867,1.3249571323394775,0.2835817337036133
1702063411364081400,16.932081298828123,2.087083339691162,1.141838550567627,0.4520082473754883
1702063411381073400,16.949073486328125,2.4134929180145264,0.8334434032440186,0.5685329437255859
1702063411398064400,16.966064453125,2.658137321472168,0.6495370864868164,0.2729835510253906
1702063411415063000,16.98306298828125,2.3473868370056152,0.203566312789917,-0.07677650451660156
1702063411432055600,17.0000556640625,1.4874472618103027,-0.0452268123626709,-0.7366876602172852
1702063411449047600,17.017047607421876,0.484403133392334,-0.346498966217041,-1.4489498138427734
1702063411466035200,17.03403515625,0.1933913230895996,-0.818361759185791,-1.7851905822753906
1702063411483035000,17.051034912109376,0.11861991882324219,-0.9466605186462402,-1.461644172668457
1702063411500028400,17.0680283203125,0.2701303958892822,-1.222792387008667,-1.1219186782836914
1702063411517023000,17.08502294921875,0.9718880653381348,-1.673495888710022,-1.510030746459961
1702063411534016500,17.1020166015625,1.5212655067443848,-1.9398772716522217,-2.262788772583008
1702063411551009000,17.119009033203124,1.8691134452819824,-1.8587701320648193,-2.8106260299682617
1702063411568003800,17.13600390625,1.6971406936645508,-1.7781258821487427,-2.695126533508301
1702063411584996400,17.152996337890624,1.1450653076171875,-1.879891037940979,-1.7116036415100098
1702063411601997300,17.169997314453123,0.8581445217132568,-2.0122365951538086,-0.6349973678588867
1702063411618983400,17.1869833984375,1.0262901782989502,-2.1184945106506348,-0.10800457000732422
1702063411635975700,17.2039755859375,1.7072105407714844,-2.281543493270874,-0.042144775390625
1702063411652972800,17.220972900390624,2.388978958129883,-2.8516581058502197,-0.49753284454345703
1702063411669954800,17.237954833984375,2.5547003746032715,-3.388634443283081,-1.420621395111084
1702063411686957600,17.25495751953125,2.059382677078247,-3.6445131301879883,-2.1181116104125977
1702063411703952600,17.27195263671875,1.3508806228637695,-4.024262428283691,-1.967391014099121
1702063411720944600,17.288944580078127,0.5510449409484863,-4.274616718292236,-0.850341796875
1702063411737939200,17.305939208984373,0.1266343593597412,-4.141513347625732,-0.11830806732177734
1702063411754932000,17.322931884765627,0.4527475833892822,-4.354777812957764,-0.0772085189819336
1702063411771926800,17.3399267578125,0.7945632934570312,-4.50590705871582,-0.2216777801513672
1702063411788918500,17.35691845703125,0.4917011260986328,-4.671678066253662,-0.13322830200195312
1702063411805913300,17.373913330078125,0.24949026107788086,-5.055869102478027,0.10885334014892578
1702063411822905900,17.39090576171875,-0.001447916030883789,-5.27928352355957,0.4511117935180664
1702063411839900400,17.407900390625,-0.7660539150238037,-5.131264686584473,0.33898448944091797
1702063411856894200,17.424894287109375,-1.5492172241210938,-5.101668357849121,-0.1271190643310547
1702063411873887700,17.4418876953125,-1.9290544986724854,-5.635448932647705,-0.2716379165649414
1702063411890880000,17.4588798828125,-1.204679250717163,-6.52694034576416,-0.3031272888183594
1702063411907875000,17.475875,0.16449546813964844,-7.1067352294921875,-0.40588951110839844
1702063411924867000,17.4928671875,1.1409907341003418,-6.762189865112305,-0.8121891021728516
1702063411941862000,17.50986181640625,0.9062283039093018,-6.652377128601074,-0.38288307189941406
1702063411958854400,17.5268544921875,-0.21083712577819824,-6.534610271453857,1.9828691482543945
1702063411975838700,17.543838623046874,-2.3161461353302,-6.520591735839844,4.495794296264648
1702063411992841200,17.56084130859375,-2.2947614192962646,-5.844015598297119,4.73748779296875
1702063412009836000,17.5778359375,-0.9482412338256836,-5.8051910400390625,4.272172927856445
1702063412026828500,17.59482861328125,0.23998451232910156,-6.295654773712158,4.313355445861816
1702063412043823000,17.611822998046875,-0.4547157287597656,-6.815492630004883,4.747296333312988
1702063412060812800,17.628812744140625,-2.31626296043396,-6.789107322692871,4.8829755783081055
1702063412077813000,17.64581298828125,-4.337187767028809,-6.430871486663818,3.754490852355957
1702063412094802700,17.662802734375,-4.829941749572754,-5.787380218505859,2.338197708129883
1702063412111797500,17.679797607421875,-4.567155361175537,-5.5278496742248535,1.9019775390625
1702063412128789500,17.69678955078125,-2.9384796619415283,-5.753922939300537,1.6678953170776367
1702063412145773800,17.71377392578125,-1.3634886741638184,-6.275817394256592,0.9545679092407227
1702063412162776800,17.73077685546875,-0.1978611946105957,-6.520869731903076,0.10780811309814453
1702063412179772000,17.74777197265625,0.04773259162902832,-6.477684020996094,-0.04171562194824219
1702063412196763600,17.764763671875,-0.13672375679016113,-6.293051242828369,0.012237548828125
1702063412213758500,17.781758544921875,-0.26541686058044434,-6.089493274688721,-0.40764713287353516
1702063412230751200,17.798751220703124,-0.023034334182739258,-5.834848880767822,-1.4096965789794922
1702063412247757600,17.815757568359373,0.7605905532836914,-5.566531181335449,-1.9137554168701172
1702063412264738000,17.832738037109376,0.9908068180084229,-5.166033744812012,-1.537796974182129
1702063412281732900,17.84973291015625,0.47863495349884033,-4.870196342468262,-0.8605670928955078
1702063412298725000,17.86672509765625,-0.20960330963134766,-4.4861273765563965,-0.6758823394775391
1702063412315720000,17.883719970703126,-0.6097843647003174,-4.029447078704834,-0.8525810241699219
1702063412332712200,17.900712158203124,-0.06413412094116211,-3.824542999267578,-1.1382341384887695
1702063412349707000,17.91770703125,1.0169413089752197,-3.692763328552246,-1.2067432403564453
1702063412366696700,17.93469677734375,1.841483473777771,-3.384537696838379,-0.8828468322753906
1702063412383693300,17.951693359375,1.7503395080566406,-2.9209108352661133,-0.49169445037841797
1702063412400686300,17.968686279296875,1.5065877437591553,-2.4216275215148926,-0.505889892578125
1702063412417681200,17.98568115234375,1.5079412460327148,-1.9572820663452148,-0.7599258422851562
1702063412434673700,18.002673583984375,1.6376197338104248,-1.6779780387878418,-1.0755319595336914
1702063412451668500,18.01966845703125,1.9931371212005615,-1.5265624523162842,-1.3613920211791992
1702063412468660500,18.036660400390623,2.384265184402466,-1.2490906715393066,-1.362624168395996
1702063412485644800,18.053644775390627,2.4446544647216797,-0.6886086463928223,-0.8180437088012695
1702063412502647800,18.070647705078127,2.21069073677063,-0.0731966495513916,-0.6307525634765625
1702063412519642600,18.087642578125,2.156991720199585,0.4826645851135254,-0.9425110816955566
1702063412536632000,18.104632080078126,2.0973072052001953,0.7925496101379395,-1.1445159912109375
1702063412553632000,18.121632080078125,2.078279495239258,0.7702023983001709,-1.0818910598754883
1702063412570611700,18.13861181640625,2.125577926635742,0.7270731925964355,-1.1216411590576172
1702063412587616800,18.15561669921875,2.398284435272217,0.8892455101013184,-0.8616089820861816
1702063412604609000,18.172609130859374,2.661153793334961,1.126127004623413,-0.15172386169433594
1702063412621603800,18.189603759765625,2.8816609382629395,1.393599510192871,0.548126220703125
1702063412638585600,18.206585693359376,3.2327733039855957,1.6284642219543457,1.0112009048461914
1702063412655591000,18.2235908203125,3.3603971004486084,1.9522705078125,1.3455090522766113
1702063412672583200,18.240583251953126,3.3508620262145996,2.2255032062530518,1.6386375427246094
1702063412689578000,18.257577880859376,3.0791919231414795,2.49249005317688,2.0425009727478027
1702063412706568400,18.274568359375,2.4935946464538574,2.632779359817505,2.26017427444458
1702063412723565300,18.2915654296875,2.332902193069458,2.6366841793060303,2.032353401184082
1702063412740557000,18.30855712890625,2.6993162631988525,2.6477227210998535,1.6458220481872559
1702063412757554400,18.325554443359376,3.340712547302246,2.6129114627838135,1.7594308853149414
1702063412774547000,18.342546875,3.6050350666046143,2.5890536308288574,2.428493022918701
1702063412791539500,18.35953955078125,3.0811028480529785,2.7374706268310547,3.350393772125244
1702063412808531500,18.376531494140625,2.5707757472991943,2.796074390411377,3.4740781784057617
1702063412825526300,18.3935263671875,2.4077296257019043,2.8121893405914307,2.8739686012268066
1702063412842518800,18.410518798828125,2.2356905937194824,2.8173351287841797,2.6180872917175293
1702063412859513600,18.427513671875,2.0709972381591797,2.485889434814453,3.193666934967041
1702063412876505600,18.444505615234377,2.0356554985046387,2.1518402099609375,3.872164249420166
1702063412893500400,18.46150048828125,2.081267833709717,2.155801296234131,4.242457389831543
1702063412910493000,18.478492919921877,1.6120922565460205,2.402491331100464,4.138113021850586
1702063412927486700,18.49548681640625,0.9284086227416992,2.3677875995635986,3.7462778091430664
1702063412944480000,18.51247998046875,0.07431173324584961,1.9586002826690674,3.3324666023254395
1702063412961473000,18.52947314453125,-0.2999453544616699,1.4995150566101074,4.1960248947143555
1702063412978468600,18.546468505859377,-0.3081817626953125,1.6348819732666016,5.215143203735352
1702063412995462000,18.5634619140625,0.04564046859741211,1.9750745296478271,4.428877353668213
1702063413012454100,18.5804541015625,0.42159414291381836,2.315629720687866,2.537306785583496
1702063413029441300,18.597441162109376,-0.0649557113647461,2.266268491744995,1.056551456451416
1702063413046441500,18.61444140625,-0.7065367698669434,2.229846239089966,0.23789548873901367
1702063413063436000,18.63143603515625,-1.1019864082336426,2.0063014030456543,0.41664743423461914
1702063413080428300,18.64842822265625,-1.283848762512207,1.8914570808410645,1.6039509773254395
1702063413097423000,18.665423095703126,0.1256108283996582,1.6047656536102295,2.8991270065307617
1702063413114428700,18.6824287109375,1.0418100357055664,1.4795594215393066,3.6129379272460938
1702063413131398000,18.69939794921875,1.933046817779541,1.7551794052124023,3.6853857040405273
1702063413148404500,18.716404541015624,2.0618205070495605,1.8291795253753662,3.4072437286376953
1702063413165397200,18.733397216796874,1.8389878273010254,1.7377623319625854,3.109776020050049
1702063413182388200,18.75038818359375,1.4224014282226562,1.46598219871521,3.1059465408325195
1702063413199386000,18.76738623046875,1.2494630813598633,1.2767720222473145,3.2147116661071777
1702063413216376600,18.78437646484375,0.9272103309631348,1.1879398822784424,3.251011371612549
1702063413233371400,18.801371337890625,0.6587643623352051,1.2199985980987549,3.304745674133301
1702063413250364000,18.818364013671875,0.2752842903137207,1.3356633186340332,3.450058937072754
1702063413267358700,18.835358642578125,-0.17028141021728516,1.4925282001495361,3.3148837089538574
1702063413284350700,18.852350830078127,-0.4942760467529297,1.6203982830047607,2.961299419403076
1702063413301343000,18.869343017578124,-0.6140050888061523,1.6602367162704468,2.7237815856933594
1702063413318340600,18.886340576171875,-0.2822580337524414,1.5544002056121826,2.4622511863708496
1702063413335333000,18.9033330078125,0.37868785858154297,1.5351173877716064,2.094419479370117
1702063413352327700,18.92032763671875,0.8901286125183105,1.6009610891342163,1.8202905654907227
1702063413369316900,18.93731689453125,1.0879359245300293,1.5547125339508057,1.5655498504638672
1702063413386312200,18.954312255859374,1.1499853134155273,1.531089425086975,1.0745973587036133
1702063413403307000,18.97130712890625,1.1513910293579102,1.409947395324707,0.4187755584716797
1702063413420290600,18.98829052734375,1.5781164169311523,0.9895076751708984,-0.04535961151123047
1702063413437305600,19.0053056640625,2.5091216564178467,0.15221762657165527,0.1994152069091797
1702063413454286600,19.02228662109375,3.3042023181915283,-0.23296570777893066,0.28832149505615234
1702063413471281200,19.03928125,3.2575478553771973,-0.41011667251586914,-0.5325183868408203
1702063413488280600,19.056280517578124,3.004911184310913,-0.5259394645690918,-1.9286689758300781
1702063413505249500,19.07324951171875,2.592880964279175,-0.25652098655700684,-3.209547519683838
1702063413522260500,19.090260498046874,1.7316783666610718,-0.0010712146759033203,-3.3166699409484863
1702063413539255300,19.10725537109375,0.9569354057312012,0.2882732152938843,-2.711742401123047
1702063413556247800,19.124247802734374,0.17519640922546387,0.21396219730377197,-2.226040840148926
1702063413573245200,19.1412451171875,0.06560039520263672,0.09267008304595947,-2.258678436279297
1702063413590235000,19.15823486328125,0.5692226886749268,0.012553930282592773,-2.2512712478637695
1702063413607217000,19.175216796875,1.5357530117034912,-0.10558974742889404,-2.2165966033935547
1702063413624214000,19.192214111328123,2.156036853790283,-0.2810126543045044,-2.3317079544067383
1702063413641219000,19.209218994140624,2.3604722023010254,-0.4667311906814575,-2.400146484375
1702063413658208800,19.226208740234377,1.9885315895080566,-0.4549438953399658,-2.39910888671875
1702063413675203800,19.243203857421875,1.4792518615722656,-0.5509432554244995,-2.3226466178894043
1702063413692195800,19.26019580078125,1.0093812942504883,-0.7587451338768005,-2.0822343826293945
1702063413709188000,19.27718798828125,0.7682349681854248,-1.275949478149414,-1.9001941680908203
1702063413726185700,19.294185791015625,0.7348132133483887,-1.9302847385406494,-1.7174129486083984
1702063413743175400,19.311175537109374,0.8843159675598145,-2.2941372394561768,-1.3171205520629883
1702063413760172500,19.328172607421877,0.7855281829833984,-2.2766098976135254,-0.9252557754516602
1702063413777164800,19.345164794921875,0.3634209632873535,-2.359159231185913,-0.6174392700195312
1702063413794158800,19.362158935546876,-0.28196048736572266,-2.657101631164551,-0.5844440460205078
1702063413811150600,19.379150634765626,-0.48743629455566406,-3.0925254821777344,-0.9564590454101562
1702063413828144000,19.39614404296875,-0.13694000244140625,-3.2545177936553955,-0.7995481491088867
1702063413845139000,19.413138916015626,0.11507916450500488,-3.4130067825317383,0.45049381256103516
1702063413862139000,19.430138916015625,-0.03238534927368164,-3.3599820137023926,1.286844253540039
1702063413879124000,19.4471240234375,-0.25457072257995605,-3.1970252990722656,1.192805290222168
1702063413896120800,19.464120849609376,-0.7504868507385254,-3.890503406524658,0.9466400146484375
1702063413913113000,19.481113037109374,-0.7555117607116699,-4.348268508911133,0.4281425476074219
1702063413930105600,19.498105712890624,-0.6928284168243408,-4.553149223327637,-0.34256649017333984
1702063413947100400,19.515100341796874,-0.46593451499938965,-4.706918239593506,-0.672612190246582
1702063413964092700,19.5320927734375,-0.4748575687408447,-5.387977600097656,0.7534542083740234
1702063413981087500,19.54908740234375,-0.5197193622589111,-5.997912406921387,2.008070945739746
1702063413998084900,19.5660849609375,-0.20386910438537598,-6.731272220611572,2.548628807067871
1702063414015070000,19.583070068359376,0.1095430850982666,-7.04243278503418,1.5622377395629883
1702063414032066800,19.60006689453125,1.006887674331665,-6.7021484375,0.3262624740600586
1702063414049061400,19.617061279296873,0.6595823764801025,-5.999507904052734,0.8938198089599609
1702063414066051600,19.634051513671874,-0.29388427734375,-5.7031474113464355,2.8683834075927734
1702063414083051300,19.65105126953125,0.07646679878234863,-6.713345527648926,3.831022262573242
1702063414100044000,19.6680439453125,-2.797881603240967,-7.070897579193115,4.38936710357666
1702063414117032700,19.68503271484375,-4.606313705444336,-5.865501880645752,5.17103385925293
1702063414134025700,19.702025634765626,-4.086400985717773,-4.613710880279541,5.682712554931641
1702063414151025700,19.719025634765625,-2.5543477535247803,-3.8577053546905518,6.571969032287598
1702063414168015000,19.73601513671875,-0.5778930187225342,-5.159400939941406,2.222677230834961
1702063414185010000,19.753010009765624,0.9719099998474121,-5.573148250579834,2.6696271896362305
1702063414202000000,19.769999755859374,-0.2883434295654297,-5.569345474243164,3.0728750228881836
1702063414218999800,19.786999755859377,-1.3160178661346436,-5.146393775939941,2.8714847564697266
1702063414235989200,19.8039892578125,-1.637690782546997,-4.968662261962891,2.226567268371582
1702063414252984000,19.820984130859376,-1.6006035804748535,-4.979662895202637,1.629094123840332
1702063414269976600,19.8379765625,-1.5028212070465088,-5.175957679748535,1.132253646850586
1702063414286971400,19.854971435546876,-0.9388647079467773,-5.482823371887207,0.5710458755493164
1702063414303963400,19.87196337890625,-0.31047797203063965,-5.628080368041992,0.46945667266845703
1702063414320958200,19.888958251953124,0.3794097900390625,-5.484404563903809,0.22369670867919922
1702063414337950700,19.90595068359375,1.0086281299591064,-5.32302188873291,-0.4871797561645508
1702063414354945500,19.922945556640624,1.0688682794570923,-5.148698806762695,-0.9484548568725586
1702063414371937500,19.9399375,0.3818948268890381,-5.043706893920898,-0.9911642074584961
1702063414388932400,19.956932373046875,-0.12377071380615234,-5.026622295379639,-0.5688686370849609
1702063414405924900,19.9739248046875,-0.2946503162384033,-4.842128753662109,0.11812686920166016
1702063414422919700,19.990919677734375,-0.04811263084411621,-4.427106857299805,0.3756103515625
1702063414439916800,20.007916748046874,0.27058935165405273,-4.030242443084717,-0.05452919006347656
1702063414456904000,20.024904052734374,0.5132105350494385,-3.8337841033935547,-0.5499362945556641
1702063414473901600,20.041901611328125,0.42681026458740234,-3.6106648445129395,-1.111191749572754
1702063414490893800,20.058893798828127,0.25179576873779297,-3.4445719718933105,-1.503617286682129
1702063414507875800,20.075875732421874,0.3922760486602783,-3.352642059326172,-1.4138879776000977
1702063414524881700,20.092881591796875,0.6827491521835327,-3.076198101043701,-1.050445556640625
1702063414541872400,20.109872314453124,1.4171390533447266,-2.836599826812744,-0.8861684799194336
1702063414558868000,20.126867919921875,1.9813456535339355,-2.389833927154541,-1.197859764099121
1702063414575860000,20.14385986328125,1.8736530542373657,-1.884239673614502,-1.7181024551391602
1702063414592854800,20.160854736328126,1.1747077703475952,-1.3298909664154053,-2.1078109741210938
1702063414609847300,20.177847412109376,0.44215893745422363,-0.9161133766174316,-2.054424285888672
1702063414626842000,20.194842041015626,0.466045618057251,-0.6938233375549316,-1.676201343536377
1702063414643834400,20.21183447265625,1.460988998413086,-0.4932873249053955,-1.5169239044189453
1702063414660832800,20.228832763671875,2.8098816871643066,-0.3632049560546875,-1.301600456237793
1702063414677821400,20.245821533203124,3.7707605361938477,0.02920842170715332,-1.1200037002563477
1702063414694816300,20.262816162109374,3.968635082244873,0.5095682144165039,-1.1026172637939453
1702063414711808500,20.27980859375,3.466487169265747,1.0754549503326416,-1.0101165771484375
1702063414728803300,20.29680322265625,2.582794666290283,1.4791746139526367,-0.47926998138427734
1702063414745795600,20.313795654296875,2.3901376724243164,1.6626379489898682,0.3391838073730469
1702063414762791000,20.330791015625,2.7191643714904785,1.6447422504425049,1.1724414825439453
1702063414779783000,20.347782958984375,3.084054470062256,1.8806400299072266,1.6288557052612305
1702063414796777500,20.364777587890625,3.0530247688293457,2.3075239658355713,1.883399486541748
1702063414813769700,20.381769775390627,2.8339784145355225,2.6607041358947754,2.2962608337402344
1702063414830765000,20.39876513671875,2.9937334060668945,2.475870370864868,3.446176528930664
1702063414847756800,20.4157568359375,4.090289115905762,2.2626826763153076,4.476802349090576
1702063414864751600,20.432751708984377,5.173712253570557,2.0864458084106445,4.702986717224121
1702063414881744100,20.449744140625,5.1310834884643555,1.6115515232086182,4.164576530456543
1702063414898739000,20.466739013671877,4.555826187133789,1.890955924987793,2.916750431060791
1702063414915729000,20.48372900390625,3.6387956142425537,2.309345245361328,2.935394763946533
1702063414932728000,20.50072802734375,3.136514186859131,2.3808116912841797,4.660791873931885
1702063414949718300,20.51771826171875,2.7081642150878906,2.2485485076904297,6.399316310882568
1702063414966713000,20.534713134765624,2.3767337799072266,2.2366933822631836,6.837482452392578
1702063414983705000,20.551705078125,1.7820239067077637,2.498122453689575,5.813238143920898
1702063415000700000,20.568699951171876,0.977503776550293,1.8271472454071045,4.749688625335693
1702063415017692400,20.5856923828125,0.8029770851135254,0.9530208110809326,3.8363547325134277
1702063415034687500,20.6026875,1.312089443206787,0.3179032802581787,3.1012444496154785
1702063415051679200,20.61967919921875,1.814145565032959,-0.03196430206298828,2.9616408348083496
1702063415068674000,20.636674072265624,1.6206364631652832,0.18654751777648926,2.7564873695373535
1702063415085666600,20.65366650390625,0.8107309341430664,0.8000671863555908,2.4813475608825684
1702063415102661600,20.67066162109375,-0.19852018356323242,1.2501554489135742,1.8390917778015137
1702063415119650800,20.68765087890625,-0.3485269546508789,1.5603814125061035,1.638166904449463
1702063415136650800,20.704650634765624,0.5230278968811035,1.7271811962127686,2.0753273963928223
1702063415153640700,20.721640625,1.427687168121338,1.8342456817626953,2.853137969970703
1702063415170635500,20.738635498046875,1.6253104209899902,2.118664503097534,3.3456778526306152
1702063415187627800,20.755627685546877,1.1175107955932617,2.3472824096679688,3.0875043869018555
1702063415204622600,20.77262255859375,0.2839179039001465,2.5550618171691895,2.517214298248291
1702063415221614800,20.78961474609375,-0.2927083969116211,2.8128843307495117,2.285099983215332
1702063415238610000,20.80660986328125,-0.5551762580871582,2.818870782852173,2.771160125732422
1702063415255602000,20.823601806640625,-0.45543527603149414,2.7257070541381836,3.759084701538086
1702063415272596500,20.840596435546875,0.037201881408691406,2.629075527191162,4.4821906089782715
1702063415289589200,20.85758935546875,0.24777603149414062,2.633479118347168,4.773365020751953
1702063415306584000,20.874583984375,0.20337963104248047,2.6566171646118164,4.240160942077637
1702063415323575800,20.891575927734376,0.08807229995727539,2.7825558185577393,3.6037230491638184
1702063415340571000,20.90857080078125,0.060637474060058594,2.858449935913086,3.1668639183044434
1702063415357553000,20.925552978515626,0.45484304428100586,2.810096025466919,2.9558868408203125
1702063415374565400,20.9425654296875,1.1997404098510742,2.70628023147583,3.111264705657959
1702063415391552800,20.959552734375,1.9956927299499512,2.5746772289276123,3.540508270263672
1702063415408545000,20.976544921875,2.659419059753418,2.5680880546569824,3.4178342819213867
1702063415425534700,20.99353466796875,2.733511209487915,2.5358128547668457,2.8234872817993164
1702063415442535000,21.010534912109375,2.4376211166381836,2.53792405128479,2.1871776580810547
1702063415459513600,21.027513671875,2.0712313652038574,2.5642261505126953,1.7108449935913086
1702063415476519000,21.044518798828125,1.9450678825378418,2.4369044303894043,1.333970546722412
1702063415493511700,21.06151171875,2.100584030151367,2.202932119369507,1.2744832038879395
1702063415510506500,21.078506591796874,2.384538173675537,1.9231855869293213,1.4394893646240234
1702063415527498500,21.09549853515625,2.516292095184326,1.8092000484466553,1.1702880859375
1702063415544502800,21.112502685546875,1.99591064453125,1.7112990617752075,0.1088724136352539
1702063415561481200,21.129481201171874,1.593108892440796,1.63869309425354,-0.9708776473999023
1702063415578480600,21.146480712890625,1.4218699932098389,1.3994415998458862,-1.5864372253417969
1702063415595472600,21.16347265625,1.584586262702942,0.9819154739379883,-1.579596996307373
1702063415612467500,21.180467529296877,2.0498228073120117,0.40737175941467285,-0.9144153594970703
1702063415629460000,21.1974599609375,2.3028876781463623,0.022597312927246094,-0.568324089050293
1702063415646454800,21.214454833984377,1.9447157382965088,-0.17067933082580566,-0.9972629547119141
1702063415663446800,21.23144677734375,1.313306450843811,-0.35062241554260254,-1.6528024673461914
1702063415680441600,21.248441650390625,0.9472565650939941,-0.540152907371521,-2.0778112411499023
1702063415697434000,21.26543408203125,1.050398588180542,-0.8048802614212036,-2.069607734680176
1702063415714429000,21.282428955078124,1.4397599697113037,-1.2394866943359375,-1.3884496688842773
1702063415731421000,21.2994208984375,1.5358644723892212,-1.6086019277572632,-0.7876834869384766
1702063415748415700,21.316415771484376,1.2863248586654663,-1.9518673419952393,-0.8007497787475586
1702063415765398000,21.33339794921875,0.8622550964355469,-2.373452663421631,-0.9220151901245117
1702063415782403000,21.350403076171876,0.5384960174560547,-2.5582852363586426,-0.7994441986083984
1702063415799395300,21.367395263671874,0.4009523391723633,-2.7732295989990234,-0.5191936492919922
1702063415816390000,21.384389892578124,0.022047996520996094,-3.3231918811798096,-0.4568519592285156
1702063415833382400,21.40138232421875,-0.441143274307251,-3.981196880340576,-0.6289710998535156
1702063415850371300,21.418371337890626,0.5166354179382324,-4.4738030433654785,-0.22129154205322266
1702063415867369500,21.435369384765625,1.8698451519012451,-4.058897018432617,-0.04325389862060547
1702063415884364000,21.452364013671875,2.373232841491699,-3.8724913597106934,0.03136634826660156
1702063415901359400,21.469359375,2.1302242279052734,-4.246214866638184,0.13623428344726562
1702063415918348500,21.4863486328125,1.273058295249939,-4.497428894042969,0.0806875228881836
1702063415935343600,21.503343505859377,0.4690868854522705,-4.319330215454102,-0.0833740234375
1702063415952338400,21.52033837890625,-0.45470213890075684,-3.990596055984497,-0.206787109375
1702063415969330700,21.53733056640625,-1.7257840633392334,-4.049188613891602,-0.2059173583984375
1702063415986325500,21.554325439453127,-1.852545976638794,-4.916606426239014,0.687591552734375
