time,seconds_elapsed,z,y,x
1702061391784208400,0.15720849609375,-5.841830730438232,-2.5422630310058594,-0.35404306650161743
1702061391801203500,0.174203369140625,-7.133584499359131,-3.420199155807495,-0.7021657824516296
1702061391818211300,0.19121142578125,-7.065794944763184,-4.110904693603516,-0.8043357133865356
1702061391835178500,0.208178466796875,-5.436667442321777,-4.690119743347168,-0.825136661529541
1702061391852180700,0.2251806640625,-4.306163787841797,-5.184680461883545,-0.8310847282409668
1702061391869179600,0.2421796875,-4.027098655700684,-5.3404693603515625,-0.49601316452026367
1702061391886176800,0.2591767578125,-4.220392227172852,-5.265269756317139,0.4306659698486328
1702061391903170300,0.27617041015625,-4.443040370941162,-5.05903959274292,1.6183557510375977
1702061391920166400,0.29316650390625,-3.971163749694824,-4.529417514801025,2.386507511138916
1702061391937158700,0.31015869140625,-2.9805335998535156,-3.7801713943481445,2.9731650352478027
1702061391954146800,0.327146728515625,-2.7316389083862305,-3.0510947704315186,3.905848503112793
1702061391971143700,0.344143798828125,-2.9124724864959717,-2.6141562461853027,4.792555332183838
1702061391988138200,0.36113818359375,-2.6711084842681885,-2.246633291244507,4.9055023193359375
1702061392005129000,0.37812890625,-1.5385596752166748,-2.0315566062927246,4.227226257324219
1702061392022123800,0.395123779296875,-0.5871906280517578,-1.7935916185379028,3.173308849334717
1702061392039110400,0.4121103515625,-0.589357852935791,-1.7116814851760864,2.3002781867980957
1702061392056109300,0.429109375,-0.9545068740844727,-1.764615774154663,1.8097419738769531
1702061392073119500,0.446119384765625,-1.0526037216186523,-1.7771979570388794,1.64959716796875
1702061392090099200,0.46309912109375,-0.8423376083374023,-1.8377032279968262,1.657632827758789
1702061392107096000,0.480095947265625,-0.9197282791137695,-1.7834855318069458,1.4593820571899414
1702061392124095700,0.497095703125,-1.3208937644958496,-2.0110578536987305,1.5052509307861328
1702061392141081300,0.514081298828125,-1.2681899070739746,-2.087144136428833,1.1114683151245117
1702061392158076000,0.531075927734375,-0.7589688301086426,-2.0275468826293945,0.46355438232421875
1702061392175066600,0.548066650390625,-0.4051973819732666,-2.2808127403259277,0.19744873046875
1702061392192061700,0.565061767578125,-0.24028348922729492,-2.7869691848754883,0.6022071838378906
1702061392209058300,0.582058349609375,-0.7577023506164551,-3.848170280456543,1.4881439208984375
1702061392226047000,0.599046875,-1.3385891914367676,-4.907081127166748,1.7876520156860352
1702061392243044900,0.616044921875,-1.5116500854492188,-5.182363510131836,1.1541128158569336
1702061392260037000,0.633037109375,-1.4521381855010986,-4.809072494506836,0.27906131744384766
1702061392277033700,0.65003369140625,-1.6296980381011963,-4.60658597946167,0.08990192413330078
1702061392294022400,0.6670224609375,-1.8214585781097412,-4.825508117675781,0.2462024688720703
1702061392311019300,0.684019287109375,-1.240109920501709,-5.278139114379883,0.40201759338378906
1702061392328013300,0.701013427734375,-0.05018508434295654,-5.709227561950684,0.2990093231201172
1702061392345005000,0.718005126953125,0.5740973949432373,-6.146409034729004,0.054688453674316406
1702061392361992400,0.734992431640625,0.4156765937805176,-6.775634288787842,-0.05070304870605469
1702061392378996200,0.751996337890625,0.040879011154174805,-7.8353471755981445,0.2761659622192383
1702061392395985000,0.76898486328125,-0.030331134796142578,-8.28980827331543,0.30628108978271484
1702061392412972800,0.785972900390625,0.485439658164978,-8.321893692016602,0.3689756393432617
1702061392429964500,0.802964599609375,0.8054102659225464,-8.35999584197998,0.835850715637207
1702061392446961000,0.8199609375,0.5873477458953857,-8.831825256347656,1.7292356491088867
1702061392463961000,0.836961181640625,0.06082797050476074,-9.52431869506836,2.085665702819824
1702061392480957000,0.85395703125,-0.33318156003952026,-9.793720245361328,1.8053464889526367
1702061392497953500,0.87095361328125,-0.6103843450546265,-9.821220397949219,1.7710514068603516
1702061392514944000,0.887944091796875,-0.9826454520225525,-10.060586929321289,1.9030818939208984
1702061392531933700,0.90493359375,-1.0601840019226074,-11.029341697692871,2.3026866912841797
1702061392548935000,0.921934814453125,-0.02642679214477539,-11.522685050964355,2.4075660705566406
1702061392565923000,0.938923095703125,0.41807329654693604,-11.456094741821289,2.3337182998657227
1702061392582921000,0.9559208984375,-0.29442405700683594,-11.336212158203125,2.8992204666137695
1702061392599915800,0.972915771484375,-1.211676001548767,-11.185037612915039,3.716299057006836
1702061392616904400,0.989904541015625,-1.4985995292663574,-11.512042045593262,4.611615180969238
1702061392633900000,1.006900146484375,-0.8783761858940125,-12.086172103881836,4.937228202819824
1702061392650902500,1.023902587890625,0.2868620753288269,-12.17582893371582,4.180423736572266
1702061392667887900,1.040887939453125,0.9369255900382996,-12.359993934631348,3.0135574340820312
1702061392684882200,1.057882080078125,1.146479845046997,-12.406726837158203,1.9014387130737305
1702061392701873000,1.074872802734375,0.9858459234237671,-12.449097633361816,1.1224937438964844
1702061392718869200,1.091869140625,-0.1747290939092636,-12.916059494018555,1.0997343063354492
1702061392735861200,1.108861328125,-1.7784419059753418,-12.931890487670898,0.6578655242919922
1702061392752852200,1.125852294921875,-2.1809475421905518,-12.268207550048828,-0.12835025787353516
1702061392769852400,1.142852294921875,-1.205488681793213,-11.311186790466309,-0.6269264221191406
1702061392786844700,1.1598447265625,0.0013073086738586426,-11.054762840270996,-0.21247577667236328
1702061392803839700,1.17683984375,0.6999068856239319,-11.164449691772461,0.3898019790649414
1702061392820825000,1.1938251953125,0.7493114471435547,-11.230585098266602,0.41104984283447266
1702061392837827300,1.210827392578125,0.48026275634765625,-11.083263397216797,-0.21384334564208984
1702061392854811100,1.22781103515625,0.09673833847045898,-10.85550594329834,-0.9476461410522461
1702061392871813400,1.2448134765625,0.2997264862060547,-10.38355541229248,-1.4411077499389648
1702061392888809700,1.261809814453125,0.1141808032989502,-9.600667953491211,-1.9952831268310547
1702061392905791500,1.27879150390625,-0.15575885772705078,-9.018256187438965,-2.5438690185546875
1702061392922796500,1.295796630859375,-0.37664616107940674,-8.722479820251465,-2.693844795227051
1702061392939787500,1.31278759765625,-0.6578812599182129,-8.489323616027832,-2.727604866027832
1702061392956782300,1.3297822265625,-1.1725795269012451,-8.116043090820312,-2.9958724975585938
1702061392973766400,1.346766357421875,-1.887837290763855,-7.557574272155762,-3.4309301376342773
1702061392990771000,1.36377099609375,-1.9094092845916748,-7.159636497497559,-3.6412506103515625
1702061393007764500,1.380764404296875,-1.1273765563964844,-6.790285110473633,-3.5921430587768555
1702061393024757000,1.397757080078125,-0.5010635852813721,-6.137122631072998,-3.6075196266174316
1702061393041741000,1.414740966796875,-0.4385361671447754,-5.69033670425415,-3.5559844970703125
1702061393058747600,1.43174755859375,-0.6689252853393555,-5.479536533355713,-3.4299893379211426
1702061393075736600,1.448736572265625,-1.2233946323394775,-5.28471040725708,-3.5176095962524414
1702061393092734500,1.465734375,-1.7050284147262573,-5.028716087341309,-3.8487443923950195
1702061393109726500,1.4827265625,-1.867091178894043,-5.050316333770752,-3.867532730102539
1702061393126719500,1.499719482421875,-1.5676425695419312,-4.76995849609375,-3.720486640930176
1702061393143717400,1.51671728515625,-1.5227527618408203,-4.408336639404297,-3.3797225952148438
1702061393160695000,1.533695068359375,-1.6939550638198853,-4.419196605682373,-3.0007948875427246
1702061393177704400,1.550704345703125,-1.5724053382873535,-4.280489921569824,-3.023118019104004
1702061393194687200,1.567687255859375,-1.434049367904663,-3.9013009071350098,-3.1945037841796875
1702061393211679000,1.584678955078125,-1.4646508693695068,-3.6808576583862305,-2.9498777389526367
1702061393228684300,1.601684326171875,-1.299450397491455,-3.487484931945801,-2.345679759979248
1702061393245676000,1.618676025390625,-0.8895383477210999,-3.2582812309265137,-1.2819633483886719
1702061393262679300,1.63567919921875,-0.6682014465332031,-2.7829484939575195,-0.4832773208618164
1702061393279659000,1.652658935546875,-0.38172417879104614,-2.253464460372925,-0.10680675506591797
1702061393296656000,1.66965576171875,-0.1073523759841919,-1.8064699172973633,0.009646415710449219
1702061393313651700,1.686651611328125,-0.2667500972747803,-1.610750675201416,0.23136520385742188
1702061393330647800,1.703647705078125,-0.435968816280365,-1.6883738040924072,0.7099819183349609
1702061393347640600,1.720640625,-0.17466244101524353,-1.530496597290039,0.8000383377075195
1702061393364632000,1.737632080078125,0.009133666753768921,-1.3344130516052246,0.772273063659668
1702061393381627600,1.754627685546875,0.0012787282466888428,-0.9911069869995117,0.9027929306030273
1702061393398622700,1.771622802734375,0.08014063537120819,-0.5229310989379883,1.1558074951171875
1702061393415612400,1.7886123046875,-0.0708063393831253,-0.5304207801818848,1.9814262390136719
1702061393432610600,1.805610595703125,-0.5227455496788025,-0.6712098121643066,2.085908889770508
1702061393449603600,1.822603515625,-0.3788077235221863,-0.3808474540710449,1.3919248580932617
1702061393466594300,1.83959423828125,-0.26767221093177795,-0.29325342178344727,1.1229820251464844
1702061393483573000,1.856572998046875,-0.3116479814052582,-0.267641544342041,1.4606142044067383
1702061393500584400,1.87358447265625,-0.5067301392555237,-0.2459859848022461,1.9486379623413086
1702061393517571800,1.89057177734375,-0.7826417684555054,-0.2940506935119629,1.8499641418457031
1702061393534565000,1.907565185546875,-1.2222061157226562,0.06317281723022461,0.9165897369384766
1702061393551567600,1.924567626953125,-1.6066309213638306,0.49767065048217773,0.26476573944091797
1702061393568561400,1.9415615234375,-2.792668581008911,0.9391882419586182,1.1374168395996094
1702061393585550000,1.958550048828125,-3.7218329906463623,1.2863025665283203,1.440887451171875
1702061393602547500,1.97554736328125,-3.7299420833587646,1.4156222343444824,1.543787956237793
1702061393619541800,1.992541748046875,-3.2708029747009277,1.242602825164795,1.1850366592407227
1702061393636532500,2.009532470703125,-2.59344744682312,0.7818045616149902,0.6032218933105469
1702061393653528600,2.026528564453125,-1.8947761058807373,0.46974802017211914,0.13217639923095703
1702061393670522400,2.0435224609375,-1.5784672498703003,0.6933073997497559,0.28114795684814453
1702061393687516200,2.06051611328125,-2.4761359691619873,0.9240846633911133,1.4228630065917969
1702061393704501200,2.077501220703125,-4.019608020782471,0.6073751449584961,1.8591814041137695
1702061393721502700,2.094502685546875,-5.065540313720703,0.2564864158630371,1.1622505187988281
1702061393738489000,2.111489013671875,-5.398024082183838,-0.04688215255737305,0.1323070526123047
1702061393755488000,2.128488037109375,-4.770137786865234,-0.045273780822753906,-0.6871891021728516
1702061393772485000,2.145485107421875,-3.5847787857055664,0.14216279983520508,-0.9183425903320312
1702061393789479700,2.162479736328125,-2.7553675174713135,0.2041912078857422,-0.24141693115234375
1702061393806470400,2.179470458984375,-2.296088457107544,0.19828462600708008,1.0022506713867188
1702061393823466500,2.196466552734375,-1.7664532661437988,0.4468197822570801,1.7610788345336914
1702061393840460300,2.213460205078125,-1.223196268081665,0.6635074615478516,2.009249687194824
1702061393857454800,2.230454833984375,-0.9995160102844238,0.7500534057617188,1.7691307067871094
1702061393874445600,2.247445556640625,-0.935453474521637,0.6247057914733887,1.2662506103515625
1702061393891440600,2.264440673828125,-0.7333534359931946,0.29152774810791016,1.0025043487548828
1702061393908437200,2.281437255859375,-0.5307321548461914,-0.18581628799438477,1.3207120895385742
1702061393925423000,2.298423095703125,-0.372180700302124,-0.5463142395019531,1.6214590072631836
1702061393942415600,2.31541552734375,-0.291443407535553,-0.6372098922729492,1.2811460494995117
1702061393959417600,2.33241748046875,-0.22339123487472534,-0.6067280769348145,0.4795713424682617
1702061393976408000,2.349407958984375,-0.30200934410095215,-0.6961424350738525,-0.07007408142089844
1702061393993404400,2.366404296875,-0.494814395904541,-0.9186704158782959,-0.3765830993652344
1702061394010398200,2.383398193359375,-0.5445702075958252,-1.0531284809112549,-0.4823188781738281
1702061394027392800,2.400392822265625,-0.8810012340545654,-1.3001551628112793,-0.3564434051513672
1702061394044383500,2.417383544921875,-1.1955190896987915,-1.2842156887054443,-0.4640169143676758
1702061394061374700,2.434374755859375,-1.3410366773605347,-1.223496913909912,-0.6215581893920898
1702061394078378800,2.451378662109375,-1.4352678060531616,-1.3513286113739014,-0.7107086181640625
1702061394095363800,2.46836376953125,-1.4659613370895386,-1.7370045185089111,-0.5960245132446289
1702061394112361500,2.485361572265625,-1.9032288789749146,-2.2145438194274902,-0.5639791488647461
1702061394129345000,2.502344970703125,-2.399688243865967,-2.5757694244384766,-0.847346305847168
1702061394146346200,2.51934619140625,-2.34820556640625,-2.7797489166259766,-1.2072830200195312
1702061394163342000,2.536342041015625,-1.9610551595687866,-2.876824378967285,-1.280503273010254
1702061394180336000,2.553336181640625,-1.8594821691513062,-3.3244471549987793,-1.1304101943969727
1702061394197330400,2.570330322265625,-1.930055856704712,-4.037381172180176,-1.0109167098999023
1702061394214321200,2.587321044921875,-2.1636533737182617,-4.766014099121094,-1.329920768737793
1702061394231316500,2.60431640625,-2.434994697570801,-5.324826240539551,-1.7659072875976562
1702061394248312800,2.621312744140625,-2.700693130493164,-5.8535380363464355,-1.951164722442627
1702061394265301500,2.638301513671875,-3.279348850250244,-6.43073844909668,-1.903425693511963
1702061394282299000,2.655298828125,-3.5325045585632324,-6.794771194458008,-1.758946418762207
1702061394299291400,2.67229150390625,-3.5062108039855957,-6.750126361846924,-1.7563695907592773
1702061394316283400,2.689283447265625,-3.6284358501434326,-6.5255022048950195,-1.6208124160766602
1702061394333282600,2.706282470703125,-4.019840717315674,-6.284205913543701,-1.5937738418579102
1702061394350274000,2.723274169921875,-4.146364212036133,-6.187518119812012,-1.8874397277832031
1702061394367266000,2.74026611328125,-3.5823488235473633,-6.317093849182129,-2.2573490142822266
1702061394384262000,2.757261962890625,-2.174645185470581,-6.359311103820801,-2.4810380935668945
1702061394401252600,2.774252685546875,-1.0605673789978027,-6.406374454498291,-2.23929500579834
1702061394418252500,2.79125244140625,-1.0010509490966797,-6.83634090423584,-1.339451789855957
1702061394435238100,2.808238037109375,-1.2851611375808716,-7.1889190673828125,-1.1437511444091797
1702061394452238300,2.82523828125,-1.8246827125549316,-7.213932037353516,-1.7589035034179688
1702061394469231000,2.842231201171875,-2.3656485080718994,-7.164223670959473,-2.2013349533081055
1702061394486222000,2.85922216796875,-2.730461597442627,-7.121129989624023,-2.224843978881836
1702061394503218000,2.876218017578125,-2.8934123516082764,-7.332888126373291,-1.696272850036621
1702061394520213200,2.893213134765625,-2.7419841289520264,-7.6924333572387695,-0.7403955459594727
1702061394537208000,2.9102080078125,-2.363936185836792,-7.850593090057373,-0.14663410186767578
1702061394554199300,2.92719921875,-2.4219536781311035,-8.270500183105469,0.2290639877319336
1702061394571181800,2.944181884765625,-2.515202045440674,-8.401252746582031,-0.1666240692138672
1702061394588182000,2.96118212890625,-2.311854362487793,-8.555802345275879,-0.3318319320678711
1702061394605180400,2.978180419921875,-1.5942933559417725,-9.06134033203125,0.4035968780517578
1702061394622174700,2.9951748046875,-1.063238501548767,-9.608850479125977,1.4935150146484375
1702061394639171000,3.012171142578125,-1.3024839162826538,-10.260408401489258,1.8252620697021484
1702061394656163300,3.029163330078125,-1.289720892906189,-10.841570854187012,1.476675033569336
1702061394673156600,3.046156494140625,-1.2542941570281982,-10.631235122680664,0.3464212417602539
1702061394690139600,3.0631396484375,-0.9766173362731934,-10.536258697509766,-0.5775461196899414
1702061394707133200,3.08013330078125,-0.9402592182159424,-10.836332321166992,-0.018888473510742188
1702061394724136000,3.097135986328125,-1.4365218877792358,-11.589235305786133,1.85211181640625
1702061394741130000,3.1141298828125,-1.4106794595718384,-11.834799766540527,3.5708351135253906
1702061394758126600,3.131126708984375,-0.995323657989502,-12.015700340270996,4.785854339599609
1702061394775115800,3.14811572265625,-1.3388230800628662,-11.99094009399414,4.971443176269531
1702061394792113400,3.165113525390625,-1.8669776916503906,-11.63891887664795,3.421511650085449
1702061394809104000,3.182103759765625,-2.1067798137664795,-11.42137336730957,1.6801080703735352
1702061394826103600,3.199103515625,-2.1624183654785156,-11.135896682739258,0.8116836547851562
1702061394843094300,3.21609423828125,-1.9373530149459839,-11.056167602539062,0.8965253829956055
1702061394860088800,3.2330888671875,-2.206728935241699,-11.115684509277344,1.2097387313842773
1702061394877069800,3.25006982421875,-2.622013568878174,-11.140264511108398,1.2402706146240234
1702061394894068000,3.26706787109375,-2.4883480072021484,-10.884065628051758,0.5959377288818359
1702061394911069700,3.284069580078125,-1.8291144371032715,-10.790631294250488,-0.20094013214111328
1702061394928063200,3.301063232421875,-1.238921880722046,-10.575640678405762,-0.7268810272216797
1702061394945056800,3.318056884765625,-1.3047552108764648,-10.372565269470215,-0.830988883972168
1702061394962051600,3.335051513671875,-1.8004655838012695,-10.24445629119873,-0.7248468399047852
1702061394979044000,3.352044189453125,-2.0419464111328125,-9.997126579284668,-0.7485723495483398
1702061394996039000,3.369038818359375,-2.1353607177734375,-9.682223320007324,-1.2306089401245117
1702061395013032000,3.386031982421875,-1.8006070852279663,-9.290290832519531,-2.0889272689819336
1702061395030026800,3.40302685546875,-1.3061814308166504,-8.866787910461426,-2.7074594497680664
1702061395047019500,3.42001953125,-1.0529797077178955,-8.382911682128906,-2.855611801147461
1702061395064011500,3.437011474609375,-1.3438208103179932,-7.949647903442383,-2.3558130264282227
1702061395081009700,3.454009765625,-2.2740511894226074,-7.702337265014648,-1.649606704711914
1702061395098004200,3.471004150390625,-3.2643227577209473,-7.368607521057129,-1.2730913162231445
1702061395114992000,3.4879921875,-3.902674674987793,-6.849732398986816,-1.674229621887207
1702061395131989200,3.5049892578125,-3.8351528644561768,-6.437814235687256,-2.1511802673339844
1702061395148982000,3.52198193359375,-3.126862049102783,-5.865850448608398,-2.323826789855957
1702061395165976800,3.538976806640625,-2.631258010864258,-5.480088233947754,-1.7617816925048828
1702061395182968600,3.555968505859375,-2.3126068115234375,-5.149708271026611,-0.9007387161254883
1702061395199965700,3.572965576171875,-2.2289905548095703,-4.704917907714844,-0.5570383071899414
1702061395216957200,3.589957275390625,-2.1332273483276367,-4.275055885314941,-1.0332002639770508
1702061395233952300,3.6069521484375,-2.082982063293457,-3.8903918266296387,-1.8881492614746094
1702061395250944800,3.62394482421875,-1.9391064643859863,-3.566946029663086,-2.463632583618164
1702061395267939600,3.640939697265625,-1.8861126899719238,-3.544424057006836,-2.145777702331543
1702061395284929800,3.6579296875,-2.051652669906616,-3.5562520027160645,-1.159907341003418
1702061395301930000,3.674929931640625,-2.1687138080596924,-3.3933258056640625,-0.8212871551513672
1702061395318920000,3.691919921875,-2.0247018337249756,-2.873211145401001,-1.2178564071655273
1702061395335914800,3.708914794921875,-1.3534386157989502,-2.2655587196350098,-1.640406608581543
1702061395352903700,3.725903564453125,-0.9249496459960938,-2.1699776649475098,-1.3986549377441406
1702061395369906200,3.74290625,-0.8711355924606323,-2.279031753540039,-0.6971759796142578
1702061395386887200,3.75988720703125,-0.7089334726333618,-1.910630464553833,-0.19359970092773438
1702061395403887400,3.776887451171875,-0.13322961330413818,-1.4633748531341553,0.21749210357666016
1702061395420885200,3.79388525390625,0.2684180736541748,-0.9544203281402588,0.165863037109375
1702061395437877800,3.810877685546875,0.3780292272567749,-0.5120470523834229,-0.33379173278808594
1702061395454870300,3.827870361328125,0.7294601798057556,-0.14742326736450195,-1.0739507675170898
1702061395471865000,3.844864990234375,1.0147557258605957,0.0342562198638916,-1.508951187133789
1702061395488856600,3.861856689453125,0.9966524243354797,-0.13208889961242676,-0.8025665283203125
1702061395505854200,3.878854248046875,0.21557331085205078,-0.17973613739013672,0.17206573486328125
1702061395522845700,3.895845703125,-0.38388410210609436,0.035153865814208984,0.47728729248046875
1702061395539829800,3.912829833984375,0.18625660240650177,0.46220874786376953,0.2183065414428711
1702061395556833300,3.929833251953125,1.1553808450698853,0.7080721855163574,0.09607410430908203
1702061395573827800,3.946827880859375,1.6577489376068115,0.4771995544433594,0.6073265075683594
1702061395590820600,3.963820556640625,1.4962213039398193,0.23019695281982422,1.7036399841308594
1702061395607815700,3.980815673828125,0.5518718361854553,0.3233966827392578,2.9730968475341797
1702061395624808200,3.99780810546875,-0.1896575689315796,0.6022133827209473,3.024341583251953
1702061395641803000,4.014802978515625,-0.841335117816925,0.8275222778320312,2.32277774810791
1702061395658795800,4.031795654296875,-1.2035865783691406,0.660855770111084,1.7683610916137695
1702061395675790600,4.04879052734375,-1.594734787940979,-0.10872697830200195,1.7174673080444336
1702061395692783400,4.065783447265625,-1.7951083183288574,-0.4777717590332031,1.020939826965332
1702061395709778200,4.082778076171875,-1.8067013025283813,-0.1352381706237793,0.17056751251220703
1702061395726768400,4.099768310546875,-1.68257737159729,0.17649078369140625,-0.10964584350585938
1702061395743768600,4.1167685546875,-1.7729718685150146,0.21279525756835938,0.21194171905517578
1702061395760767200,4.133767333984375,-2.0307278633117676,0.5117878913879395,0.5159683227539062
1702061395777753300,4.15075341796875,-2.790001153945923,0.28520822525024414,0.5570869445800781
1702061395794746400,4.167746337890625,-3.458829164505005,0.29184913635253906,-0.08474540710449219
1702061395811741000,4.184740966796875,-3.9816160202026367,0.38271474838256836,-0.33305931091308594
1702061395828733700,4.201733642578125,-4.186763763427734,0.2180938720703125,0.6108627319335938
1702061395845728800,4.218728759765625,-4.052842617034912,0.13991069793701172,1.9852962493896484
1702061395862721300,4.23572119140625,-3.807992458343506,0.2288222312927246,2.8154754638671875
1702061395879716000,4.252716064453125,-3.3675692081451416,0.5068998336791992,2.6664085388183594
1702061395896708900,4.269708984375,-2.989666223526001,0.638035774230957,1.9720449447631836
1702061395913689000,4.286689208984375,-2.7322499752044678,0.5555047988891602,1.6459589004516602
1702061395930696700,4.30369677734375,-2.4236202239990234,0.45624494552612305,1.8246879577636719
1702061395947696000,4.320696044921875,-2.1582882404327393,0.5336651802062988,2.1286001205444336
1702061395964684000,4.33768408203125,-1.8764170408248901,0.6513681411743164,2.2042055130004883
1702061395981678800,4.354678955078125,-1.4161981344223022,0.6888399124145508,2.016913414001465
1702061395998671600,4.371671630859375,-0.977590799331665,0.5853424072265625,1.6079082489013672
1702061396015666400,4.38866650390625,-0.7684382200241089,0.4194679260253906,0.9764804840087891
1702061396032659200,4.4056591796875,-0.7201971411705017,0.3174128532409668,0.3899040222167969
1702061396049655600,4.422655517578125,-1.0481774806976318,0.044229984283447266,0.32054901123046875
1702061396066645500,4.4396455078125,-1.1911184787750244,-0.09199810028076172,0.40795040130615234
1702061396083641600,4.4566416015625,-0.9235318899154663,-0.1780261993408203,0.32597827911376953
1702061396100637400,4.473637451171875,-0.3695876896381378,-0.2520768642425537,0.0688934326171875
1702061396117626000,4.490626220703125,-0.05595582723617554,-0.30631422996520996,-0.2526054382324219
1702061396134622000,4.5076220703125,0.13125264644622803,-0.29836297035217285,-0.5741653442382812
1702061396151616800,4.52461669921875,0.008373737335205078,-0.47017693519592285,-0.6305732727050781
1702061396168609500,4.541609619140625,-0.5258539319038391,-0.7652580738067627,-0.4725780487060547
1702061396185594000,4.558593994140625,-0.8711380958557129,-1.0011885166168213,-0.5900993347167969
1702061396202597000,4.57559716796875,-1.1249337196350098,-1.1918351650238037,-0.8847827911376953
1702061396219592000,4.592592041015625,-1.053449034690857,-1.3707287311553955,-1.0323734283447266
1702061396236582100,4.60958203125,-0.8692502975463867,-1.4314186573028564,-1.153895378112793
1702061396253581800,4.626581787109375,-1.029563546180725,-1.7577614784240723,-1.1954011917114258
1702061396270572300,4.643572265625,-1.6811816692352295,-2.2085254192352295,-1.4424362182617188
1702061396287567000,4.660567138671875,-2.4101877212524414,-2.68734073638916,-1.7343025207519531
1702061396304551000,4.677551025390625,-2.6060972213745117,-2.9924826622009277,-1.8752098083496094
1702061396321554700,4.6945546875,-1.955439805984497,-2.7209768295288086,-2.225649833679199
1702061396338537000,4.711536865234375,-1.3230634927749634,-2.3941283226013184,-2.4634084701538086
1702061396355542300,4.728542236328125,-1.0761876106262207,-2.5140557289123535,-2.4856204986572266
1702061396372524800,4.74552490234375,-1.3335528373718262,-3.091881275177002,-2.628716468811035
1702061396389528600,4.762528564453125,-1.6353224515914917,-3.4951376914978027,-2.693728446960449
1702061396406524200,4.779524169921875,-1.5843217372894287,-3.8570008277893066,-2.654542922973633
1702061396423527700,4.796527587890625,-1.3299843072891235,-4.196982383728027,-2.464627265930176
1702061396440510200,4.81351025390625,-1.0138866901397705,-4.4551615715026855,-2.1631317138671875
1702061396457505000,4.830505126953125,-0.8735921382904053,-4.857847690582275,-1.8175296783447266
1702061396474492000,4.847491943359375,-0.7110066413879395,-5.220535755157471,-1.7015371322631836
1702061396491492400,4.864492431640625,-0.5283768177032471,-5.41909646987915,-1.9707717895507812
1702061396508484600,4.881484619140625,-0.47328901290893555,-5.753536224365234,-2.091118335723877
1702061396525481000,4.89848095703125,-0.6971640586853027,-6.126254081726074,-1.9217205047607422
1702061396542473000,4.915472900390625,-0.8393343687057495,-6.49078369140625,-1.788752555847168
1702061396559467800,4.9324677734375,-0.8107919692993164,-6.944267272949219,-1.5822267532348633
1702061396576460500,4.94946044921875,-0.8477306365966797,-7.672783374786377,-1.1505622863769531
1702061396593436700,4.966436767578125,-1.1248788833618164,-8.659865379333496,-0.6572332382202148
1702061396610448100,4.9834482421875,-1.1659785509109497,-9.490531921386719,-0.26853179931640625
1702061396627442700,5.000442626953125,-1.6955839395523071,-9.465147018432617,-0.45986080169677734
1702061396644435500,5.017435546875,-2.2605693340301514,-9.307586669921875,-0.45671939849853516
1702061396661430500,5.034430419921875,-2.798612594604492,-9.452859878540039,0.08923149108886719
1702061396678420200,5.051420166015625,-3.0357918739318848,-9.510540008544922,0.8872461318969727
1702061396695421000,5.0684208984375,-2.834231376647949,-9.619938850402832,2.043135643005371
1702061396712411000,5.085410888671875,-2.5395801067352295,-9.992925643920898,2.7233972549438477
1702061396729395000,5.10239501953125,-1.9082392454147339,-10.481955528259277,2.720696449279785
1702061396746398500,5.1193984375,-1.1967140436172485,-11.106700897216797,2.3998146057128906
1702061396763393000,5.13639306640625,-0.575130820274353,-11.120684623718262,1.5744972229003906
1702061396780386000,5.153385986328125,-0.23105072975158691,-10.626851081848145,0.42156410217285156
1702061396797382400,5.17038232421875,-0.705720067024231,-10.272353172302246,0.25730228424072266
1702061396814375400,5.18737548828125,-1.9647353887557983,-10.2100191116333,1.5370569229125977
1702061396831368200,5.2043681640625,-3.423076868057251,-9.938841819763184,2.7335405349731445
1702061396848359000,5.22135888671875,-4.277841567993164,-9.486709594726562,3.1545238494873047
1702061396865358300,5.2383583984375,-4.605566024780273,-9.06930160522461,3.350992202758789
1702061396882348500,5.2553486328125,-4.110021591186523,-8.955849647521973,3.6331539154052734
1702061396899343600,5.272343505859375,-3.533600091934204,-9.058110237121582,3.5190420150756836
1702061396916336000,5.289336181640625,-3.2151060104370117,-9.246335983276367,3.2186880111694336
1702061396933328100,5.306328125,-3.4064531326293945,-9.359646797180176,2.6250686645507812
1702061396950314500,5.323314453125,-3.4393584728240967,-9.429743766784668,1.6648015975952148
1702061396967318500,5.340318603515625,-3.380063056945801,-9.241325378417969,0.5310964584350586
1702061396984311300,5.357311279296875,-3.2093427181243896,-9.10875129699707,-0.14708709716796875
1702061397001304300,5.37430419921875,-3.123694896697998,-9.225059509277344,-0.39980602264404297
1702061397018289200,5.3912890625,-3.0726728439331055,-9.31180477142334,-0.6548175811767578
1702061397035293700,5.408293701171875,-2.978379487991333,-9.218643188476562,-0.9487667083740234
1702061397052286500,5.425286376953125,-2.5361897945404053,-8.847752571105957,-1.3199644088745117
1702061397069281500,5.442281494140625,-2.0875301361083984,-8.52072811126709,-1.4593734741210938
1702061397086274000,5.459274169921875,-1.8644624948501587,-8.224818229675293,-1.456808090209961
1702061397103266300,5.476266357421875,-2.134328603744507,-8.156848907470703,-1.304987907409668
1702061397120253700,5.493253662109375,-2.425060272216797,-8.037001609802246,-1.277724266052246
1702061397137256700,5.510256591796875,-2.6028263568878174,-7.970529079437256,-1.360459327697754
1702061397154249200,5.527249267578125,-2.264498710632324,-7.694035053253174,-1.6479825973510742
1702061397171244000,5.544244140625,-1.9460524320602417,-7.0722246170043945,-1.9859399795532227
1702061397188236800,5.56123681640625,-1.7626793384552002,-6.686593532562256,-2.032949447631836
1702061397205231900,5.57823193359375,-1.666001558303833,-6.449524402618408,-2.09553861618042
1702061397222224400,5.595224365234375,-1.3993504047393799,-6.1024298667907715,-2.1394872665405273
1702061397239219200,5.61221923828125,-1.1058504581451416,-5.74979305267334,-2.181274890899658
1702061397256214300,5.62921435546875,-1.1177468299865723,-5.313940525054932,-2.343202590942383
1702061397273204700,5.646204833984375,-1.15106201171875,-4.890992164611816,-2.6261472702026367
1702061397290199600,5.663199462890625,-1.2099125385284424,-4.407960891723633,-2.80612850189209
1702061397307194600,5.680194580078125,-1.312418818473816,-3.9066696166992188,-2.890096664428711
1702061397324187100,5.697187255859375,-1.4613873958587646,-3.6211962699890137,-2.5424327850341797
1702061397341182000,5.714181884765625,-1.5149741172790527,-3.262031078338623,-2.027585029602051
1702061397358174700,5.7311748046875,-1.7258644104003906,-2.7758967876434326,-1.503366470336914
1702061397375169500,5.74816943359375,-1.9597498178482056,-2.176403522491455,-1.0385770797729492
1702061397392162300,5.765162353515625,-1.9514070749282837,-1.6785767078399658,-0.8118505477905273
1702061397409157400,5.782157470703125,-1.814749836921692,-1.524482250213623,-0.7757654190063477
1702061397426150000,5.79914990234375,-1.2608628273010254,-1.5230433940887451,-0.8960561752319336
1702061397443144700,5.816144775390625,-0.5688754320144653,-1.236588716506958,-0.925013542175293
1702061397460133400,5.83313330078125,-0.3392489552497864,-0.7845911979675293,-0.5385313034057617
1702061397477132300,5.85013232421875,-0.4424176812171936,-0.32564306259155273,0.0856924057006836
1702061397494125000,5.867125,-0.4599961042404175,-0.1952190399169922,0.6799116134643555
1702061397511111400,5.884111328125,-0.5652573108673096,-0.330791711807251,0.8287925720214844
1702061397528112600,5.901112548828125,-0.5981283187866211,-0.33705949783325195,0.17248153686523438
1702061397545107500,5.918107421875,-0.31807267665863037,-0.12466144561767578,-0.4939413070678711
1702061397562100200,5.935100341796875,0.45407533645629883,-0.019253969192504883,-0.20418167114257812
1702061397579095000,5.952094970703125,1.1307642459869385,0.2013087272644043,0.7093982696533203
1702061397596087800,5.969087890625,1.5595779418945312,0.3728506565093994,1.231429100036621
1702061397613082600,5.98608251953125,1.791491985321045,0.2693014144897461,1.1099538803100586
1702061397630078700,6.00307861328125,2.0101709365844727,0.14142537117004395,0.20066165924072266
1702061397647067000,6.02006689453125,2.2282333374023438,0.24654221534729004,-0.8989191055297852
1702061397664063000,6.03706298828125,1.8652169704437256,0.4635274410247803,-1.0202617645263672
1702061397681058300,6.054058349609375,0.9787508249282837,0.4857914447784424,0.060276031494140625
1702061397698050600,6.071050537109375,-0.05337810516357422,0.4331083297729492,1.077066421508789
1702061397715045400,6.08804541015625,-0.8633018732070923,0.0331118106842041,1.6247320175170898
1702061397732038100,6.1050380859375,-1.0241601467132568,-0.10384035110473633,0.8766679763793945
1702061397749033700,6.12203369140625,-0.7984760999679565,-0.07275176048278809,0.044643402099609375
1702061397766028300,6.1390283203125,-0.4530982971191406,0.43810343742370605,1.4932031631469727
1702061397783024400,6.1560244140625,-0.8347189426422119,0.6579020023345947,0.4890708923339844
1702061397800007700,6.173007568359375,-1.2062819004058838,0.8230781555175781,1.6941232681274414
1702061397817010700,6.1900107421875,-2.3837742805480957,0.7687253952026367,2.807016372680664
1702061397834001000,6.2070009765625,-3.1992247104644775,0.33156800270080566,3.3668556213378906
1702061397850995700,6.22399560546875,-3.0536327362060547,0.3568553924560547,3.1226816177368164
1702061397867988500,6.240988525390625,-2.291541576385498,0.8517632484436035,1.5965576171875
1702061397884983300,6.2579833984375,-1.4829051494598389,1.1875255107879639,0.07864952087402344
1702061397901980000,6.27497998046875,-0.7635071277618408,1.2064480781555176,-0.5944929122924805
1702061397918980600,6.291980712890625,-0.39789092540740967,1.0756185054779053,-0.5473470687866211
1702061397935963600,6.308963623046875,-0.0729990005493164,0.7657992839813232,0.4215087890625
1702061397952958500,6.32595849609375,-0.13371944427490234,0.4893300533294678,1.2808103561401367
1702061397969951200,6.342951171875,-0.5421382188796997,0.28301429748535156,1.1406402587890625
1702061397986946000,6.359946044921875,-3.427776336669922,-0.37000083923339844,0.33981895446777344
1702061398003938600,6.3769384765625,-1.2066445350646973,0.7240300178527832,0.03767871856689453
1702061398020933600,6.39393359375,-0.7726519107818604,-0.23517084121704102,-0.029575347900390625
1702061398037927700,6.410927734375,-1.0258890390396118,-0.31971049308776855,0.9708137512207031
1702061398054921000,6.4279208984375,-0.5735726356506348,0.14197731018066406,1.789224624633789
1702061398071915800,6.444915771484375,-0.7361922264099121,0.24892640113830566,2.069859504699707
1702061398088911600,6.46191162109375,-1.0101232528686523,0.41102004051208496,1.5491657257080078
1702061398105901800,6.47890185546875,-1.2101948261260986,0.6659953594207764,0.7300605773925781
1702061398122896100,6.495896240234375,-1.3034052848815918,0.7090308666229248,0.11807918548583984
1702061398139889200,6.51288916015625,-1.1190184354782104,0.529334306716919,0.026432037353515625
1702061398156883700,6.5298837890625,-0.7885847091674805,0.3124072551727295,0.5985479354858398
1702061398173865700,6.54686572265625,-0.4409644603729248,0.19095301628112793,0.9157047271728516
1702061398190871600,6.56387158203125,0.0873180627822876,0.14509940147399902,0.5610389709472656
1702061398207864300,6.5808642578125,0.5631225109100342,0.1341402530670166,-0.1509866714477539
1702061398224859100,6.597859130859375,0.8237698078155518,-0.08788013458251953,-0.7408113479614258
1702061398241852000,6.614851806640625,0.6741534471511841,-0.4093596935272217,-0.922307014465332
1702061398258846500,6.631846435546875,0.4729667007923126,-0.6557481288909912,-0.8138141632080078
1702061398275839200,6.648839111328125,0.7891918420791626,-0.6222567558288574,-0.4797811508178711
1702061398292823600,6.665823486328125,1.1232960224151611,-0.6315268278121948,-0.06605815887451172
1702061398309816600,6.682816650390625,1.2359318733215332,-0.7820515632629395,-0.05601978302001953
1702061398326821600,6.699821533203125,0.9646480083465576,-1.1227169036865234,-0.4271879196166992
1702061398343814700,6.716814697265625,0.8329663276672363,-1.429064154624939,-0.8539009094238281
1702061398360809200,6.733809326171875,0.44915109872817993,-1.7794069051742554,-1.1807289123535156
1702061398377802000,6.750802001953125,0.0016166865825653076,-2.0676450729370117,-1.2384958267211914
1702061398394796800,6.767796875,-0.3664148151874542,-2.358355760574341,-0.8916482925415039
1702061398411783000,6.784782958984375,-0.6604334712028503,-2.667428493499756,-0.8029079437255859
1702061398428784400,6.801784423828125,-0.5425596237182617,-2.9433419704437256,-1.027165412902832
1702061398445777200,6.818777099609375,-0.16910797357559204,-3.3157947063446045,-1.419327735900879
1702061398462772000,6.83577197265625,0.14277702569961548,-3.7878217697143555,-1.8738374710083008
1702061398479764700,6.8527646484375,-0.02783036231994629,-4.212939262390137,-2.0809946060180664
1702061398496759600,6.869759521484375,-0.4489462673664093,-4.483631610870361,-1.6051864624023438
1702061398513752600,6.886752685546875,-1.2697088718414307,-4.592681407928467,-0.8959150314331055
1702061398530739700,6.90373974609375,-1.6353992223739624,-4.971158027648926,-0.5772237777709961
1702061398547742700,6.92074267578125,-1.4010429382324219,-5.441553115844727,-1.0307178497314453
1702061398564734700,6.937734619140625,-0.8422749042510986,-5.699397087097168,-1.9291744232177734
1702061398581727500,6.9547275390625,-0.2990955710411072,-5.99346923828125,-2.4702816009521484
1702061398598712000,6.971712158203125,-0.3486675024032593,-6.357145309448242,-2.4900684356689453
1702061398615715000,6.988715087890625,-0.4558716416358948,-6.625779151916504,-1.7587928771972656
1702061398632707300,7.005707275390625,-0.5664269924163818,-6.863239288330078,-1.1221132278442383
1702061398649705200,7.022705322265625,-0.19722586870193481,-7.311591148376465,-1.2400312423706055
1702061398666697500,7.039697509765625,0.8031922578811646,-8.007110595703125,-1.5809412002563477
1702061398683690200,7.056690185546875,2.0363874435424805,-8.467378616333008,-1.6048507690429688
1702061398700685300,7.073685302734375,1.8337483406066895,-8.54601764678955,-1.0531864166259766
1702061398717677800,7.090677734375,0.33766889572143555,-8.796629905700684,-0.2026510238647461
1702061398734672600,7.107672607421875,-1.5556650161743164,-9.276639938354492,0.0922079086303711
1702061398751665400,7.12466552734375,-3.0617213249206543,-9.66973876953125,0.06369972229003906
1702061398768660200,7.14166015625,-3.487671136856079,-9.858175277709961,0.5445947647094727
1702061398785653000,7.158653076171875,-2.363043785095215,-9.840757369995117,1.4220600128173828
1702061398802645000,7.17564501953125,-1.3357033729553223,-9.911483764648438,2.124042510986328
1702061398819643100,7.19264306640625,-1.4244475364685059,-10.208113670349121,3.21199893951416
1702061398836635400,7.209635498046875,-1.607832908630371,-10.467696189880371,3.8522777557373047
1702061398853628200,7.226628173828125,-0.34966570138931274,-10.20319652557373,3.291318893432617
1702061398870620200,7.2436201171875,1.9651834964752197,-9.520389556884766,3.1354618072509766
1702061398887618300,7.260618408203125,3.0714077949523926,-9.660054206848145,4.6709747314453125
1702061398904610600,7.277610595703125,2.1868302822113037,-11.220211029052734,5.901273727416992
1702061398921603300,7.294603271484375,0.3319636881351471,-11.25511646270752,4.239794731140137
1702061398938598000,7.311597900390625,-1.3261312246322632,-10.141495704650879,1.9775762557983398
1702061398955591200,7.328591064453125,-2.325573444366455,-9.616562843322754,1.0263080596923828
1702061398972585500,7.34558544921875,-2.3214688301086426,-9.262392044067383,1.3818550109863281
1702061398989578500,7.36257861328125,-1.5579261779785156,-8.953866004943848,1.9999237060546875
1702061399006573300,7.3795732421875,-0.6423602104187012,-8.842044830322266,2.1408605575561523
1702061399023565800,7.39656591796875,-0.22872480750083923,-9.1124267578125,2.287759780883789
1702061399040562400,7.4135625,-0.6082191467285156,-9.130199432373047,1.497894287109375
1702061399057551600,7.430551513671875,-0.693229079246521,-8.852960586547852,-0.06696701049804688
1702061399074548200,7.44754833984375,-0.0444013737142086,-8.40385627746582,-1.2475976943969727
1702061399091541000,7.464541015625,0.866163432598114,-8.1160306930542,-1.4388914108276367
1702061399108536000,7.4815361328125,1.3360040187835693,-7.893229007720947,-0.6126422882080078
1702061399125528600,7.498528564453125,1.2792932987213135,-7.871641635894775,0.3449583053588867
1702061399142523600,7.515523681640625,0.7313101887702942,-7.776057243347168,0.22574806213378906
1702061399159516400,7.532516357421875,0.18513911962509155,-7.676650047302246,-0.7508211135864258
1702061399176511000,7.549510986328125,-0.3353959321975708,-7.4623026847839355,-1.900522232055664
1702061399193503700,7.566503662109375,-0.24973738193511963,-7.192418098449707,-2.5620317459106445
1702061399210494500,7.583494384765625,-0.03427910804748535,-7.109663009643555,-2.416863441467285
1702061399227491300,7.6004912109375,-0.21715128421783447,-6.98629093170166,-1.8168582916259766
1702061399244486100,7.617486083984375,-0.763993501663208,-6.663321495056152,-1.164137840270996
1702061399261479000,7.63447900390625,-0.946874737739563,-6.259312152862549,-1.2466535568237305
1702061399278473500,7.651473388671875,-0.6206046342849731,-5.86515998840332,-2.0495591163635254
1702061399295466500,7.668466552734375,-0.34927594661712646,-5.582897186279297,-2.618985176086426
1702061399312461300,7.68546142578125,-0.21168887615203857,-5.3989434242248535,-2.7434229850769043
1702061399329454000,7.7024541015625,-0.2809317111968994,-5.276760578155518,-2.6018848419189453
1702061399346449000,7.719448974609375,-0.5009098052978516,-5.0099687576293945,-2.3098602294921875
1702061399363441700,7.736441650390625,-0.9542315006256104,-4.557847499847412,-1.605360984802246
1702061399380436500,7.7534365234375,-1.176472544670105,-3.9581246376037598,-1.5224313735961914
1702061399397429200,7.77042919921875,-1.0034176111221313,-3.379833698272705,-2.1743640899658203
1702061399414414000,7.7874140625,-0.7326765060424805,-2.9620156288146973,-2.908395767211914
1702061399431415800,7.804415771484375,-0.36917901039123535,-2.6388633251190186,-3.2057294845581055
1702061399448411600,7.82141162109375,-0.09985464811325073,-2.3406076431274414,-2.5663986206054688
1702061399465404400,7.838404296875,-0.19771814346313477,-1.9770257472991943,-1.3403348922729492
1702061399482399000,7.85539892578125,-0.21789854764938354,-1.5381728410720825,-0.7988252639770508
1702061399499392000,7.87239208984375,0.05521777272224426,-1.0941600799560547,-1.1942148208618164
1702061399516386800,7.88938671875,0.7815966606140137,-0.8421642780303955,-1.6488990783691406
1702061399533379600,7.906379638671875,1.4165730476379395,-0.9482841491699219,-1.532663345336914
1702061399550374400,7.92337451171875,1.4650328159332275,-0.8439168930053711,-0.7015857696533203
1702061399567367000,7.940366943359375,1.0162467956542969,-0.5138394832611084,0.7283964157104492
1702061399584361700,7.95736181640625,0.6377534866333008,-0.011707782745361328,1.3976993560791016
1702061399601352000,7.97435205078125,0.7510662078857422,0.30922722816467285,0.9843721389770508
1702061399618355000,7.99135498046875,1.2434054613113403,0.5894448757171631,0.5306034088134766
1702061399635339500,8.008339599609375,1.7787672281265259,1.3083189725875854,0.4505424499511719
1702061399652337000,8.0253369140625,1.4719467163085938,1.859968900680542,1.0607147216796875
1702061399669330000,8.042329833984375,0.4882158041000366,1.9681553840637207,1.620133399963379
1702061399686324500,8.059324462890626,-0.30568718910217285,2.0388054847717285,2.0673046112060547
1702061399703317200,8.076317138671875,-0.2104116678237915,2.2956109046936035,2.4119691848754883
1702061399720312300,8.093312255859376,0.5035405158996582,2.454296350479126,2.40847110748291
1702061399737305000,8.11030517578125,1.1669788360595703,2.1033570766448975,2.4527969360351562
1702061399754299600,8.127299560546875,1.4875800609588623,1.6078133583068848,2.071953773498535
1702061399771292400,8.14429248046875,1.4665396213531494,1.1734167337417603,1.305098533630371
1702061399788285400,8.161285400390625,1.17532479763031,0.7875715494155884,0.8760442733764648
1702061399805282000,8.178281982421876,0.413360595703125,0.44539403915405273,1.1612529754638672
1702061399822274800,8.19527490234375,-0.9287467002868652,0.2299506664276123,1.5251541137695312
1702061399839267300,8.212267333984375,-2.012272596359253,0.4372069835662842,0.9056072235107422
1702061399856262400,8.229262451171875,-2.505560874938965,0.6394174098968506,-0.07945728302001953
1702061399873255200,8.246255126953125,-2.1913444995880127,0.5170814990997314,-0.6257810592651367
1702061399890250000,8.26325,-1.0346713066101074,-0.1554553508758545,1.0111513137817383
1702061399907243000,8.280242919921875,0.6831759214401245,-0.33368825912475586,1.5955915451049805
1702061399924237800,8.29723779296875,1.6367977857589722,0.09423828125,1.8465356826782227
1702061399941230300,8.314230224609375,-0.4269365072250366,0.3072960376739502,1.6454744338989258
1702061399958225200,8.33122509765625,-2.323023796081543,0.556652307510376,0.7092704772949219
1702061399975218000,8.348218017578125,-3.369002342224121,0.6767241954803467,-0.2408733367919922
1702061399992212700,8.365212646484375,-2.7897281646728516,0.4477238655090332,-0.23989105224609375
1702061400009205500,8.38220556640625,-1.4085478782653809,0.09979391098022461,0.1012105941772461
1702061400026200300,8.399200439453125,-0.13401949405670166,-0.15644216537475586,0.6081628799438477
1702061400043186000,8.41618603515625,0.275296688079834,-0.2987487316131592,1.1737165451049805
1702061400060188200,8.433188232421875,0.3288252353668213,-0.21274709701538086,1.2300176620483398
1702061400077180700,8.4501806640625,0.08809566497802734,-0.0425868034362793,1.0122814178466797
1702061400094175200,8.46717529296875,-0.26085329055786133,0.08759307861328125,0.8810853958129883
1702061400111167700,8.484167724609375,-0.535627007484436,0.14757275581359863,0.9404449462890625
1702061400128162800,8.501162841796875,-0.6808981895446777,0.29862403869628906,1.3528938293457031
1702061400145155800,8.51815576171875,-0.5564872026443481,0.5150820016860962,1.5369997024536133
1702061400162153000,8.535153076171875,-0.17292428016662598,0.7231416702270508,1.4834794998168945
1702061400179140600,8.552140625,0.251497745513916,0.8307870626449585,1.1314363479614258
1702061400196138200,8.56913818359375,0.5929446220397949,0.7167515754699707,0.8205909729003906
1702061400213130800,8.586130859375,0.6047607660293579,0.541215181350708,0.5843830108642578
1702061400230125600,8.60312548828125,0.5052061080932617,0.5436806678771973,0.4305400848388672
1702061400247121400,8.620121337890625,0.4886247217655182,0.4919551610946655,0.5628700256347656
1702061400264110000,8.637110107421876,0.7842044830322266,0.46021437644958496,0.7316274642944336
1702061400281106000,8.65410595703125,1.239730715751648,0.3999515771865845,0.5419683456420898
1702061400298100700,8.671100830078124,1.6713871955871582,0.28996431827545166,-0.028059005737304688
1702061400315093500,8.688093505859374,1.7980141639709473,0.03246712684631348,-0.561650276184082
1702061400332088300,8.70508837890625,1.6299585103988647,-0.16582906246185303,-0.7472295761108398
1702061400349081000,8.7220810546875,1.2909818887710571,-0.2796633243560791,-0.48357677459716797
1702061400366076000,8.739075927734374,0.5350059866905212,-0.40905654430389404,0.24541473388671875
1702061400383068700,8.756068603515626,-0.04683465510606766,-0.6994917392730713,0.4675149917602539
1702061400400063200,8.773063232421874,-0.18595635890960693,-0.8524129390716553,-0.43031978607177734
1702061400417056800,8.790056884765624,-0.046424657106399536,-0.9622877240180969,-0.8914852142333984
1702061400434054000,8.807053955078125,0.30610063672065735,-1.2408925294876099,-1.1364784240722656
1702061400451040800,8.824040771484375,0.7805507183074951,-1.5072002410888672,-1.1347999572753906
1702061400468038700,8.84103857421875,0.6031259894371033,-2.000239849090576,-0.6757822036743164
1702061400485031200,8.85803125,-0.006385743618011475,-2.3775925636291504,-0.7445449829101562
1702061400502026000,8.87502587890625,-0.5091677904129028,-2.479079246520996,-1.1893987655639648
1702061400519018800,8.892018798828126,-0.8133713603019714,-2.694295883178711,-1.472707748413086
1702061400536003000,8.909003173828125,-0.7626194953918457,-3.0692310333251953,-1.5012798309326172
1702061400553006600,8.926006591796876,-0.758355975151062,-3.598827838897705,-1.3435935974121094
1702061400570001200,8.943001220703126,-0.8982679843902588,-3.833103895187378,-1.0696029663085938
1702061400586994000,8.959993896484375,-1.0133389234542847,-3.939621925354004,-1.0013046264648438
1702061400603988700,8.97698876953125,-1.2549247741699219,-3.976250171661377,-1.3499183654785156
1702061400620981500,8.9939814453125,-1.5527820587158203,-4.221519947052002,-1.6416692733764648
1702061400637976300,9.010976318359376,-1.7002819776535034,-4.575253486633301,-1.865647315979004
1702061400654969000,9.027968994140625,-1.4180657863616943,-4.829216480255127,-2.0204906463623047
1702061400671964000,9.0449638671875,-0.9342469573020935,-5.07363224029541,-1.8200759887695312
1702061400688957200,9.061957275390625,-0.6507866382598877,-5.44499397277832,-1.0854368209838867
1702061400705952500,9.078952392578126,-0.8387171030044556,-5.7107439041137695,-0.35015296936035156
1702061400722943000,9.09594287109375,-1.4704556465148926,-6.014873504638672,-0.5480251312255859
1702061400739939000,9.11293896484375,-1.0909627676010132,-6.917154312133789,-1.3290719985961914
1702061400756931800,9.129931884765625,-0.739498496055603,-7.194716453552246,-2.231313705444336
1702061400773926700,9.1469267578125,-0.1638306975364685,-7.17612361907959,-1.397383689880371
1702061400790912300,9.163912353515625,-0.6043399572372437,-7.77773904800415,-0.1579275131225586
1702061400807914200,9.180914306640625,-1.5775082111358643,-9.133846282958984,-0.07522106170654297
1702061400824904200,9.197904296875,-1.815603256225586,-9.328292846679688,-1.4242563247680664
1702061400841904400,9.214904296875,-1.4958686828613281,-8.82681941986084,-1.9878063201904297
1702061400858894300,9.231894287109375,-0.4298754036426544,-8.674501419067383,-0.9156522750854492
1702061400875889400,9.248889404296875,-0.10702148079872131,-9.014508247375488,1.1603069305419922
1702061400892882000,9.2658818359375,-0.6527239680290222,-9.14940357208252,2.8898019790649414
1702061400909880000,9.282880126953126,-0.7433127164840698,-9.196625709533691,3.603663444519043
1702061400926865000,9.299864990234376,0.16924764215946198,-8.822725296020508,2.494734764099121
1702061400943865900,9.316865966796875,1.5171047449111938,-8.740412712097168,1.0318689346313477
1702061400960847000,9.33384716796875,1.6524908542633057,-9.798222541809082,2.586772918701172
1702061400977852000,9.350851806640625,-0.026565536856651306,-9.766301155090332,4.647489547729492
1702061400994844700,9.3678447265625,-2.3846023082733154,-8.983590126037598,5.912816047668457
1702061401011839700,9.38483984375,-4.000816345214844,-8.821077346801758,5.404475212097168
1702061401028832300,9.401832275390625,-3.697070360183716,-8.522850036621094,3.726104736328125
1702061401045827000,9.4188271484375,-2.0092318058013916,-8.47639274597168,2.533299446105957
1702061401062819800,9.43581982421875,-0.4957060217857361,-8.547845840454102,1.5180320739746094
1702061401079814700,9.452814697265625,-0.3714800179004669,-8.907944679260254,1.4355220794677734
1702061401096807400,9.469807373046875,-1.257153868675232,-8.666945457458496,1.5356149673461914
1702061401113802200,9.48680224609375,-2.140817642211914,-8.050870895385742,1.355978012084961
1702061401130794800,9.503794677734374,-2.2142975330352783,-7.728994846343994,0.8043880462646484
1702061401147789800,9.520789794921875,-1.6481620073318481,-7.601718902587891,-0.04667091369628906
1702061401164782600,9.537782470703124,-0.8164805173873901,-7.728964328765869,-0.7027721405029297
1702061401181777200,9.554777099609375,-0.1851779818534851,-7.92285680770874,-0.8509531021118164
1702061401198770200,9.571770263671874,-0.19705218076705933,-7.6804046630859375,-0.9127435684204102
1702061401215762200,9.58876220703125,-0.24231970310211182,-7.2156877517700195,-0.9470748901367188
1702061401232760300,9.60576025390625,-0.5351977348327637,-6.643308162689209,-0.9186172485351562
1702061401249742000,9.6227421875,-0.9050614833831787,-6.206740379333496,-1.193800926208496
1702061401266737700,9.639737548828125,-1.0464420318603516,-5.892205238342285,-1.6759910583496094
1702061401283740000,9.656739990234374,-1.0619844198226929,-5.692339897155762,-2.318258762359619
1702061401300724700,9.673724853515624,-0.7010328769683838,-5.49563455581665,-2.7162017822265625
1702061401317727500,9.6907275390625,-0.07246530055999756,-5.221561431884766,-2.645089626312256
1702061401334720300,9.70772021484375,0.2540760040283203,-5.0170063972473145,-2.309035301208496
1702061401351715000,9.724715087890624,0.1618385910987854,-4.826050281524658,-2.185424327850342
1702061401368693200,9.741693359375,-0.06962156295776367,-4.731631278991699,-2.4309139251708984
1702061401385702700,9.75870263671875,-0.12990736961364746,-4.53575325012207,-2.8574962615966797
1702061401402695400,9.7756953125,-0.08353245258331299,-4.184309005737305,-3.0498714447021484
1702061401419690200,9.792690185546874,-0.10874220728874207,-3.657416820526123,-3.1826248168945312
1702061401436683000,9.80968310546875,-0.2282739281654358,-3.317852258682251,-2.8632383346557617
1702061401453677800,9.826677734375,-0.3335646986961365,-2.9633922576904297,-2.6199464797973633
1702061401470670600,9.843670654296876,-0.2776752710342407,-2.5737409591674805,-2.7852678298950195
1702061401487665400,9.86066552734375,-0.267659068107605,-2.2174036502838135,-3.130275249481201
1702061401504658400,9.877658447265626,-0.1746271550655365,-1.9588649272918701,-3.061652183532715
1702061401521652700,9.89465283203125,-0.11868947744369507,-1.8249435424804688,-2.5837326049804688
1702061401538649900,9.91164990234375,0.12386876344680786,-1.5425536632537842,-1.5868492126464844
1702061401555640600,9.928640625,0.3355238437652588,-0.9637911319732666,-0.5314226150512695
1702061401572633000,9.945633056640625,0.3506125807762146,-0.7636523246765137,0.31313514709472656
1702061401589628000,9.9626279296875,0.47671031951904297,-0.6062324047088623,0.07923507690429688
1702061401606620000,9.979619873046875,0.8621586561203003,-0.3765687942504883,-0.6921138763427734
1702061401623616800,9.99661669921875,1.2489233016967773,-0.021516084671020508,-1.311028003692627
1702061401640608300,10.013608154296875,1.4398367404937744,0.34151148796081543,-1.1312170028686523
1702061401657603000,10.03060302734375,1.1442508697509766,-0.0369868278503418,0.13391971588134766
1702061401674595800,10.047595947265625,0.9344854354858398,-0.2174994945526123,0.5648975372314453
1702061401691590700,10.064590576171875,1.0247700214385986,0.14911341667175293,0.04509449005126953
1702061401708583700,10.081583740234375,1.6388370990753174,0.7194364070892334,-0.43626880645751953
1702061401725578200,10.098578125,2.1901116371154785,0.9768385887145996,-0.02299976348876953
1702061401742571000,10.115571044921875,2.2846786975860596,0.7324583530426025,1.1935491561889648
1702061401759565800,10.13256591796875,2.309779644012451,0.7461214065551758,1.6889066696166992
1702061401776558600,10.14955859375,2.116389274597168,1.1284840106964111,1.651611328125
1702061401793553200,10.16655322265625,1.3453874588012695,1.4653842449188232,1.8330612182617188
1702061401810546200,10.183546142578125,0.5621964931488037,1.5184857845306396,2.201946258544922
1702061401827541000,10.200541015625,0.537024974822998,0.9666969776153564,3.093050003051758
1702061401844537600,10.21753759765625,1.0732886791229248,0.16414928436279297,4.200347900390625
1702061401861528600,10.234528564453125,1.5124553442001343,-0.08081960678100586,4.935410499572754
1702061401878521000,10.25152099609375,1.418743371963501,0.2314741611480713,4.559809684753418
1702061401895516000,10.268515869140625,0.602137565612793,0.6502153873443604,3.140748977661133
1702061401912493800,10.285493896484375,-0.5290694236755371,0.8003716468811035,2.6420421600341797
1702061401929503500,10.30250341796875,-0.3348875045776367,1.625762939453125,2.734797477722168
1702061401946496300,10.319496337890625,0.02969670295715332,1.5786628723144531,0.7958221435546875
1702061401963491000,10.336490966796875,0.9432594776153564,1.362516164779663,-0.03529167175292969
1702061401980483800,10.35348388671875,0.9656326770782471,0.915794849395752,0.8588275909423828
1702061401997477400,10.370477294921875,-0.042822837829589844,0.5783731937408447,1.6421318054199219
1702061402014462200,10.387462158203125,-0.9497311115264893,0.533501148223877,1.949946403503418
1702061402031466200,10.40446630859375,-1.0906651020050049,0.9882106781005859,1.3610467910766602
1702061402048459000,10.421458984375,-0.9975740909576416,1.1839299201965332,0.8613653182983398
1702061402065453800,10.438453857421875,-0.742276668548584,1.2557363510131836,0.47423648834228516
1702061402082446600,10.455446533203125,-0.41039466857910156,1.4716753959655762,0.6049556732177734
1702061402099441200,10.472441162109375,-0.0973813533782959,1.8658041954040527,1.1714982986450195
1702061402116434200,10.48943408203125,0.3503866195678711,1.7845878601074219,2.33486270904541
1702061402133428700,10.5064287109375,0.9719327688217163,1.4067013263702393,3.285151481628418
1702061402150421500,10.52342138671875,1.5810675621032715,1.1105177402496338,3.410079002380371
1702061402167416300,10.540416259765625,2.1332855224609375,1.013167381286621,2.789335250854492
1702061402184409300,10.557409423828124,2.3151955604553223,0.9688255786895752,2.029421806335449
1702061402201401300,10.5744013671875,2.4601526260375977,0.9682333469390869,1.3350210189819336
1702061402218399200,10.591399169921875,2.3604753017425537,0.7499151229858398,1.283614158630371
1702061402235389000,10.608388916015626,2.1424989700317383,0.7217416763305664,1.4528303146362305
1702061402252386800,10.62538671875,1.7911334037780762,0.8981509208679199,1.3725576400756836
1702061402269379000,10.642379150390624,1.2723745107650757,0.9192943572998047,0.9251422882080078
1702061402286371800,10.659371826171874,0.960837721824646,0.8354041576385498,0.45607757568359375
1702061402303366700,10.67636669921875,1.0259273052215576,0.647862434387207,0.0501861572265625
1702061402320359200,10.693359130859376,1.3751709461212158,0.4300351142883301,-0.1088571548461914
1702061402337354000,10.71035400390625,1.7027881145477295,0.17845559120178223,0.3360128402709961
1702061402354347000,10.727346923828126,1.868178129196167,-0.007017612457275391,0.7905874252319336
1702061402371341800,10.744341796875,1.8403851985931396,-0.12032222747802734,0.6888847351074219
1702061402388334600,10.76133447265625,1.5043865442276,-0.18591809272766113,0.28011226654052734
1702061402405333200,10.778333251953125,1.012619137763977,-0.2085554599761963,0.14581012725830078
1702061402422322200,10.795322265625,0.2872217893600464,-0.3898661136627197,0.11192989349365234
1702061402439316700,10.812316650390626,-0.47401729226112366,-0.7624616622924805,-0.15959835052490234
1702061402456309500,10.8293095703125,-0.9718450903892517,-1.2494885921478271,-0.628972053527832
1702061402473304300,10.84630419921875,-0.8852354288101196,-1.5892125368118286,-1.119767189025879
1702061402490297000,10.863297119140626,-0.44005417823791504,-1.6163151264190674,-1.257624626159668
1702061402507285000,10.880284912109374,-0.1884297877550125,-1.7313716411590576,-1.0750904083251953
1702061402524284700,10.89728466796875,-0.4844317138195038,-2.1487765312194824,-0.6305713653564453
1702061402541279500,10.914279541015626,-0.9355164766311646,-2.6240320205688477,-0.6224813461303711
1702061402558272300,10.931272216796875,-1.383195161819458,-3.0215914249420166,-1.4589691162109375
1702061402575267000,10.94826708984375,-1.0417531728744507,-3.3518311977386475,-2.1899423599243164
1702061402592260000,10.965260009765625,-0.0025406479835510254,-3.4681286811828613,-2.4787349700927734
1702061402609254400,10.98225439453125,0.7940881252288818,-3.91216778755188,-1.778524398803711
1702061402626247400,10.999247314453125,0.8145509362220764,-4.810837268829346,-1.2093400955200195
1702061402643242000,11.016241943359375,0.42839890718460083,-5.4751386642456055,-2.133225440979004
1702061402660234800,11.03323486328125,0.027086079120635986,-5.570793151855469,-3.5314345359802246
1702061402677223400,11.050223388671874,-0.43194127082824707,-5.448918342590332,-4.126547813415527
1702061402694222300,11.067222412109375,-0.7277637720108032,-5.715400695800781,-3.9048147201538086
1702061402711217200,11.084217041015625,-0.8186225295066833,-6.1691460609436035,-3.5553884506225586
1702061402728200400,11.101200439453125,-0.8399161696434021,-6.359779357910156,-2.908914566040039
1702061402745204700,11.118204833984375,-1.1086333990097046,-6.460525035858154,-2.3386220932006836
1702061402762197500,11.135197509765625,-1.5692646503448486,-6.745737552642822,-2.1450142860412598
1702061402779192300,11.1521923828125,-1.571109652519226,-6.9737372398376465,-2.151595115661621
1702061402796184800,11.169184814453125,-0.6714718341827393,-7.176244258880615,-1.9466228485107422
1702061402813188900,11.18618896484375,0.7218960523605347,-7.639282703399658,-0.840052604675293
1702061402830172400,11.20317236328125,1.851690649986267,-7.800595283508301,0.8736963272094727
1702061402847163100,11.2201630859375,1.8149652481079102,-7.329929828643799,2.54880428314209
1702061402864160300,11.23716015625,1.4977701902389526,-6.838974952697754,3.514120101928711
1702061402881155000,11.254155029296875,1.0043683052062988,-6.887883186340332,3.2606582641601562
1702061402898147600,11.271147705078125,0.8798235058784485,-7.401155948638916,2.0518016815185547
1702061402915142700,11.288142578125,1.7893483638763428,-7.689944744110107,1.2018938064575195
1702061402932135200,11.30513525390625,1.9073922634124756,-7.708582401275635,0.9412097930908203
1702061402949130000,11.3221298828125,0.92960524559021,-7.596580505371094,1.1122760772705078
1702061402966122800,11.339122802734375,-0.5432953834533691,-8.287694931030273,2.029073715209961
1702061402983117800,11.356117919921875,-1.2135095596313477,-8.155773162841797,1.7449073791503906
1702061403000109300,11.373109375,-0.502646267414093,-8.271402359008789,1.5159225463867188
1702061403017106200,11.390106201171875,0.4751861095428467,-8.279889106750488,1.1637468338012695
1702061403034098000,11.407097900390625,1.8722176551818848,-8.036589622497559,1.9726266860961914
1702061403051092700,11.4240927734375,-0.4672608971595764,-6.213955879211426,6.086556434631348
1702061403068085500,11.44108544921875,-1.0988175868988037,-6.295834064483643,3.1581153869628906
1702061403085080000,11.458080078125,-1.2289894819259644,-6.88215970993042,3.175604820251465
1702061403102072800,11.47507275390625,-1.1748305559158325,-6.858788967132568,4.342136383056641
1702061403119067600,11.492067626953125,-1.934814453125,-7.495562553405762,4.39837646484375
1702061403136060400,11.509060302734374,-2.4623444080352783,-8.316650390625,3.5287370681762695
1702061403153055200,11.52605517578125,-2.0358664989471436,-8.867135047912598,1.718449592590332
1702061403170048000,11.543048095703124,-0.9967109560966492,-8.945119857788086,-0.2504911422729492
1702061403187042800,11.560042724609374,0.08871936798095703,-8.916428565979004,-1.356703758239746
1702061403204035600,11.57703564453125,0.3650853633880615,-9.018196105957031,-1.1370983123779297
1702061403221030400,11.594030517578124,-0.26901209354400635,-9.223597526550293,-0.4855632781982422
1702061403238033400,11.611033447265624,-0.7305291891098022,-9.179022789001465,-0.6774539947509766
1702061403255018000,11.62801806640625,-0.8804383277893066,-8.724398612976074,-1.5580415725708008
1702061403272010800,11.6450107421875,-0.670624852180481,-8.040660858154297,-2.4572105407714844
1702061403289003300,11.662003173828126,-0.4121391773223877,-7.51223087310791,-2.707569122314453
1702061403305990100,11.678990234375,-0.5651880502700806,-7.201352119445801,-2.351381301879883
1702061403322993200,11.6959931640625,-1.3395665884017944,-6.9946465492248535,-1.622727394104004
1702061403339984600,11.712984619140625,-1.692948818206787,-6.727935314178467,-1.1577091217041016
1702061403356981800,11.729981689453124,-1.1953680515289307,-6.16010856628418,-1.1502799987792969
1702061403373973200,11.74697314453125,-0.3468543291091919,-5.413266658782959,-1.4793214797973633
1702061403390968300,11.76396826171875,0.03345513343811035,-4.516480445861816,-1.9520812034606934
1702061403407961000,11.780961181640626,-0.14002037048339844,-3.6648221015930176,-2.167909622192383
1702061403424955600,11.79795556640625,-0.9373536109924316,-3.1185648441314697,-1.8714609146118164
1702061403441948400,11.814948486328126,-1.4965425729751587,-2.754714250564575,-1.535238265991211
1702061403458943200,11.831943115234376,-1.0225311517715454,-2.3632984161376953,-1.5323562622070312
1702061403475935700,11.848935791015625,0.0489811897277832,-1.544990062713623,-1.9854316711425781
1702061403492930600,11.8659306640625,0.8877682685852051,-0.6740334033966064,-2.3374905586242676
1702061403509921800,11.882921875,1.2063820362091064,0.07425284385681152,-2.5805158615112305
1702061403526920200,11.899920166015624,0.9307147860527039,0.5950808525085449,-2.365036964416504
1702061403543911000,11.916910888671875,0.11050450801849365,0.8499298095703125,-1.9349651336669922
1702061403560905700,11.93390576171875,-0.4899751543998718,0.8547778129577637,-2.031195640563965
1702061403577898500,11.9508984375,-0.038500458002090454,0.650580883026123,-2.47316837310791
1702061403594882800,11.9678828125,0.9413016438484192,0.9279932975769043,-2.7728962898254395
1702061403611886000,11.984885986328125,1.5476510524749756,1.435227394104004,-1.916895866394043
1702061403628870700,12.00187060546875,0.9081576466560364,1.8400397300720215,-0.11722469329833984
1702061403645873700,12.018873779296875,-0.2314489483833313,2.2308366298675537,1.1428546905517578
1702061403662868500,12.035868408203125,-0.6410457491874695,2.0205421447753906,1.7242279052734375
1702061403679861200,12.052861328125,0.26823973655700684,1.614492416381836,1.7037134170532227
1702061403696856000,12.06985595703125,1.7352083921432495,1.3175506591796875,1.947504997253418
1702061403713848800,12.086848876953125,3.04030179977417,1.373652458190918,2.660440444946289
1702061403730843400,12.103843505859375,3.890134811401367,1.5209579467773438,3.026458263397217
1702061403747836400,12.12083642578125,4.878619194030762,1.233199119567871,3.273498058319092
1702061403764831000,12.1378310546875,5.207309722900391,0.46251630783081055,4.019983768463135
1702061403781823700,12.15482373046875,4.584659099578857,0.3757205009460449,3.805802822113037
1702061403798818800,12.17181884765625,3.0508604049682617,0.3051900863647461,3.0811471939086914
1702061403815809000,12.18880908203125,1.6723763942718506,-0.12449407577514648,2.6707911491394043
1702061403832808700,12.20580859375,1.5273683071136475,-0.37796974182128906,2.386636257171631
1702061403849799000,12.222798828125,2.515866756439209,-0.30806589126586914,2.1836600303649902
1702061403866793700,12.239793701171875,3.2301361560821533,-0.968869686126709,2.5901947021484375
1702061403883776000,12.25677587890625,3.216702699661255,-1.0733957290649414,1.8320446014404297
1702061403900781300,12.27378125,2.4325242042541504,-0.8014998435974121,1.5293636322021484
1702061403917773800,12.29077392578125,2.388699531555176,0.03425407409667969,1.020411491394043
1702061403934769000,12.307768798828125,2.9630393981933594,0.7878608703613281,1.327754020690918
1702061403951751400,12.32475146484375,3.0863535404205322,1.4237160682678223,2.093809127807617
1702061403968756500,12.341756591796875,0.5384905338287354,1.2031822204589844,1.9354305267333984
1702061403985749000,12.3587490234375,-1.6309747695922852,1.3331284523010254,0.7981643676757812
1702061404002743800,12.375743896484375,-2.3254611492156982,1.5079593658447266,0.0035982131958007812
1702061404019726000,12.39272607421875,-2.574462413787842,1.819087266921997,0.3211050033569336
1702061404036731400,12.4097314453125,-2.70029878616333,2.0133137702941895,1.361515998840332
1702061404053724200,12.42672412109375,-2.7404184341430664,1.7335729598999023,1.7180795669555664
1702061404070719000,12.443718994140625,-1.2630550861358643,1.5335016250610352,1.4948501586914062
1702061404087711700,12.460711669921874,-0.24206995964050293,1.0354909896850586,1.5438480377197266
1702061404104706600,12.47770654296875,0.9777162075042725,0.730177640914917,1.854339599609375
1702061404121694700,12.49469482421875,2.219986915588379,0.6395094394683838,2.9486188888549805
1702061404138698500,12.511698486328125,3.0030505657196045,0.5036404132843018,4.469521522521973
1702061404155670000,12.528669921875,3.1300911903381348,0.5327844619750977,4.3983659744262695
1702061404172681700,12.545681640625,2.7875418663024902,0.9978339672088623,3.1179542541503906
1702061404189674500,12.562674560546874,2.295753002166748,1.3161976337432861,1.9651460647583008
1702061404206669300,12.57966943359375,1.8219736814498901,1.4073622226715088,1.1410160064697266
1702061404223662000,12.596662109375,1.618192434310913,1.386171817779541,0.8094215393066406
1702061404240656600,12.61365673828125,2.0963780879974365,1.4005529880523682,1.2088613510131836
1702061404257649400,12.6306494140625,2.9578347206115723,1.4171569347381592,1.9810094833374023
1702061404274644200,12.647644287109374,3.7312979698181152,1.4019174575805664,2.274266242980957
1702061404291637000,12.664636962890626,4.117205619812012,1.195167064666748,2.2812204360961914
1702061404308631800,12.6816318359375,4.167308330535889,0.9911520481109619,1.7841825485229492
1702061404325624300,12.698624267578126,3.7530746459960938,0.8523015975952148,0.9250850677490234
1702061404342619600,12.71561962890625,3.0171127319335938,0.7196238040924072,0.25032997131347656
1702061404359611600,12.732611572265625,2.283877372741699,0.6110961437225342,-0.0047454833984375
1702061404376606700,12.749606689453126,1.8260389566421509,0.37061095237731934,-0.13238048553466797
1702061404393599500,12.766599609375,1.6794729232788086,0.08447980880737305,-0.6158809661865234
1702061404410587600,12.783587646484374,1.6640605926513672,-0.19638442993164062,-1.4880495071411133
1702061404427591000,12.8005908203125,1.6144204139709473,-0.5311622619628906,-2.2216978073120117
1702061404444583700,12.817583740234374,0.9457576870918274,-1.095085859298706,-1.648421287536621
1702061404461576000,12.834575927734376,-0.18620337545871735,-1.4146056175231934,-0.09636783599853516
1702061404478569500,12.851569580078126,-1.0546529293060303,-1.2593059539794922,0.253692626953125
1702061404495562200,12.868562255859375,-1.6048994064331055,-0.8903920650482178,-0.4471769332885742
1702061404512557000,12.88555712890625,-1.9219924211502075,-0.6905913352966309,-1.0276308059692383
1702061404529549600,12.902549560546875,-1.6245968341827393,-0.7411754131317139,-0.8344211578369141
1702061404546544400,12.91954443359375,-0.911937952041626,-0.9034996032714844,-0.7519855499267578
1702061404563537200,12.936537109375,-0.26063597202301025,-1.3790010213851929,-0.7308015823364258
1702061404580531700,12.95353173828125,0.002976536750793457,-2.043703079223633,-0.4275856018066406
1702061404597524700,12.970524658203125,-0.0662771463394165,-2.567282199859619,0.03293323516845703
1702061404614519800,12.987519775390625,-0.27710533142089844,-3.1209144592285156,-0.08285140991210938
1702061404631516000,13.004515869140626,-0.5634200572967529,-3.7082767486572266,-1.0535697937011719
1702061404648503800,13.02150390625,-0.9032615423202515,-4.167324542999268,-2.109358787536621
1702061404665500000,13.0385,-1.4160348176956177,-4.585399627685547,-2.4736223220825195
1702061404682494500,13.055494384765625,-1.904171109199524,-4.858619689941406,-2.3252429962158203
1702061404699487500,13.072487548828125,-2.0995841026306152,-4.991314888000488,-2.512063980102539
1702061404716482000,13.08948193359375,-2.56609845161438,-5.45409631729126,-2.9654388427734375
1702061404733476900,13.106476806640625,-2.5038044452667236,-6.014426231384277,-2.8938302993774414
1702061404750467800,13.1234677734375,-2.3844597339630127,-6.124669075012207,-2.493271827697754
1702061404767462700,13.140462646484375,-2.551454544067383,-6.481808662414551,-2.1033082008361816
1702061404784466200,13.157466064453125,-2.612208366394043,-7.086534023284912,-2.0466995239257812
1702061404801434600,13.1744345703125,-2.3875279426574707,-7.255828380584717,-2.355222702026367
1702061404818444800,13.19144482421875,-1.9343421459197998,-6.88805627822876,-2.956939697265625
1702061404835437600,13.2084375,-2.2375500202178955,-6.9780168533325195,-2.839334487915039
1702061404852430600,13.2254306640625,-3.4570555686950684,-7.920346736907959,-1.7119083404541016
1702061404869426700,13.2424267578125,-4.005992412567139,-8.83810806274414,0.4639558792114258
1702061404886420000,13.259419921875,-2.204101324081421,-8.722269058227539,1.9483222961425781
1702061404903402200,13.27640234375,1.4217491149902344,-8.549757957458496,2.6319332122802734
1702061404920407300,13.2934072265625,4.529125213623047,-8.60963249206543,2.9967546463012695
1702061404937400000,13.310400146484374,5.010947227478027,-8.875535011291504,2.7107791900634766
1702061404954395000,13.327394775390625,2.448230266571045,-9.526403427124023,1.3368453979492188
1702061404971387400,13.344387451171874,-1.225940227508545,-9.330154418945312,-0.8270769119262695
1702061404988382500,13.361382568359375,-3.436954975128174,-8.452255249023438,-1.3441839218139648
1702061405005383400,13.378383544921874,-3.217724323272705,-7.70879602432251,0.788945198059082
1702061405022369800,13.395369873046874,-1.3754563331604004,-6.6154680252075195,5.317239761352539
1702061405039362800,13.41236279296875,-0.31045103073120117,-7.024381637573242,8.377891540527344
1702061405056357400,13.429357421875,-2.8050014972686768,-6.709127902984619,6.658846855163574
1702061405073350100,13.44635009765625,-5.677145957946777,-6.437661647796631,4.194628715515137
1702061405090345000,13.463344970703124,-7.680067539215088,-6.9115729331970215,2.6680908203125
1702061405107338000,13.480337890625,-7.359063625335693,-7.044155597686768,1.1503963470458984
1702061405124336000,13.497336181640625,-4.731454372406006,-7.326625347137451,0.30791473388671875
1702061405141321700,13.51432177734375,-2.6992902755737305,-8.176238059997559,0.2527179718017578
1702061405158320000,13.531320068359374,-1.716087818145752,-8.820221900939941,-0.3730430603027344
1702061405175310600,13.548310546875,-0.9143600463867188,-8.673462867736816,-1.358962059020996
1702061405192309200,13.565309326171874,-0.5289249420166016,-8.188007354736328,-2.378115177154541
1702061405209300500,13.582300537109376,-0.6262204647064209,-7.79276704788208,-2.4098730087280273
1702061405226296800,13.599296875,-1.0335986614227295,-7.434762001037598,-1.3279738426208496
1702061405243288000,13.6162880859375,-1.7600605487823486,-7.1074323654174805,-0.27817440032958984
1702061405260282600,13.63328271484375,-2.2445311546325684,-6.630486011505127,-0.4357748031616211
1702061405277275400,13.650275390625,-2.3143458366394043,-6.100497722625732,-1.428532600402832
1702061405294270200,13.667270263671876,-1.7583140134811401,-5.850375652313232,-2.1165380477905273
1702061405311263000,13.684262939453125,-0.8387961387634277,-5.804910182952881,-2.0127148628234863
1702061405328257800,13.7012578125,-0.34282445907592773,-5.775191307067871,-0.580836296081543
1702061405345250600,13.71825048828125,-0.44299960136413574,-5.111815929412842,0.6866140365600586
1702061405362245000,13.7352451171875,-0.6213792562484741,-4.055427074432373,0.5124788284301758
1702061405379240700,13.75224072265625,-0.7857519388198853,-3.1784868240356445,-0.7849330902099609
1702061405396232200,13.769232177734375,-0.6752932071685791,-2.687420606613159,-1.8896169662475586
1702061405413225500,13.7862255859375,-0.1575155258178711,-2.430288791656494,-2.190188407897949
1702061405430218500,13.803218505859375,0.4664067029953003,-2.185748815536499,-1.6148138046264648
1702061405447214800,13.82021484375,0.9044778943061829,-1.7626519203186035,-0.5313243865966797
1702061405464208000,13.837207763671875,1.1403694152832031,-1.1041100025177002,-0.24358177185058594
1702061405481200600,13.85420068359375,1.4494107961654663,-0.4341468811035156,-1.1624269485473633
1702061405498194200,13.871194091796875,1.8837642669677734,0.23706293106079102,-2.2830147743225098
1702061405515186700,13.888186767578125,2.076899290084839,0.5741486549377441,-2.619805335998535
1702061405532185300,13.905185302734376,2.206674098968506,0.6286606788635254,-2.2492027282714844
1702061405549175600,13.922175537109375,2.44793438911438,0.6056742668151855,-0.9132442474365234
1702061405566170400,13.93917041015625,2.5169191360473633,0.8151383399963379,0.34638309478759766
1702061405583163100,13.9561630859375,2.680762529373169,1.2900710105895996,0.3588094711303711
1702061405600155400,13.9731552734375,2.8810715675354004,1.6409258842468262,-0.6307525634765625
1702061405617153300,13.9901533203125,2.9647111892700195,1.8484201431274414,-1.5149974822998047
1702061405634145500,14.0071455078125,2.995049476623535,1.9697718620300293,-1.704000473022461
1702061405651138300,14.02413818359375,2.5756492614746094,1.7638764381408691,0.07814311981201172
1702061405668132900,14.0411328125,2.2686307430267334,1.6595957279205322,2.6057662963867188
1702061405685125600,14.058125732421875,2.6513633728027344,1.6962151527404785,3.550352096557617
1702061405702120700,14.07512060546875,3.156405210494995,1.5913610458374023,2.518766403198242
1702061405719113200,14.09211328125,3.64788818359375,1.6193552017211914,1.1900920867919922
1702061405736108300,14.1091083984375,3.4549953937530518,1.7671923637390137,0.8666591644287109
1702061405753100800,14.126100830078125,2.5577456951141357,1.929673433303833,1.5756959915161133
1702061405770093800,14.14309375,1.4836254119873047,1.8663663864135742,3.054594039916992
1702061405787088400,14.16008837890625,0.9532272815704346,1.5992035865783691,3.787102699279785
1702061405804083200,14.177083251953125,0.8945305347442627,0.8477623462677002,3.5969247817993164
1702061405821073200,14.1940732421875,1.305955171585083,0.8349814414978027,1.5230979919433594
1702061405838070800,14.21107080078125,1.5951634645462036,0.8919239044189453,-0.3953580856323242
1702061405855065900,14.22806591796875,1.6946802139282227,0.9171550273895264,-0.6151847839355469
1702061405872058000,14.24505810546875,1.3472954034805298,1.0622458457946777,1.2550477981567383
1702061405889051000,14.26205078125,0.367037296295166,0.39273977279663086,3.1289310455322266
1702061405906047500,14.279047607421875,-0.2573108673095703,-0.061131954193115234,1.884200096130371
1702061405923037000,14.296036865234376,-0.5283901691436768,0.13036227226257324,-1.071798324584961
1702061405940033300,14.313033203125,-0.16645336151123047,0.42887115478515625,-2.647050380706787
1702061405957025800,14.33002587890625,0.7180821895599365,0.4749152660369873,-0.9363908767700195
1702061405974020900,14.347020751953124,1.7297697067260742,1.1472132205963135,1.8600826263427734
1702061405991013600,14.364013671875,1.5012247562408447,1.123680830001831,3.548006057739258
1702061406008008400,14.381008544921874,0.6058988571166992,0.9440947771072388,2.7469825744628906
1702061406025001000,14.3980009765625,-0.18055033683776855,1.1962437629699707,0.17022323608398438
1702061406041995800,14.414995849609374,-0.6988260746002197,1.2863351106643677,-0.8927717208862305
1702061406058988800,14.43198876953125,-1.1342034339904785,1.105708360671997,-0.19462299346923828
1702061406075983400,14.4489833984375,-1.2904889583587646,0.9527325630187988,1.1905183792114258
1702061406092975900,14.465975830078126,-1.2211613655090332,0.9818375110626221,2.055729866027832
1702061406109956900,14.482956787109375,-0.40624308586120605,1.036712408065796,2.365018844604492
1702061406126963700,14.499963623046876,0.7154145240783691,1.1605831384658813,2.1654415130615234
1702061406143949600,14.516949462890626,1.359349250793457,1.2670249938964844,2.087646484375
1702061406160951000,14.533950927734375,1.6806620359420776,1.1601696014404297,2.5703439712524414
1702061406177945900,14.55094580078125,1.5263556241989136,0.9414265155792236,3.560760498046875
1702061406194939000,14.56793896484375,1.6348682641983032,0.985706090927124,4.063816070556641
1702061406211933400,14.584933349609376,1.9753081798553467,1.1895811557769775,3.753493309020996
1702061406228926200,14.60192626953125,2.5066683292388916,1.3436743021011353,2.753530502319336
1702061406245921000,14.618921142578126,2.89408540725708,1.3332281112670898,1.2558584213256836
1702061406262913800,14.635913818359375,3.1366126537323,1.144291639328003,0.030170440673828125
1702061406279908400,14.652908447265625,3.2150323390960693,0.8926520347595215,0.3412504196166992
1702061406296900400,14.669900390625,3.3353476524353027,0.5940895080566406,1.4939384460449219
1702061406313897000,14.68689697265625,3.4771790504455566,0.5256993770599365,2.1930551528930664
1702061406330888700,14.703888671875,3.823045015335083,0.7714524269104004,1.6487455368041992
1702061406347883500,14.720883544921875,4.143997669219971,1.1731206178665161,0.21105194091796875
1702061406364876300,14.737876220703125,4.2838897705078125,1.3037917613983154,-1.0590105056762695
1702061406381871000,14.75487109375,3.742518424987793,1.1775221824645996,-1.480058193206787
1702061406398864000,14.77186376953125,2.922801971435547,0.8640931844711304,-0.44504261016845703
1702061406415858400,14.7888583984375,2.325298309326172,0.5381510257720947,0.4642057418823242
1702061406432851500,14.8058515625,2.322432041168213,0.7207788228988647,0.5350580215454102
1702061406449853000,14.82285302734375,2.0709824562072754,0.982893705368042,0.20344829559326172
1702061406466839000,14.839839111328125,1.4951913356781006,0.9669018983840942,-0.3060331344604492
1702061406483831000,14.8568310546875,0.6235703825950623,0.8312594890594482,-0.7218160629272461
1702061406500826400,14.873826416015625,-0.13144081830978394,0.4966866970062256,-0.6725959777832031
1702061406517823700,14.89082373046875,-0.40964722633361816,0.11203408241271973,-0.645930290222168
1702061406534813700,14.907813720703125,-0.5905024409294128,-0.2785388231277466,-0.6043939590454102
1702061406551808800,14.924808837890625,-0.19900625944137573,-0.5893360376358032,-0.7591886520385742
1702061406568801500,14.941801513671875,0.26287806034088135,-0.6623902320861816,-1.5704736709594727
1702061406585780500,14.958780517578125,0.1413116753101349,-1.1252142190933228,-2.169557571411133
1702061406602789000,14.9757890625,0.027111873030662537,-1.6448522806167603,-1.768707275390625
1702061406619783700,14.99278369140625,-0.05623920261859894,-2.1071338653564453,-0.7753353118896484
1702061406636780000,15.009780029296875,0.10917174816131592,-2.590426445007324,-0.20610332489013672
1702061406653768000,15.026767822265626,0.2807796895503998,-3.6215415000915527,-0.3904151916503906
1702061406670762200,15.04376220703125,0.800471305847168,-4.617203235626221,-1.6263761520385742
1702061406687756000,15.060756103515626,1.5097094774246216,-5.043255805969238,-2.880970001220703
1702061406704744200,15.077744140625,1.9041204452514648,-5.262304782867432,-3.268474578857422
1702061406721748500,15.09474853515625,1.6569641828536987,-5.515557289123535,-3.115959644317627
1702061406738739000,15.111739013671874,0.955175518989563,-5.852065086364746,-2.6648216247558594
1702061406755732500,15.128732421875,0.0734604001045227,-6.051128387451172,-2.289727210998535
1702061406772728000,15.14572802734375,-0.4317615330219269,-6.391669273376465,-1.6759862899780273
1702061406789721300,15.162721435546874,-0.14979106187820435,-6.811016082763672,-0.8485479354858398
1702061406806714000,15.179714111328124,-0.5226460695266724,-7.062694549560547,-0.2800178527832031
1702061406823708400,15.19670849609375,-1.3083508014678955,-7.153092861175537,-0.5842790603637695
1702061406840702000,15.213701904296874,-2.2006516456604004,-6.7713623046875,-0.9356317520141602
1702061406857696500,15.230696533203124,-2.314164638519287,-6.550021648406982,-0.4141817092895508
1702061406874689000,15.24768896484375,-1.9352096319198608,-7.035572528839111,1.2862300872802734
1702061406891683800,15.264683837890624,-1.2377629280090332,-7.241463661193848,2.4285888671875
1702061406908676900,15.2816767578125,-0.8330305814743042,-7.580572605133057,2.537485122680664
1702061406925673500,15.298673583984375,-0.9792685508728027,-7.762195110321045,1.4872827529907227
1702061406942662100,15.315662109375,-0.9415063858032227,-7.43700647354126,0.2654695510864258
1702061406959647700,15.332647705078125,-1.0435001850128174,-7.672265529632568,0.7158412933349609
1702061406976651500,15.349651611328126,-0.3813600540161133,-7.8895182609558105,0.6648807525634766
1702061406993646300,15.366646240234376,0.6496891975402832,-7.913679599761963,0.14075756072998047
1702061407010639000,15.38363916015625,0.9112021923065186,-7.602586269378662,0.5348310470581055
1702061407027634000,15.400634033203126,0.4268481731414795,-7.514770984649658,1.3264036178588867
1702061407044626700,15.417626708984375,-0.9907171726226807,-7.289170265197754,1.4982242584228516
1702061407061621800,15.434621826171876,-1.546644926071167,-6.78550386428833,2.0200624465942383
1702061407078613200,15.45161328125,-1.1703972816467285,-6.720428466796875,3.7932558059692383
1702061407095610000,15.468610107421876,-0.7952451705932617,-6.423588752746582,4.807085037231445
1702061407112601900,15.485601806640625,-1.6767756938934326,-6.024179458618164,3.9831295013427734
1702061407129596400,15.502596435546875,-2.666510581970215,-5.893178939819336,2.5472726821899414
1702061407146590700,15.5195908203125,-3.1786723136901855,-6.291238784790039,1.3173551559448242
1702061407163584000,15.536583984375,-3.0590858459472656,-6.644459247589111,0.33953189849853516
1702061407180572400,15.553572509765624,-2.5011630058288574,-7.1084818840026855,-0.2381458282470703
1702061407197576000,15.570575927734374,-1.714861512184143,-7.45744514465332,-0.700404167175293
1702061407214564400,15.587564453125,-0.8641512393951416,-7.461108684539795,-1.1058425903320312
1702061407231559200,15.60455908203125,-0.4051365852355957,-7.156989097595215,-1.3034963607788086
1702061407248551700,15.6215517578125,-0.2658083438873291,-6.521144390106201,-1.6097135543823242
1702061407265546800,15.638546630859375,-0.3325636386871338,-5.991713047027588,-2.1364736557006836
1702061407282539300,15.655539306640625,-0.385662317276001,-5.4821577072143555,-2.6322178840637207
1702061407299534300,15.672534423828125,-0.451495885848999,-5.224922180175781,-2.72788667678833
1702061407316526800,15.68952685546875,-0.5014561414718628,-5.001414775848389,-2.446078300476074
1702061407333521700,15.706521728515625,-0.4668236970901489,-4.634312629699707,-1.863844871520996
1702061407350525700,15.723525634765625,-0.2877843379974365,-4.244178771972656,-1.3892993927001953
1702061407367509200,15.74050927734375,-0.05792272090911865,-3.837073802947998,-1.635106086730957
1702061407384499500,15.75749951171875,0.0026623010635375977,-3.3657872676849365,-2.2487831115722656
1702061407401499400,15.77449951171875,-0.017236709594726562,-3.1942124366760254,-2.6021366119384766
1702061407418489300,15.7914892578125,-0.06994414329528809,-3.1928932666778564,-2.497119903564453
1702061407435484200,15.808484130859375,0.26326167583465576,-3.102445363998413,-1.9968070983886719
1702061407452477000,15.825476806640625,0.6997450590133667,-2.7977514266967773,-1.320115089416504
1702061407469472000,15.842471923828125,0.9055054187774658,-2.2640633583068848,-0.8385448455810547
1702061407486464500,15.859464599609375,1.0777325630187988,-1.668107271194458,-1.0298423767089844
1702061407503459300,15.876459228515625,1.0198099613189697,-1.4308815002441406,-1.5366325378417969
1702061407520451800,15.893451904296874,0.7688853144645691,-1.3404209613800049,-1.9147872924804688
1702061407537454000,15.9104541015625,0.6856615543365479,-1.104386329650879,-1.8316783905029297
1702061407554439400,15.927439453125,0.457722932100296,-0.6554734706878662,-1.2996912002563477
1702061407571434200,15.944434326171875,0.41301584243774414,-0.18210220336914062,-0.701411247253418
1702061407588425500,15.961425537109376,0.4968520700931549,0.27198243141174316,-0.14520645141601562
1702061407605435600,15.978435546875,0.7062526941299438,0.4817166328430176,0.041233062744140625
1702061407622401500,15.995401611328125,1.057222604751587,0.724618673324585,-0.4335498809814453
1702061407639412000,16.012411865234377,1.4225050210952759,0.8510823249816895,-0.7208819389343262
1702061407656402000,16.02940185546875,1.7326475381851196,0.9231667518615723,-0.7169122695922852
1702061407673397000,16.04639697265625,1.9178544282913208,0.8911705017089844,-0.408477783203125
1702061407690389500,16.063389404296874,2.2844533920288086,0.9867794513702393,-0.11552238464355469
1702061407707384600,16.080384521484376,2.5970568656921387,1.075545310974121,-0.029790878295898438
1702061407724377000,16.097377197265626,2.7469844818115234,1.0841388702392578,-0.3729677200317383
1702061407741372000,16.114371826171876,2.814174175262451,1.0933079719543457,-0.8413915634155273
1702061407758362000,16.131362060546873,2.908811092376709,1.0946149826049805,-1.076960563659668
1702061407775361800,16.14836181640625,2.9648213386535645,0.9923090934753418,-0.674811840057373
1702061407792342300,16.16534228515625,2.6442360877990723,0.9482152462005615,0.14205265045166016
1702061407809347000,16.18234716796875,2.247188091278076,1.3979945182800293,0.4431419372558594
1702061407826339600,16.199339599609374,2.0303843021392822,1.7375178337097168,-0.052697181701660156
1702061407843334400,16.21633447265625,2.2045400142669678,1.5744414329528809,-0.22045135498046875
1702061407860327200,16.2333271484375,2.934312343597412,1.234997034072876,0.23468399047851562
1702061407877322000,16.250322021484376,3.8153600692749023,1.000476360321045,1.0592308044433594
1702061407894314800,16.267314697265626,4.196208953857422,1.0473756790161133,1.9043569564819336
1702061407911309300,16.284309326171876,4.05031681060791,1.268381118774414,2.341721534729004
1702061407928291800,16.301291748046875,3.4619534015655518,1.3798420429229736,2.0172080993652344
1702061407945296000,16.3182958984375,2.752568244934082,1.089193344116211,1.7331886291503906
1702061407962288000,16.3352880859375,2.05194354057312,0.6265647411346436,1.778306007385254
1702061407979287000,16.352287109375,2.2298169136047363,0.6004214286804199,3.3817176818847656
1702061407996260900,16.3692607421875,1.9405627250671387,1.4191110134124756,4.298039436340332
1702061408013272000,16.38627197265625,1.1169319152832031,1.6497392654418945,4.344334602355957
1702061408030262300,16.40326220703125,-0.158555269241333,1.54292893409729,4.215618133544922
1702061408047262000,16.420261962890624,-0.8968033790588379,1.087331771850586,2.720503807067871
1702061408064252200,16.437252197265625,-0.9275665283203125,0.9055006504058838,0.9027070999145508
1702061408081247000,16.4542470703125,-0.8704273700714111,1.072750449180603,0.19329261779785156
1702061408098239700,16.47123974609375,-0.923741340637207,1.219644546508789,0.8601846694946289
1702061408115234600,16.488234619140623,-1.0299201011657715,1.3455671072006226,2.486856460571289
1702061408132227000,16.50522705078125,-0.8922626972198486,0.9334871768951416,3.287029266357422
1702061408149222000,16.522221923828123,-0.0853266716003418,0.801006555557251,1.7723045349121094
1702061408166215000,16.53921484375,1.0773282051086426,0.7697142362594604,-0.23209571838378906
1702061408183209500,16.55620947265625,2.1377792358398438,0.6348555088043213,-0.35203075408935547
1702061408200199700,16.57319970703125,2.2856662273406982,0.45059847831726074,0.9200057983398438
1702061408217199600,16.59019970703125,1.545725703239441,0.6634454727172852,2.348844528198242
1702061408234189800,16.60718994140625,0.7497483491897583,0.9226962327957153,2.973499298095703
1702061408251184600,16.6241845703125,0.7179787158966064,1.2398232221603394,2.2042503356933594
1702061408268177200,16.64117724609375,1.241948127746582,1.517115592956543,1.2245922088623047
1702061408285172200,16.658172119140627,2.0659358501434326,1.570844292640686,0.7412176132202148
1702061408302165000,16.6751650390625,2.7119557857513428,1.4737800359725952,0.7351951599121094
1702061408319149000,16.692149169921876,2.9948232173919678,1.2245349884033203,1.5831317901611328
1702061408336152300,16.70915234375,2.8046507835388184,1.1035821437835693,2.3234004974365234
1702061408353143000,16.72614306640625,2.2359232902526855,1.2315919399261475,2.0415611267089844
1702061408370145800,16.743145751953126,1.6575047969818115,1.513358473777771,1.301344871520996
1702061408387122400,16.760122314453124,1.8157358169555664,1.5765554904937744,0.6397075653076172
1702061408404117000,16.777116943359374,2.9060325622558594,1.4656226634979248,-0.2933769226074219
1702061408421122000,16.7941220703125,3.3563733100891113,1.1852717399597168,-0.015766143798828125
1702061408438114800,16.81111474609375,2.887122631072998,0.7096419334411621,1.4035139083862305
1702061408455109600,16.828109619140626,2.8874826431274414,0.5220789909362793,1.345616340637207
1702061408472102400,16.845102294921876,2.8508615493774414,0.7276461124420166,0.3094644546508789
1702061408489097200,16.86209716796875,3.1237523555755615,0.9598181247711182,-0.528620719909668
1702061408506090000,16.879090087890624,3.300014019012451,0.9191783666610718,-1.0922679901123047
1702061408523084500,16.89608447265625,2.9970831871032715,0.596653938293457,-1.3858232498168945
1702061408540077300,16.913077392578124,2.382486343383789,0.33249855041503906,-1.0388002395629883
1702061408557072100,16.930072021484374,1.7186203002929688,0.037241458892822266,-0.46028900146484375
1702061408574065000,16.94706494140625,1.374570608139038,-0.16938400268554688,-0.39089012145996094
1702061408591059700,16.964059814453126,1.0839793682098389,-0.22263216972351074,-0.7694406509399414
1702061408608052500,16.981052490234376,0.618958055973053,-0.4668412208557129,-1.1624364852905273
1702061408625047300,16.99804736328125,0.06693696975708008,-0.8293139934539795,-1.2689132690429688
1702061408642040000,17.0150400390625,-0.6044286489486694,-1.16452956199646,-1.1287975311279297
1702061408659034600,17.03203466796875,-1.215394377708435,-1.431656837463379,-0.7697973251342773
1702061408676026000,17.049026123046875,-1.4916377067565918,-1.573582410812378,-0.9160575866699219
1702061408693023500,17.0660234375,-1.675755262374878,-1.7511075735092163,-1.484445571899414
1702061408710004500,17.08300439453125,-1.7876126766204834,-2.000485420227051,-1.8558015823364258
1702061408727006000,17.100005859375,-1.9285110235214233,-2.409628391265869,-1.9591302871704102
1702061408744006100,17.117006103515624,-2.163609504699707,-2.7120606899261475,-2.218337059020996
1702061408760997400,17.133997314453126,-2.4322385787963867,-2.840113401412964,-2.5393199920654297
1702061408777990000,17.150989990234375,-2.430924892425537,-2.9837210178375244,-2.162364959716797
1702061408794984700,17.167984619140626,-2.371068000793457,-3.0586471557617188,-1.6383380889892578
1702061408811975000,17.184974853515627,-2.141364574432373,-3.3057727813720703,-1.502213478088379
1702061408828974800,17.201974853515626,-1.7185014486312866,-3.6515653133392334,-1.8878250122070312
1702061408845965000,17.218965087890624,-1.356927752494812,-3.9520552158355713,-2.391233444213867
1702061408862962200,17.235962158203126,-1.1560494899749756,-4.124772071838379,-2.6951522827148438
1702061408879952400,17.252952392578123,-1.1456319093704224,-4.375909328460693,-2.3953986167907715
1702061408896947200,17.269947265625,-1.2059749364852905,-4.360326290130615,-1.4467592239379883
1702061408913940000,17.28693994140625,-1.1570372581481934,-4.348705291748047,0.19060039520263672
1702061408930934800,17.303934814453125,-1.2146005630493164,-4.707196235656738,1.182143211364746
1702061408947927600,17.320927490234375,-0.887244462966919,-5.3689188957214355,0.9128999710083008
1702061408964922400,17.33792236328125,-0.34503650665283203,-5.899168014526367,0.07160568237304688
1702061408981912600,17.35491259765625,0.06697702407836914,-6.292130470275879,0.12370014190673828
1702061408998912300,17.371912353515626,-0.12295079231262207,-6.526386260986328,0.7283401489257812
1702061409015902500,17.38890234375,-0.8325282335281372,-6.574380397796631,1.124929428100586
1702061409032897300,17.405897216796873,-1.4128187894821167,-6.503449440002441,0.8547744750976562
1702061409049890000,17.42289013671875,-1.3548247814178467,-6.44232702255249,-0.1061849594116211
1702061409066883000,17.439883056640625,-0.9176000356674194,-6.77864408493042,-0.3620414733886719
1702061409083879200,17.456879150390623,-0.9088587760925293,-7.237447261810303,0.2919893264770508
1702061409100866800,17.47386669921875,-0.9673259258270264,-7.470648288726807,1.556692123413086
1702061409117867800,17.49086767578125,-0.539757251739502,-6.8255205154418945,3.0704288482666016
1702061409134857200,17.507857177734376,0.28349828720092773,-6.288346290588379,4.221192359924316
1702061409151855000,17.524855224609375,0.3091423511505127,-5.990976333618164,3.9654808044433594
1702061409168847400,17.541847412109377,-0.3840634822845459,-6.108362197875977,3.120457649230957
1702061409185840000,17.558840087890626,-1.6348696947097778,-6.503680229187012,3.0257339477539062
1702061409202835000,17.5758349609375,-2.816762685775757,-6.086569786071777,2.714329719543457
1702061409219827500,17.592827392578126,-3.943878173828125,-5.467504501342773,2.389446258544922
1702061409236822300,17.609822265625,-4.615540981292725,-6.000323295593262,2.6560449600219727
1702061409253804500,17.626804443359376,-4.1734137535095215,-6.173994541168213,2.644216537475586
1702061409270809900,17.643809814453125,-3.573535680770874,-5.8902506828308105,1.5876035690307617
1702061409287802600,17.660802734375,-2.681130886077881,-5.79103422164917,0.601466178894043
1702061409304797400,17.67779736328125,-2.262942314147949,-5.72933292388916,0.3355226516723633
1702061409321790200,17.694790283203126,-2.363778591156006,-5.787225723266602,0.3729124069213867
1702061409338784800,17.71178466796875,-2.604491710662842,-5.862443923950195,0.3144207000732422
1702061409355777500,17.728777587890626,-2.4404687881469727,-5.9545183181762695,0.016462326049804688
1702061409372772400,17.7457724609375,-2.246981620788574,-5.947233200073242,-0.8021383285522461
1702061409389765000,17.76276513671875,-1.6953988075256348,-5.799843788146973,-1.814361572265625
1702061409406760000,17.779760009765624,-1.3016588687896729,-5.585756301879883,-2.1562252044677734
1702061409423752400,17.79675244140625,-1.2069685459136963,-5.476268768310547,-2.1661148071289062
1702061409440747300,17.813747314453124,-1.5441844463348389,-5.5146942138671875,-2.0057296752929688
1702061409457740000,17.830739990234374,-1.4454151391983032,-5.196070671081543,-2.0781149864196777
1702061409474732500,17.847732666015624,-1.2181463241577148,-4.851226806640625,-1.9065499305725098
1702061409491713300,17.86471337890625,-0.9063926935195923,-4.455066204071045,-1.8594064712524414
1702061409508722400,17.881722412109376,-0.5861772298812866,-4.0336432456970215,-2.0363359451293945
1702061409525715200,17.898715087890626,-0.4312964677810669,-3.6724538803100586,-2.248013496398926
1702061409542709800,17.915709716796876,-0.3738095760345459,-3.3691320419311523,-2.4772720336914062
1702061409559697700,17.93269775390625,-0.2464892864227295,-3.169187545776367,-2.4720306396484375
1702061409576684300,17.949684326171877,0.1745131015777588,-2.9721567630767822,-2.0662784576416016
1702061409593692700,17.966692626953126,0.6649941205978394,-2.48848032951355,-1.9304304122924805
1702061409610685000,17.983684814453124,0.7842520475387573,-1.8166003227233887,-2.0312767028808594
1702061409627677700,18.000677734375,0.8989800214767456,-1.1756703853607178,-2.2002806663513184
1702061409644672300,18.01767236328125,1.0246976613998413,-0.703650712966919,-2.3469319343566895
1702061409661665300,18.034665283203125,1.2075414657592773,-0.2998178005218506,-2.410005569458008
1702061409678659800,18.051659912109375,1.6365121603012085,0.030167341232299805,-2.2720866203308105
1702061409695652600,18.068652587890625,1.962204933166504,0.29673171043395996,-1.7879767417907715
1702061409712647400,18.0856474609375,2.1084842681884766,0.6159977912902832,-1.3622097969055176
1702061409729640200,18.10264013671875,2.2737157344818115,0.858142614364624,-1.2131633758544922
1702061409746634800,18.119634765625,2.516752243041992,1.0839369297027588,-1.37066650390625
1702061409763627500,18.13662744140625,2.6416921615600586,1.283020257949829,-1.3679323196411133
1702061409780622300,18.153622314453123,2.5870747566223145,1.4500653743743896,-0.8983831405639648
1702061409797615000,18.170614990234377,2.136784315109253,1.4647760391235352,0.2562074661254883
1702061409814609700,18.187609619140623,2.070903778076172,1.3223400115966797,1.4030046463012695
1702061409831600400,18.204600341796876,2.4768824577331543,1.2712340354919434,2.004330635070801
1702061409848599800,18.221599853515624,3.142716407775879,1.4245147705078125,1.7544269561767578
1702061409865590300,18.23859033203125,3.4096081256866455,1.1886236667633057,1.7698030471801758
1702061409882569500,18.255569580078124,3.3504443168640137,0.8805389404296875,1.695357322692871
1702061409899577600,18.27257763671875,3.1419496536254883,0.7340307235717773,1.3444223403930664
1702061409916572400,18.289572509765627,3.3604578971862793,0.7354936599731445,1.0733795166015625
1702061409933565200,18.306565185546877,3.7115299701690674,0.8809776306152344,1.1214160919189453
1702061409950560000,18.32356005859375,3.7267231941223145,0.615924596786499,2.0645065307617188
1702061409967550500,18.340550537109376,3.534458637237549,0.39766454696655273,2.3783493041992188
1702061409984549600,18.357549560546875,3.3540701866149902,0.5094451904296875,1.762258529663086
1702061410001540000,18.3745400390625,3.089456558227539,0.7608428001403809,1.2316741943359375
1702061410018535000,18.391534912109375,2.8245456218719482,1.0318052768707275,1.3030643463134766
1702061410035527700,18.408527587890624,2.596679449081421,1.2934908866882324,1.915262222290039
1702061410052522500,18.4255224609375,2.461108684539795,1.6040477752685547,2.628249168395996
1702061410069515300,18.442515380859376,2.3674380779266357,1.58125638961792,3.1199188232421875
1702061410086507300,18.45950732421875,1.9845530986785889,1.3729181289672852,3.057628631591797
1702061410103497000,18.4764970703125,1.3875205516815186,1.3793108463287354,2.558248519897461
1702061410120497400,18.493497314453126,0.8612030744552612,1.2499794960021973,1.7153873443603516
1702061410137490400,18.510490478515624,0.5205299854278564,1.0544538497924805,1.348219871520996
1702061410154485000,18.527485107421874,0.17672348022460938,0.6576428413391113,1.5954265594482422
1702061410171477800,18.544477783203124,0.11792612075805664,0.781109094619751,1.630208969116211
1702061410188472300,18.561472412109374,-0.4786958694458008,0.9052035808563232,1.5613880157470703
1702061410205455000,18.578455078125,-0.7339775562286377,0.9443063735961914,1.374032974243164
1702061410222460000,18.5954599609375,-0.33716273307800293,1.043647289276123,1.1044960021972656
1702061410239452700,18.61245263671875,0.6336112022399902,1.0782458782196045,0.8756999969482422
1702061410256447500,18.629447509765626,1.681214451789856,1.0473241806030273,1.296015739440918
1702061410273440300,18.646440185546876,2.337038278579712,1.1315231323242188,1.980809211730957
1702061410290434800,18.663434814453126,2.5723178386688232,1.3000571727752686,2.05767822265625
1702061410307427800,18.680427734375,1.9889204502105713,1.3480415344238281,2.1406869888305664
1702061410324422700,18.697422607421874,1.2895383834838867,1.611684799194336,2.4054088592529297
1702061410341415200,18.714415283203124,0.9502367973327637,1.801438570022583,2.386715888977051
1702061410358410000,18.731409912109374,1.0014538764953613,1.8479530811309814,2.1748743057250977
1702061410375402500,18.748402587890624,1.4253020286560059,1.8731904029846191,1.8521661758422852
1702061410392396300,18.765396240234374,1.9063061475753784,1.9983241558074951,1.3954029083251953
1702061410409391600,18.7823916015625,2.4152042865753174,2.105332374572754,1.136178970336914
1702061410426385000,18.799385009765626,2.6569573879241943,2.0912230014801025,1.200608253479004
1702061410443377700,18.816377685546875,2.6843509674072266,1.9903537034988403,1.4849128723144531
1702061410460372500,18.83337255859375,2.642608880996704,1.815468192100525,1.577712059020996
1702061410477365800,18.85036572265625,2.6891324520111084,1.6668648719787598,1.2047834396362305
1702061410494359300,18.867359375,2.784849166870117,1.5864126682281494,0.5173120498657227
1702061410511352600,18.8843525390625,2.8432164192199707,1.4936439990997314,-0.21437358856201172
1702061410528347600,18.90134765625,2.447445869445801,1.3394339084625244,-0.7885971069335938
1702061410545340200,18.918340087890623,1.9868067502975464,1.1318445205688477,-1.0578126907348633
1702061410562335000,18.9353349609375,2.162942886352539,0.8359768390655518,-0.8646020889282227
1702061410579328000,18.952327880859375,2.669398784637451,0.9348666667938232,-0.11144828796386719
1702061410596322600,18.969322509765625,2.950939655303955,1.0601568222045898,0.6777353286743164
1702061410613304600,18.9863046875,2.734443426132202,1.080892562866211,0.5917835235595703
1702061410630310000,19.003309814453125,1.8917264938354492,0.9272994995117188,-0.17776870727539062
1702061410647302400,19.020302490234375,0.8306798338890076,0.7896060943603516,-0.8323478698730469
1702061410664297500,19.03729736328125,0.10339578986167908,0.7682344913482666,-1.1689224243164062
1702061410681290200,19.054290283203127,0.20019349455833435,0.6045548915863037,-1.1530189514160156
1702061410698284800,19.071284912109373,0.876381516456604,0.5710384845733643,-0.979283332824707
1702061410715277600,19.088277587890627,1.4601638317108154,0.43702244758605957,-0.6580448150634766
1702061410732262000,19.105261962890626,1.4791998863220215,-0.023018598556518555,-0.6999130249023438
1702061410749265400,19.122265380859375,1.2509441375732422,-0.7204334735870361,-0.8880338668823242
1702061410766259700,19.139259765625,1.0242609977722168,-1.3485870361328125,-0.8919506072998047
1702061410783242000,19.156241943359376,1.1929502487182617,-1.5666749477386475,-1.1830883026123047
1702061410800244700,19.17324462890625,1.3973959684371948,-1.502091884613037,-1.2882165908813477
1702061410817237800,19.19023779296875,1.271122694015503,-1.5866715908050537,-1.052311897277832
1702061410834237700,19.20723779296875,0.7928000688552856,-1.9455848932266235,-0.9925165176391602
1702061410851227600,19.2242275390625,0.2866239547729492,-2.2814199924468994,-1.1485977172851562
1702061410868222500,19.241222412109376,-0.4526444673538208,-2.4489803314208984,-0.9578065872192383
1702061410885215200,19.25821533203125,-1.1964415311813354,-2.583517551422119,-0.5442867279052734
1702061410902209800,19.275209716796876,-1.7233563661575317,-3.0388193130493164,-0.2916145324707031
1702061410919202600,19.29220263671875,-1.8696818351745605,-3.7462034225463867,-0.4310178756713867
1702061410936199200,19.30919921875,-1.7320150136947632,-4.329848289489746,-0.9365015029907227
1702061410953177900,19.326177734375,-1.608736276626587,-4.759505271911621,-1.3733205795288086
1702061410970185000,19.34318505859375,-1.4771521091461182,-5.079732894897461,-1.5618786811828613
1702061410987177700,19.360177734375,-1.6961965560913086,-5.255211353302002,-1.486368179321289
1702061411004177000,19.377177001953125,-2.3296992778778076,-5.3569440841674805,-1.125218391418457
1702061411021155600,19.394155517578124,-2.997767210006714,-5.657238960266113,-0.648468017578125
1702061411038157000,19.411156982421875,-3.091132640838623,-6.323057174682617,-0.7742691040039062
1702061411055155200,19.4281552734375,-3.0028088092803955,-7.2537455558776855,-1.9151225090026855
1702061411072145700,19.445145751953124,-1.9861677885055542,-8.673309326171875,-2.4281959533691406
1702061411089142000,19.46214208984375,-1.3773268461227417,-10.010185241699219,-1.2064075469970703
1702061411106135300,19.47913525390625,-1.1405317783355713,-10.488046646118164,0.7090845108032227
1702061411123127600,19.49612744140625,-0.7361407279968262,-9.187582969665527,0.9471254348754883
1702061411140122600,19.51312255859375,-0.849489688873291,-8.12513256072998,0.24278736114501953
1702061411157115100,19.530115234375,-0.89483642578125,-7.590671539306641,-1.3154678344726562
1702061411174109700,19.547109619140624,-2.013591766357422,-8.032585144042969,15.89323902130127
1702061411191102700,19.564102783203126,-6.830563068389893,4.1140875816345215,9.608250617980957
1702061411208099000,19.58109912109375,-3.2769577503204346,-4.829341888427734,-3.955597400665283
1702061411225088800,19.5980888671875,-2.361046552658081,-6.717735767364502,1.7997961044311523
1702061411242085400,19.61508544921875,-1.6207654476165771,-7.289990425109863,4.111449241638184
1702061411259077000,19.6320771484375,0.32667064666748047,-6.88608980178833,3.857015609741211
1702061411276072200,19.649072265625,-0.9369587898254395,-5.910684585571289,2.0844192504882812
1702061411293065200,19.666065185546874,-2.6352686882019043,-5.904603004455566,1.6033096313476562
1702061411310059800,19.683059814453124,-3.9091944694519043,-5.270922660827637,0.7133502960205078
1702061411327052500,19.700052490234373,-4.462737560272217,-4.991511344909668,0.6836385726928711
1702061411344047400,19.71704736328125,-4.3459296226501465,-5.217986583709717,1.4484319686889648
1702061411361040000,19.734039794921873,-4.063653945922852,-5.901288032531738,1.7434968948364258
1702061411378032000,19.7510322265625,-3.2601609230041504,-6.519527435302734,0.9282112121582031
1702061411395030300,19.7680302734375,-1.9851654767990112,-6.709975242614746,-0.2925424575805664
1702061411412022300,19.785022216796875,-0.7455973625183105,-6.4085893630981445,-1.341383457183838
1702061411429015000,19.80201513671875,-0.3464930057525635,-6.13200044631958,-1.6007184982299805
1702061411446007000,19.819007080078126,-0.6328606605529785,-5.758796215057373,-1.3741540908813477
1702061411463005200,19.836005126953125,-1.4170403480529785,-5.396302223205566,-1.252603530883789
1702061411480007700,19.853007568359374,-2.138608455657959,-5.162639617919922,-1.3339471817016602
1702061411496990000,19.869989990234377,-2.4438114166259766,-4.94210147857666,-1.562809944152832
1702061411513984800,19.88698486328125,-2.0813937187194824,-4.781671047210693,-2.058717727661133
1702061411530977500,19.9039775390625,-1.4592158794403076,-4.465824604034424,-2.283268928527832
1702061411547972400,19.920972412109375,-0.9927182197570801,-4.024097919464111,-2.03562593460083
1702061411564965000,19.937965087890625,-0.9308953285217285,-3.649540901184082,-1.5326166152954102
1702061411581959700,19.954959716796875,-0.8605829477310181,-3.3900623321533203,-1.526465892791748
1702061411598942000,19.97194189453125,-0.521465539932251,-3.1899430751800537,-1.7738399505615234
1702061411615938300,19.988938232421877,-0.06248307228088379,-2.7695119380950928,-1.972991943359375
1702061411632942000,20.005942138671877,0.08414065837860107,-2.2383499145507812,-2.324134349822998
1702061411649930200,20.02293017578125,0.2553877830505371,-1.7224619388580322,-2.643345832824707
1702061411666930000,20.039929931640625,0.5396366119384766,-1.2384264469146729,-2.2059526443481445
1702061411683922200,20.056922119140626,0.5697956085205078,-0.889289140701294,-1.1267585754394531
1702061411700915000,20.0739150390625,0.5408759713172913,-0.6978511810302734,-0.25226497650146484
1702061411717909800,20.09090966796875,0.8353922963142395,-0.3878357410430908,-0.3725090026855469
1702061411734902500,20.107902587890624,1.3195788860321045,-0.13846659660339355,-1.0595169067382812
1702061411751897300,20.1248974609375,1.7769137620925903,0.022022247314453125,-1.1705055236816406
1702061411768889900,20.141889892578124,2.0373997688293457,0.22946786880493164,-0.3241996765136719
1702061411785884700,20.158884765625,1.8900874853134155,0.3489391803741455,0.7793416976928711
1702061411802877400,20.17587744140625,1.795068621635437,0.31676626205444336,1.1502513885498047
1702061411819872300,20.192872314453126,2.0570461750030518,0.27608680725097656,0.5887317657470703
1702061411836865000,20.209864990234376,2.7385880947113037,0.3845176696777344,-0.11839485168457031
1702061411853857000,20.22685693359375,3.641867160797119,0.46777987480163574,-0.019100189208984375
1702061411870855000,20.24385498046875,4.206057071685791,0.7619585990905762,0.779296875
1702061411887847400,20.260847412109374,4.270136833190918,0.7580645084381104,1.7702102661132812
1702061411904840000,20.27783984375,3.970905303955078,0.3437826633453369,2.109734535217285
1702061411921834800,20.294834716796874,3.7791318893432617,0.11218690872192383,1.406844139099121
1702061411938827300,20.3118271484375,3.7395238876342773,0.18738961219787598,0.6401147842407227
1702061411955822000,20.328822021484374,3.8560962677001953,0.4616069793701172,0.36119842529296875
1702061411972804400,20.345804443359373,4.145668983459473,0.825925350189209,0.6566867828369141
1702061411989809700,20.3628095703125,3.9067325592041016,1.497143268585205,0.8272085189819336
1702061412006802400,20.379802490234376,3.2555389404296875,1.615140438079834,1.1292781829833984
1702061412023794700,20.396794677734373,2.4906091690063477,1.3684451580047607,1.0712289810180664
1702061412040792600,20.41379248046875,2.102876663208008,0.9511477947235107,1.020528793334961
1702061412057784600,20.43078466796875,2.764742851257324,0.5063595771789551,1.4545869827270508
1702061412074763300,20.44776318359375,4.3399577140808105,0.48708033561706543,2.105365753173828
1702061412091772200,20.464772216796874,5.45695686340332,1.102653980255127,3.1627349853515625
1702061412108765200,20.48176513671875,5.743865966796875,1.791555643081665,4.355582237243652
1702061412125759500,20.498759521484374,5.797840118408203,1.619903802871704,4.245153427124023
1702061412142752300,20.515752197265623,5.969886779785156,1.4825667142868042,2.4288101196289062
1702061412159747000,20.5327470703125,4.606066703796387,0.9779136180877686,1.2318038940429688
1702061412176739800,20.54973974609375,3.1683998107910156,0.8854334354400635,1.259535789489746
1702061412193734700,20.566734619140625,1.43638014793396,1.2714779376983643,1.8187532424926758
1702061412210727200,20.58372705078125,-1.3562984466552734,1.5730589628219604,3.0072784423828125
1702061412227722000,20.600721923828125,-3.1722402572631836,1.8860265016555786,2.6724653244018555
1702061412244714800,20.61771484375,-2.392073631286621,1.9953612089157104,0.9793357849121094
1702061412261709600,20.63470947265625,-1.8086700439453125,1.2540593147277832,0.12073135375976562
1702061412278702300,20.651702392578127,-0.7809774875640869,0.6780664920806885,0.22156906127929688
1702061412295697200,20.668697265625,0.836245059967041,0.536445140838623,1.2751083374023438
1702061412312690000,20.68568994140625,2.511110305786133,0.5471374988555908,2.831775665283203
1702061412329684500,20.7026845703125,3.283827781677246,0.84210205078125,3.925663948059082
1702061412346677200,20.71967724609375,2.94840145111084,1.3285284042358398,3.5812511444091797
1702061412363672000,20.736672119140625,2.078184127807617,1.7964797019958496,2.5253944396972656
1702061412380665000,20.7536650390625,1.5050022602081299,2.1713294982910156,1.784627914428711
1702061412397659600,20.77065966796875,1.3761307001113892,2.4185523986816406,1.428553581237793
1702061412414649600,20.787649658203126,1.940528154373169,2.5634751319885254,1.814478874206543
1702061412431649800,20.80464990234375,2.3436391353607178,2.6184632778167725,2.569232940673828
1702061412448639700,20.8216396484375,2.4392402172088623,2.5777947902679443,2.6716108322143555
1702061412465634300,20.83863427734375,2.383840799331665,2.5076351165771484,1.8601446151733398
1702061412482627300,20.85562744140625,2.4526991844177246,2.3570871353149414,0.8292760848999023
1702061412499621600,20.87262158203125,2.8770089149475098,2.1546597480773926,0.22635269165039062
1702061412516615000,20.889614990234374,3.3533742427825928,1.9874725341796875,0.4732789993286133
1702061412533609200,20.906609130859376,3.7000389099121094,1.6468020677566528,1.1064624786376953
1702061412550602200,20.923602294921874,3.8539865016937256,1.2542812824249268,1.255859375
1702061412567588000,20.940588134765626,3.7492103576660156,1.0286195278167725,0.5223360061645508
1702061412584582000,20.957581787109376,3.3855371475219727,0.8562581539154053,-0.5266637802124023
1702061412601581800,20.974581787109376,3.0745692253112793,0.6484540700912476,-1.5721139907836914
1702061412618579700,20.991579833984375,2.6407270431518555,0.35390329360961914,-1.9026451110839844
1702061412635571000,21.008571044921876,2.1718173027038574,0.09618425369262695,-1.217010498046875
1702061412652565500,21.0255654296875,1.6481387615203857,-0.730677604675293,0.2276439666748047
1702061412669559300,21.042559326171876,1.2689193487167358,-1.3474318981170654,-0.04616260528564453
1702061412686552000,21.059552001953126,1.0152610540390015,-0.9928369522094727,-2.48482608795166
1702061412703547100,21.076547119140624,0.9084083437919617,-0.10916173458099365,-4.4471845626831055
1702061412720539600,21.09353955078125,0.3969672620296478,0.3620781898498535,-4.0842084884643555
1702061412737534200,21.1105341796875,-0.3010771870613098,0.37592971324920654,-2.422088623046875
1702061412754527000,21.12752685546875,-0.7608579993247986,0.276350736618042,-0.5753173828125
1702061412771521800,21.144521728515624,-0.7447918057441711,0.3136451244354248,0.7958183288574219
1702061412788514800,21.161514892578126,-0.20430278778076172,0.13880789279937744,0.9576959609985352
1702061412805497900,21.178497802734373,0.3508734107017517,-0.5087913274765015,0.38384151458740234
1702061412822503200,21.195503173828126,0.6127461194992065,-1.3789730072021484,-0.3859891891479492
1702061412839489300,21.2124892578125,0.7232200503349304,-2.033033847808838,-0.5063858032226562
1702061412856492300,21.2294921875,0.44071632623672485,-2.220762014389038,-0.21375751495361328
1702061412873484300,21.246484375,-0.21966803073883057,-2.2736563682556152,-0.5083980560302734
1702061412890477000,21.26347705078125,-0.9861228466033936,-2.642883777618408,-1.1908502578735352
1702061412907471600,21.2804716796875,-1.3954129219055176,-3.143501043319702,-1.8378019332885742
1702061412924464600,21.297464599609373,-1.360077142715454,-3.337583541870117,-2.432309150695801
1702061412941459200,21.314459228515624,-0.7725189328193665,-3.330282688140869,-2.258174419403076
1702061412958452000,21.331451904296873,-0.4466072916984558,-3.6151528358459473,-0.8009185791015625
1702061412975446800,21.34844677734375,-0.6073102951049805,-4.221529006958008,0.4974203109741211
1702061412992439600,21.365439453125,-1.017016887664795,-4.375184535980225,0.5985126495361328
1702061413009434400,21.382434326171875,-1.6289520263671875,-4.2604546546936035,0.4884510040283203
1702061413026427000,21.399427001953125,-2.0553064346313477,-4.1963911056518555,0.8170280456542969
1702061413043421700,21.416421630859375,-2.5148515701293945,-4.419434547424316,1.3803987503051758
1702061413060414500,21.43341455078125,-2.8314671516418457,-5.1218037605285645,1.2926788330078125
1702061413077409300,21.4504091796875,-2.3127360343933105,-5.806135654449463,0.40080928802490234
