time,seconds_elapsed,z,y,x
1702063237026171000,0.1761708984375,-6.381917476654053,2.466696262359619,1.8117213249206543
1702063237043164000,0.193163818359375,-7.446941375732422,2.946627616882324,4.327423095703125
1702063237060141800,0.210141845703125,-6.9629292488098145,3.4750232696533203,5.90135383605957
1702063237077149400,0.2271494140625,-6.332387447357178,4.235311031341553,7.196921348571777
1702063237094145000,0.24414501953125,-5.397248268127441,4.48331356048584,8.836176872253418
1702063237111137000,0.261136962890625,-3.6075170040130615,5.294775485992432,12.414072036743164
1702063237128130600,0.278130615234375,-2.736091136932373,5.235650539398193,14.15534496307373
1702063237145127400,0.29512744140625,-2.9349045753479004,5.512285232543945,13.188547134399414
1702063237162122000,0.3121220703125,-3.6184020042419434,5.841261863708496,12.635711669921875
1702063237179112200,0.3291123046875,-4.6469221115112305,5.782917022705078,12.91898250579834
1702063237196109000,0.346109130859375,-5.779601097106934,5.845647811889648,13.32474136352539
1702063237213102600,0.3631025390625,-6.732385635375977,5.843269348144531,13.726834297180176
1702063237230097200,0.38009716796875,-7.820504665374756,5.591504096984863,13.670575141906738
1702063237247087400,0.39708740234375,-7.349699974060059,5.001924514770508,13.420400619506836
1702063237264083500,0.41408349609375,-6.212401390075684,4.718222618103027,13.20388412475586
1702063237281069300,0.4310693359375,-5.171230316162109,4.621496200561523,13.26573657989502
1702063237298066000,0.44806591796875,-4.68288516998291,4.408629894256592,13.478187561035156
1702063237315067600,0.465067626953125,-4.8365983963012695,4.062250137329102,14.118523597717285
1702063237332055600,0.4820556640625,-5.222617149353027,3.548738479614258,14.583112716674805
1702063237349050600,0.499050537109375,-5.565779685974121,2.9704911708831787,14.550965309143066
1702063237366047200,0.516047119140625,-5.829414367675781,2.341857671737671,13.865045547485352
1702063237383040500,0.53304052734375,-5.709473133087158,2.1128182411193848,12.741251945495605
1702063237400033500,0.550033447265625,-5.499455451965332,2.1780636310577393,12.1368408203125
1702063237417028400,0.5670283203125,-5.498852729797363,1.9121475219726562,12.80631160736084
1702063237434022100,0.584022216796875,-5.393937587738037,1.4453473091125488,13.377161026000977
1702063237451013600,0.601013671875,-5.140389919281006,0.8011276721954346,13.227019309997559
1702063237468009500,0.618009521484375,-5.152710914611816,0.18517732620239258,12.394673347473145
1702063237485013000,0.635012939453125,-5.499102592468262,-0.15763139724731445,11.16466999053955
1702063237501991200,0.6519912109375,-5.786590576171875,-0.2166290283203125,10.091224670410156
1702063237518987300,0.6689873046875,-6.140161514282227,-0.5483629703521729,10.03756332397461
1702063237535990300,0.685990234375,-6.181342124938965,-1.2399864196777344,10.519018173217773
1702063237552982500,0.702982421875,-6.281557083129883,-1.9993772506713867,10.479625701904297
1702063237569976600,0.7199765625,-6.401473045349121,-2.5323007106781006,9.822142601013184
1702063237586964200,0.736964111328125,-6.359582901000977,-2.353703260421753,8.870291709899902
1702063237603960300,0.753960205078125,-6.258934020996094,-2.188359260559082,8.364029884338379
1702063237620956000,0.770955810546875,-6.1754560470581055,-2.3182830810546875,8.430587768554688
1702063237637945000,0.787945068359375,-5.976435661315918,-2.5462300777435303,8.467825889587402
1702063237654941700,0.804941650390625,-5.470215797424316,-2.869218349456787,8.313654899597168
1702063237671926500,0.821926513671875,-4.970185279846191,-2.969001531600952,7.854878902435303
1702063237688927000,0.838927001953125,-4.590357780456543,-3.353825569152832,7.423210620880127
1702063237705919700,0.855919677734375,-4.512813568115234,-4.218216896057129,7.00396203994751
1702063237722911200,0.8729111328125,-4.9446210861206055,-4.41825008392334,6.365866661071777
1702063237739902000,0.88990185546875,-5.896774768829346,-4.342592239379883,5.690713405609131
1702063237756902000,0.90690185546875,-6.896756649017334,-4.030704498291016,5.550500392913818
1702063237773900800,0.92390087890625,-7.16787052154541,-3.7849814891815186,6.040145397186279
1702063237790893800,0.940893798828125,-7.198106288909912,-4.4181718826293945,6.810653209686279
1702063237807884800,0.957884765625,-7.463301181793213,-5.19815731048584,7.095831871032715
1702063237824879000,0.974879150390625,-7.414722919464111,-5.502739429473877,7.727888107299805
1702063237841875000,0.991875,-7.7731523513793945,-5.554265975952148,9.114221572875977
1702063237858865200,1.008865234375,-8.218124389648438,-5.750977516174316,10.38716983795166
1702063237875862000,1.025862060546875,-8.535012245178223,-6.2162604331970215,10.822174072265625
1702063237892845000,1.042844970703125,-8.48326301574707,-6.497267246246338,10.257989883422852
1702063237909850400,1.059850341796875,-7.9354424476623535,-6.528191089630127,9.434444427490234
1702063237926839300,1.07683935546875,-8.124078750610352,-6.48960018157959,9.191731452941895
1702063237943838200,1.093838134765625,-8.580763816833496,-6.619821071624756,9.355169296264648
1702063237960838000,1.110837890625,-8.969404220581055,-7.424367427825928,10.046547889709473
1702063237977819400,1.1278193359375,-8.964554786682129,-8.364813804626465,10.603143692016602
1702063237994820000,1.144820068359375,-8.892229080200195,-8.689815521240234,10.401761054992676
1702063238011810000,1.16181005859375,-8.694257736206055,-8.741169929504395,10.455894470214844
1702063238028804600,1.1788046875,-8.382781982421875,-8.728187561035156,10.760087966918945
1702063238045802800,1.195802734375,-8.536680221557617,-9.254619598388672,11.344313621520996
1702063238062793500,1.21279345703125,-8.983787536621094,-9.940827369689941,12.121366500854492
1702063238079788800,1.229788818359375,-9.315256118774414,-9.929491996765137,12.211442947387695
1702063238096779800,1.24677978515625,-9.163363456726074,-9.459427833557129,10.990150451660156
1702063238113774600,1.263774658203125,-8.256082534790039,-9.337154388427734,9.712148666381836
1702063238130769000,1.280768798828125,-7.20406436920166,-8.993185997009277,8.793889999389648
1702063238147758800,1.2977587890625,-6.987397193908691,-9.008560180664062,8.634190559387207
1702063238164760300,1.31476025390625,-7.795495510101318,-9.311501502990723,8.831679344177246
1702063238181737200,1.3317373046875,-8.756061553955078,-8.932347297668457,8.462611198425293
1702063238198743000,1.348742919921875,-8.993066787719727,-8.055192947387695,7.6058549880981445
1702063238215740200,1.365740234375,-8.819853782653809,-7.488809585571289,6.954773426055908
1702063238232732000,1.38273193359375,-8.306041717529297,-7.407742023468018,6.977413177490234
1702063238249724400,1.399724365234375,-7.499361038208008,-7.238329887390137,7.338435173034668
1702063238266718500,1.416718505859375,-7.250439643859863,-6.334688186645508,7.585640907287598
1702063238283717400,1.43371728515625,-7.674221992492676,-5.419692516326904,7.859519004821777
1702063238300707000,1.45070703125,-8.452993392944336,-4.904003143310547,7.996649265289307
1702063238317686500,1.4676865234375,-8.87791919708252,-4.2858967781066895,7.570655345916748
1702063238334695000,1.48469482421875,-8.597869873046875,-3.3199758529663086,6.698094844818115
1702063238351680300,1.50168017578125,-7.883788108825684,-2.244887351989746,6.0228271484375
1702063238368681000,1.518680908203125,-7.081431865692139,-1.0870318412780762,5.758249282836914
1702063238385676800,1.5356767578125,-6.7524003982543945,-0.3271780014038086,5.769821643829346
1702063238402662000,1.552661865234375,-6.805820941925049,0.009337425231933594,6.032304763793945
1702063238419662600,1.56966259765625,-7.151619911193848,0.6493086814880371,5.728471755981445
1702063238436659500,1.586659423828125,-7.275093078613281,1.5291938781738281,5.4571332931518555
1702063238453651200,1.603651123046875,-7.125985622406006,2.1414260864257812,5.571082592010498
1702063238470646800,1.620646728515625,-7.095592975616455,2.0647082328796387,5.987000465393066
1702063238487636500,1.637636474609375,-6.809135437011719,2.1700096130371094,6.670037746429443
1702063238504633300,1.65463330078125,-5.725864887237549,2.419586658477783,7.746914386749268
1702063238521628200,1.671628173828125,-4.820966720581055,2.626570701599121,8.701417922973633
1702063238538621400,1.688621337890625,-4.2629194259643555,2.6721248626708984,8.944772720336914
1702063238555612000,1.70561181640625,-3.744288682937622,2.9019346237182617,8.246793746948242
1702063238572612900,1.72261279296875,-3.471742630004883,3.2552785873413086,7.217408180236816
1702063238589600000,1.73960009765625,-3.5409538745880127,3.3030648231506348,6.710535049438477
1702063238606596900,1.756596923828125,-4.008316993713379,3.207578182220459,6.946592330932617
1702063238623584500,1.77358447265625,-4.263723373413086,3.466907024383545,8.163751602172852
1702063238640584700,1.790584716796875,-4.695641040802002,3.772486686706543,9.922408103942871
1702063238657575400,1.807575439453125,-4.931399822235107,3.956024169921875,11.272056579589844
1702063238674570800,1.82457080078125,-4.880330562591553,3.830540657043457,11.618979454040527
1702063238691566600,1.841566650390625,-3.9873592853546143,3.615602493286133,10.997419357299805
1702063238708556500,1.858556640625,-2.9003496170043945,3.4543557167053223,10.389262199401855
1702063238725553200,1.87555322265625,-2.1897807121276855,3.527912139892578,10.168838500976562
1702063238742546700,1.892546630859375,-2.305633306503296,3.6573095321655273,10.497756958007812
1702063238759538400,1.909538330078125,-3.0229392051696777,3.226499557495117,11.322272300720215
1702063238776533200,1.926533203125,-3.662604331970215,2.8885464668273926,11.64481258392334
1702063238793529600,1.943529541015625,-4.038037300109863,2.822357177734375,11.11989688873291
1702063238810523400,1.9605234375,-3.9009532928466797,3.3480734825134277,10.412087440490723
1702063238827510000,1.977510009765625,-4.089175701141357,3.349919319152832,10.962451934814453
1702063238844512800,1.9945126953125,-4.908418655395508,2.43902587890625,12.506280899047852
1702063238861514000,2.011513916015625,-5.539348602294922,2.220942497253418,13.271541595458984
1702063238878494500,2.028494384765625,-5.966806411743164,2.4574508666992188,13.016587257385254
1702063238895497700,2.045497802734375,-5.726923942565918,3.0986452102661133,12.144314765930176
1702063238912476700,2.0624765625,-5.334007263183594,3.1558079719543457,11.934162139892578
1702063238929479000,2.07947900390625,-5.6620283126831055,2.6008386611938477,12.207172393798828
1702063238946473200,2.09647314453125,-5.771265029907227,2.8936338424682617,11.938100814819336
1702063238963466000,2.113466064453125,-5.590012550354004,3.0748367309570312,11.945444107055664
1702063238980463900,2.1304638671875,-5.371696949005127,3.101396083831787,11.967774391174316
1702063238997459500,2.14745947265625,-5.464545249938965,2.6656570434570312,12.102744102478027
1702063239014448000,2.1644482421875,-5.709664821624756,2.5063071250915527,11.824284553527832
1702063239031442400,2.1814423828125,-5.868528366088867,2.3312625885009766,11.852981567382812
1702063239048433400,2.198433349609375,-5.748458385467529,2.1752395629882812,12.519619941711426
1702063239065429500,2.215429443359375,-5.475343227386475,2.2148752212524414,13.061748504638672
1702063239082425000,2.232425048828125,-5.305590629577637,2.339127540588379,13.258783340454102
1702063239099413800,2.249413818359375,-4.890744209289551,2.671959400177002,12.7966890335083
1702063239116411600,2.26641162109375,-4.614584922790527,2.7002387046813965,12.359700202941895
1702063239133406000,2.283406005859375,-4.575796604156494,2.478616714477539,12.26289176940918
1702063239150398000,2.30039794921875,-4.790399074554443,2.3954286575317383,12.579950332641602
1702063239167389700,2.3173896484375,-5.3109588623046875,2.502932071685791,13.11223030090332
1702063239184386000,2.334385986328125,-5.843548774719238,2.7008190155029297,13.571237564086914
1702063239201381000,2.351381103515625,-5.868185997009277,3.0725631713867188,13.199514389038086
1702063239218371000,2.36837109375,-5.606992721557617,3.380796432495117,12.04358959197998
1702063239235369000,2.385368896484375,-5.087223052978516,3.5570850372314453,11.092889785766602
1702063239252361500,2.402361572265625,-4.571837902069092,3.6167778968811035,10.615099906921387
1702063239269345000,2.419344970703125,-4.325921535491943,3.4457521438598633,10.665773391723633
1702063239286349300,2.436349365234375,-4.385966777801514,3.3598289489746094,10.77602767944336
1702063239303343000,2.453343017578125,-4.146827697753906,3.5238637924194336,10.410825729370117
1702063239320338700,2.470338623046875,-3.8151185512542725,3.728060722351074,9.691807746887207
1702063239337327600,2.48732763671875,-3.391322135925293,3.9058332443237305,8.985369682312012
1702063239354324200,2.50432421875,-3.043954610824585,4.112049102783203,8.308710098266602
1702063239371319600,2.521319580078125,-3.2127909660339355,4.425514221191406,7.8274030685424805
1702063239388309800,2.538309814453125,-4.041236877441406,4.20860481262207,8.63663387298584
1702063239405287200,2.555287109375,-4.08180046081543,3.6260933876037598,9.701470375061035
1702063239422293500,2.57229345703125,-3.4251492023468018,3.280367851257324,9.933079719543457
1702063239439291100,2.589291015625,-3.017487049102783,3.0723013877868652,9.387484550476074
1702063239456288300,2.606288330078125,-3.2242701053619385,2.8595199584960938,8.549967765808105
1702063239473280800,2.62328076171875,-3.793832302093506,2.424987316131592,7.769555568695068
1702063239490276400,2.6402763671875,-4.803240776062012,1.866267204284668,7.2553534507751465
1702063239507266300,2.657266357421875,-5.711533069610596,1.4081058502197266,6.966420650482178
1702063239524261000,2.67426123046875,-6.025965690612793,0.9212493896484375,6.954795837402344
1702063239541257000,2.691257080078125,-6.046030044555664,0.8456425666809082,6.478658199310303
1702063239558249200,2.708249267578125,-5.979528427124023,0.4787020683288574,5.773426055908203
1702063239575244000,2.725244140625,-5.850566864013672,0.08279275894165039,4.869113445281982
1702063239592240000,2.742240234375,-5.841066360473633,-0.07211446762084961,4.181834697723389
1702063239609229000,2.75922900390625,-5.917722702026367,0.026634693145751953,4.128474235534668
1702063239626226200,2.77622607421875,-6.383772850036621,-0.11172008514404297,5.004322528839111
1702063239643209200,2.793209228515625,-6.555312633514404,-0.3381023406982422,6.046184062957764
1702063239660215000,2.810215087890625,-6.5313568115234375,-0.7130889892578125,6.515326023101807
1702063239677203200,2.827203125,-6.470385551452637,-0.9700736999511719,6.17644739151001
1702063239694201900,2.844201904296875,-6.626830101013184,-1.0129814147949219,5.213820457458496
1702063239711196400,2.861196533203125,-6.672983169555664,-1.0497241020202637,4.672513961791992
1702063239728186000,2.87818603515625,-6.947866916656494,-1.403059959411621,4.97022008895874
1702063239745183500,2.89518359375,-7.307810306549072,-2.0122785568237305,5.145601749420166
1702063239762177800,2.912177734375,-8.071308135986328,-2.551967144012451,5.285731792449951
1702063239779167500,2.92916748046875,-8.903236389160156,-3.2021589279174805,4.840822696685791
1702063239796164600,2.94616455078125,-9.54057788848877,-3.7647318840026855,4.672820091247559
1702063239813157400,2.963157470703125,-10.175549507141113,-4.410242557525635,5.276007175445557
1702063239830153000,2.980153076171875,-10.904510498046875,-5.207759857177734,6.011224746704102
1702063239847142700,2.997142578125,-11.202320098876953,-5.844804763793945,6.544447422027588
1702063239864128800,3.014128662109375,-11.419157981872559,-6.004721164703369,6.676063537597656
1702063239881134300,3.03113427734375,-11.372861862182617,-6.003321647644043,6.625638961791992
1702063239898124300,3.048124267578125,-11.359151840209961,-6.332622051239014,6.5218915939331055
1702063239915118600,3.06511865234375,-10.294589042663574,-6.3970136642456055,5.884665489196777
1702063239932129500,3.082129638671875,-8.833221435546875,-6.687969207763672,5.1533098220825195
1702063239949105400,3.09910546875,-8.558365821838379,-7.462407112121582,5.224065780639648
1702063239966100200,3.116100341796875,-9.656376838684082,-8.427709579467773,6.245786666870117
1702063239983097000,3.13309716796875,-10.522493362426758,-9.064117431640625,6.842215538024902
1702063240000091400,3.15009130859375,-10.338417053222656,-9.830684661865234,8.593964576721191
1702063240017083600,3.167083740234375,-10.06863784790039,-10.908548355102539,10.92389965057373
1702063240034078200,3.184078125,-9.750078201293945,-10.687915802001953,10.65599536895752
1702063240051072300,3.201072265625,-9.826034545898438,-10.692181587219238,9.786421775817871
1702063240068066300,3.21806640625,-10.75782299041748,-10.628582000732422,8.485182762145996
1702063240085048800,3.235048828125,-11.624341011047363,-10.430656433105469,7.466363430023193
1702063240102042400,3.25204248046875,-11.953805923461914,-10.48974895477295,7.138944625854492
1702063240119037700,3.26903759765625,-11.639636039733887,-10.54512882232666,6.875645637512207
1702063240136042200,3.286042236328125,-10.653886795043945,-10.442647933959961,6.7904863357543945
1702063240153041000,3.303041015625,-9.87617015838623,-10.24701976776123,6.54669189453125
1702063240170026200,3.320026123046875,-9.52710247039795,-9.941519737243652,5.816098690032959
1702063240187025400,3.337025390625,-9.33556079864502,-9.827181816101074,5.028861999511719
1702063240204017200,3.35401708984375,-8.730500221252441,-9.46239948272705,4.348322868347168
1702063240221007400,3.37100732421875,-7.765209197998047,-8.807846069335938,4.15810489654541
1702063240238006800,3.3880068359375,-7.20338249206543,-7.735134124755859,4.080351829528809
1702063240254998000,3.404998046875,-7.006905555725098,-6.507359027862549,3.9405393600463867
1702063240271992000,3.421991943359375,-7.127956390380859,-5.615597724914551,3.914069890975952
1702063240288985300,3.4389853515625,-7.451903343200684,-5.132475852966309,4.092898845672607
1702063240305972700,3.45597265625,-7.752723693847656,-4.779141426086426,4.2420501708984375
1702063240322974500,3.472974365234375,-7.786705017089844,-4.21237850189209,4.408674716949463
1702063240339967500,3.489967529296875,-7.715409278869629,-3.387784957885742,4.583613395690918
1702063240356960800,3.506960693359375,-7.501814842224121,-2.5588202476501465,4.722012519836426
1702063240373954600,3.52395458984375,-7.191727638244629,-2.038269519805908,5.139078617095947
1702063240390946000,3.540946044921875,-7.017552375793457,-1.5511131286621094,5.321693420410156
1702063240407945500,3.557945556640625,-6.820169448852539,-0.9377799034118652,5.238347053527832
1702063240424936000,3.57493603515625,-6.499505043029785,-0.0995783805847168,4.989989280700684
1702063240441927400,3.591927490234375,-6.147815227508545,0.5580687522888184,4.815985679626465
1702063240458926600,3.608926513671875,-5.81711483001709,0.8780422210693359,4.9428558349609375
1702063240475918000,3.62591796875,-5.4334259033203125,1.2251510620117188,5.205196380615234
1702063240492911400,3.642911376953125,-5.122537612915039,1.8199234008789062,5.463296890258789
1702063240509905400,3.659905517578125,-5.1441216468811035,2.254403591156006,5.779499053955078
1702063240526899200,3.676899169921875,-5.176097869873047,2.5046024322509766,6.0554046630859375
1702063240543890400,3.693890380859375,-5.0496697425842285,2.6346559524536133,6.365505695343018
1702063240560886500,3.710886474609375,-5.043245315551758,2.6911215782165527,6.860481262207031
1702063240577880800,3.727880859375,-5.307295322418213,2.6994729042053223,7.483082294464111
1702063240594874600,3.74487451171875,-5.5425920486450195,2.725831985473633,7.92428731918335
1702063240611868700,3.76186865234375,-5.625736713409424,2.429719924926758,8.645398139953613
1702063240628862000,3.778862060546875,-5.123924732208252,2.649923324584961,9.034092903137207
1702063240645856000,3.79585595703125,-4.353143692016602,2.7325334548950195,9.33862590789795
1702063240662850000,3.81285009765625,-3.601804256439209,2.8196592330932617,9.585084915161133
1702063240679833600,3.82983349609375,-2.9237558841705322,2.941049575805664,9.784967422485352
1702063240696834000,3.846833984375,-2.548851251602173,2.903198719024658,10.033700942993164
1702063240713824300,3.86382421875,-2.3112733364105225,2.9186325073242188,10.229524612426758
1702063240730825200,3.8808251953125,-1.5303112268447876,2.821636199951172,10.854524612426758
1702063240747826400,3.897826416015625,-0.7729015350341797,2.8319597244262695,11.203628540039062
1702063240764812500,3.9148125,-0.4948842525482178,3.1199722290039062,11.288875579833984
1702063240781806600,3.931806640625,-0.9920367002487183,3.3118181228637695,11.473634719848633
1702063240798800400,3.94880029296875,-1.632138967514038,3.6051692962646484,11.491715431213379
1702063240815795000,3.965794921875,-2.2718050479888916,3.786985397338867,11.091158866882324
1702063240832785400,3.982785400390625,-2.743756055831909,3.825692653656006,10.707011222839355
1702063240849784600,3.99978466796875,-2.9022974967956543,3.8753767013549805,10.780633926391602
1702063240866775800,4.01677587890625,-3.1903367042541504,3.895386219024658,11.29355239868164
1702063240883767300,4.033767333984375,-3.815850257873535,3.682615280151367,11.530224800109863
1702063240900766000,4.050765869140625,-4.282107353210449,3.957749843597412,10.305593490600586
1702063240917757400,4.06775732421875,-4.4839863777160645,4.434259414672852,8.900725364685059
1702063240934751500,4.08475146484375,-4.219231128692627,4.843691825866699,8.792567253112793
1702063240951745300,4.101745361328125,-4.2812018394470215,4.720630168914795,10.267032623291016
1702063240968738800,4.11873876953125,-4.731662750244141,4.444555282592773,11.780677795410156
1702063240985725000,4.135724853515625,-5.8646321296691895,5.1260504722595215,14.234600067138672
1702063241002716700,4.152716552734375,-5.305675983428955,5.933103561401367,12.319605827331543
1702063241019720700,4.169720703125,-5.2065935134887695,6.003640174865723,10.042099952697754
1702063241036713700,4.186713623046875,-5.117790699005127,5.589166164398193,9.236473083496094
1702063241053708000,4.2037080078125,-5.323298454284668,5.206143379211426,10.499988555908203
1702063241070701800,4.220701904296875,-4.923765659332275,4.95243501663208,12.080909729003906
1702063241087695400,4.2376953125,-3.689547061920166,4.812849044799805,11.858643531799316
1702063241104690000,4.25468994140625,-3.584252119064331,4.648566722869873,10.980664253234863
1702063241121683500,4.271683349609375,-4.262942314147949,4.860192775726318,10.01901626586914
1702063241138677000,4.288677001953125,-4.217161655426025,4.932204246520996,9.290874481201172
1702063241155671300,4.30567138671875,-4.226263999938965,4.747921943664551,9.791044235229492
1702063241172664600,4.32266455078125,-4.052050590515137,4.654214859008789,11.095154762268066
1702063241189658600,4.33965869140625,-3.37455415725708,4.7307868003845215,12.002355575561523
1702063241206652400,4.35665234375,-2.806793212890625,4.851524829864502,12.174187660217285
1702063241223643100,4.37364306640625,-2.5597620010375977,4.864129543304443,11.245951652526855
1702063241240639700,4.3906396484375,-2.581024169921875,4.830897808074951,9.858229637145996
1702063241257634000,4.407634033203125,-2.9551563262939453,4.732517242431641,9.06842041015625
1702063241274627800,4.4246279296875,-3.38028621673584,4.6190948486328125,9.438730239868164
1702063241291622000,4.441621826171875,-3.3262240886688232,4.638837814331055,10.27383804321289
1702063241308615200,4.458615234375,-2.8366518020629883,4.602299690246582,10.459465026855469
1702063241325609200,4.475609130859375,-2.0136475563049316,4.424961090087891,9.59654426574707
1702063241342603000,4.49260302734375,-1.1997841596603394,4.391643047332764,8.280303955078125
1702063241359597300,4.509597412109375,-0.7276811599731445,4.5149641036987305,7.289352893829346
1702063241376590300,4.52659033203125,-0.8034732341766357,4.59089469909668,7.221121311187744
1702063241393584400,4.54358447265625,-1.3127400875091553,4.606700897216797,7.667047500610352
1702063241410578400,4.560578369140625,-1.8668774366378784,4.545774936676025,8.137425422668457
1702063241427572700,4.57757275390625,-2.0288355350494385,4.499259948730469,8.136197090148926
1702063241444565800,4.594565673828125,-1.8689556121826172,4.543664455413818,7.787936687469482
1702063241461549000,4.611549072265625,-1.9072859287261963,4.418839931488037,7.337841510772705
1702063241478553900,4.628553955078125,-2.362448215484619,4.088631629943848,7.114486217498779
1702063241495548000,4.6455478515625,-3.012564182281494,3.946216106414795,6.997348308563232
1702063241512541200,4.662541259765625,-3.585533857345581,3.8869428634643555,6.936443328857422
1702063241529535000,4.679534912109375,-3.9054741859436035,3.8053455352783203,6.972802639007568
1702063241546529000,4.696529052734375,-4.137840747833252,3.626506805419922,6.980848789215088
1702063241563523000,4.713523193359375,-4.222794055938721,3.4689559936523438,6.72542142868042
1702063241580516400,4.730516357421875,-4.348596096038818,3.42073917388916,6.220489978790283
1702063241597510400,4.747510498046875,-4.590534210205078,3.2846732139587402,5.91372537612915
1702063241614504400,4.76450439453125,-5.0175981521606445,2.9902400970458984,5.769054889678955
1702063241631498200,4.781498291015625,-5.624802112579346,2.6561365127563477,5.599468231201172
1702063241648476200,4.79847607421875,-6.207216739654541,2.392852783203125,5.245479583740234
1702063241665485800,4.81548583984375,-6.481338024139404,2.2502074241638184,4.7876176834106445
1702063241682479600,4.832479736328125,-6.303659439086914,2.1091151237487793,4.694389343261719
1702063241699473700,4.8494736328125,-6.147548675537109,1.7368197441101074,5.241636276245117
1702063241716467200,4.86646728515625,-6.316009044647217,1.4105920791625977,6.101876258850098
1702063241733461200,4.883461181640625,-6.80653715133667,1.2707481384277344,6.27733850479126
1702063241750455000,4.900455078125,-7.364964008331299,1.1811871528625488,6.022532939910889
1702063241767449000,4.917448974609375,-7.789419174194336,1.2410459518432617,5.463396072387695
1702063241784442400,4.9344423828125,-8.007791519165039,1.142385482788086,5.0591936111450195
1702063241801433900,4.951433837890625,-7.9732489585876465,0.7663040161132812,5.116934299468994
1702063241818432800,4.968432861328125,-7.9124932289123535,0.2376542091369629,5.449888229370117
1702063241835424300,4.98542431640625,-7.515716552734375,-0.08854103088378906,5.406444549560547
1702063241852428800,5.0024287109375,-7.464389801025391,-0.2568988800048828,5.129082679748535
1702063241869411800,5.019411865234375,-7.599130153656006,-0.6290907859802246,5.196891784667969
1702063241886405600,5.036405517578125,-8.134622573852539,-1.303037166595459,5.48543119430542
1702063241903399700,5.053399658203125,-8.660097122192383,-1.9399595260620117,5.5025739669799805
1702063241920393000,5.07039306640625,-8.871156692504883,-2.286346912384033,4.943007469177246
1702063241937389600,5.0873896484375,-8.93189811706543,-2.5247011184692383,4.643092632293701
1702063241954366500,5.104366455078125,-9.08752155303955,-2.376883029937744,4.629952430725098
1702063241971375000,5.121375,-9.65951919555664,-2.2381277084350586,4.841937065124512
1702063241988368400,5.138368408203125,-10.257564544677734,-2.953620433807373,5.566596031188965
1702063242005371100,5.15537109375,-10.277328491210938,-3.73459529876709,6.309281349182129
1702063242022356200,5.172356201171875,-9.636567115783691,-3.747530460357666,6.803555488586426
1702063242039350300,5.189350341796875,-9.584778785705566,-3.6761231422424316,6.39876651763916
1702063242056343600,5.206343505859375,-8.954768180847168,-3.313657283782959,5.451780319213867
1702063242073337600,5.223337646484375,-8.322014808654785,-3.331820011138916,5.874963283538818
1702063242090334700,5.240334716796875,-8.538500785827637,-3.51224946975708,7.518634796142578
1702063242107322400,5.257322265625,-9.666921615600586,-4.083183288574219,10.05933952331543
1702063242124319000,5.274319091796875,-14.376679420471191,-4.376124858856201,16.006547927856445
1702063242141308400,5.291308349609375,-9.923245429992676,-2.9284796714782715,9.615219116210938
1702063242158311400,5.3083115234375,-9.395519256591797,-4.5248894691467285,9.033866882324219
1702063242175300900,5.32530078125,-8.441546440124512,-5.117814540863037,8.978710174560547
1702063242192294400,5.34229443359375,-8.26928997039795,-4.8856658935546875,9.35428237915039
1702063242209288400,5.359288330078125,-9.255776405334473,-4.857454776763916,9.892374038696289
1702063242226282000,5.376281982421875,-10.80052375793457,-5.024622917175293,9.284778594970703
1702063242243276300,5.3932763671875,-11.471572875976562,-5.0814619064331055,7.732891082763672
1702063242260259300,5.41025927734375,-11.430015563964844,-5.091641426086426,6.132175445556641
1702063242277263600,5.427263671875,-11.061588287353516,-5.094183921813965,5.315003395080566
1702063242294257400,5.44425732421875,-10.572206497192383,-5.0617828369140625,5.0563154220581055
1702063242311251500,5.46125146484375,-10.121430397033691,-4.709972381591797,4.955104827880859
1702063242328235300,5.4782353515625,-9.616959571838379,-3.9911160469055176,4.765505790710449
1702063242345239000,5.495239013671875,-9.129607200622559,-3.3938655853271484,4.649231433868408
1702063242362232800,5.51223291015625,-9.028746604919434,-3.324861526489258,4.655622482299805
1702063242379227000,5.529226806640625,-9.171393394470215,-3.2099733352661133,4.426477432250977
1702063242396220200,5.54622021484375,-9.093684196472168,-2.7947449684143066,4.094188213348389
1702063242413214200,5.563214111328125,-8.782212257385254,-2.1578121185302734,4.018302917480469
1702063242430208000,5.5802080078125,-8.373130798339844,-1.5014934539794922,4.303542137145996
1702063242447202300,5.597202392578125,-7.979116916656494,-1.0089483261108398,4.601673603057861
1702063242464195600,5.614195556640625,-7.649868011474609,-0.6788721084594727,4.827949523925781
1702063242481189600,5.631189697265625,-7.298351764678955,-0.2817058563232422,4.89520263671875
1702063242498183400,5.648183349609375,-6.944280624389648,0.21615314483642578,4.732968330383301
1702063242515180300,5.66518017578125,-6.498948574066162,0.7945318222045898,4.449687957763672
1702063242532170800,5.682170654296875,-6.029338836669922,1.2744030952453613,4.478267669677734
1702063242549164800,5.699164794921875,-5.830570697784424,1.8202705383300781,4.579188346862793
1702063242566158600,5.71615869140625,-5.805296897888184,2.2189574241638184,4.706299781799316
1702063242583153000,5.73315283203125,-5.8985114097595215,2.5016112327575684,4.691068649291992
1702063242600143400,5.750143310546875,-5.95986795425415,2.935023307800293,4.362870216369629
1702063242617142300,5.767142333984375,-6.059901714324951,3.208622455596924,4.079106330871582
1702063242634134000,5.784134033203125,-5.977875709533691,3.147512912750244,3.9077067375183105
1702063242651128300,5.80112841796875,-5.395169258117676,3.2316575050354004,3.944887161254883
1702063242668121300,5.818121337890625,-4.562675952911377,3.528951644897461,4.50051212310791
1702063242685118500,5.835118408203125,-3.756495475769043,3.8698301315307617,5.349063396453857
1702063242702096000,5.852095947265625,-3.009531021118164,4.091217517852783,6.203472137451172
1702063242719109400,5.869109375,-2.425837516784668,4.164144992828369,7.031528949737549
1702063242736096800,5.8860966796875,-1.7858521938323975,4.2935590744018555,7.281250476837158
1702063242753088300,5.903088134765625,-1.1423003673553467,4.329869270324707,6.91973876953125
1702063242770087200,5.920087158203125,-0.37485337257385254,4.376230239868164,6.48997163772583
1702063242787078700,5.93707861328125,0.5585846900939941,4.781059741973877,5.993826389312744
1702063242804071200,5.9540712890625,1.2513657808303833,5.352623462677002,5.953779697418213
1702063242821066000,5.97106591796875,1.2776813507080078,5.49616003036499,6.886383533477783
1702063242838060000,5.98806005859375,1.0714610815048218,5.1385602951049805,7.474871635437012
1702063242855054000,6.00505419921875,0.588115930557251,5.392763614654541,6.880671977996826
1702063242872047000,6.022047119140625,0.14167600870132446,5.803652286529541,6.014464855194092
1702063242889041700,6.039041748046875,-0.17430716753005981,6.059014797210693,5.788811683654785
1702063242906035500,6.056035400390625,-0.03738129138946533,6.162408351898193,6.773492813110352
1702063242923029200,6.073029296875,-0.3257029056549072,5.367672443389893,8.370207786560059
1702063242940022800,6.090022705078125,-0.3039887547492981,5.132802963256836,8.338007926940918
1702063242957014300,6.10701416015625,-0.425637811422348,5.500170707702637,7.634295463562012
1702063242974013200,6.12401318359375,-0.23697054386138916,5.829914093017578,7.571131229400635
1702063242990993400,6.140993408203125,0.04577550292015076,5.764470100402832,8.461512565612793
1702063243008000800,6.158000732421875,-0.383772075176239,5.552851676940918,9.90250301361084
1702063243024992000,6.174991943359375,-1.0005369186401367,5.029788017272949,10.615302085876465
1702063243041985800,6.19198583984375,-1.257162094116211,5.0999250411987305,10.007299423217773
1702063243058979800,6.208979736328125,-1.6590139865875244,5.6439900398254395,8.597450256347656
1702063243075973000,6.22597314453125,-2.4306845664978027,5.886961936950684,7.765109539031982
1702063243092967400,6.242967529296875,-2.887209415435791,5.82505464553833,8.034024238586426
1702063243109951500,6.259951416015625,-3.098385810852051,5.62224817276001,8.908546447753906
1702063243126954500,6.27695458984375,-3.1621806621551514,5.321199417114258,9.856809616088867
1702063243143948500,6.293948486328125,-2.746788740158081,5.568414211273193,9.839019775390625
1702063243160942600,6.310942626953125,-1.98492431640625,6.26060152053833,8.10818862915039
1702063243177936400,6.327936279296875,-1.7144662141799927,7.102540969848633,6.587885856628418
1702063243194921700,6.344921630859375,-2.018566846847534,7.452296257019043,6.075639724731445
1702063243211924000,6.361924072265625,-2.3913533687591553,7.287248134613037,6.7150068283081055
1702063243228918000,6.37891796875,-2.627836227416992,7.1059441566467285,8.011297225952148
1702063243245911800,6.395911865234375,-2.2633137702941895,7.0879807472229,8.699419021606445
1702063243262905900,6.41290576171875,-1.4073710441589355,7.286814212799072,8.371834754943848
1702063243279899100,6.429899169921875,-0.32719290256500244,7.4911980628967285,7.554346084594727
1702063243296886500,6.446886474609375,0.41084736585617065,7.412013530731201,6.93829870223999
1702063243313889800,6.463889892578125,0.33185678720474243,7.2177863121032715,7.446897029876709
1702063243330881300,6.48088134765625,-0.7318422794342041,6.879518508911133,9.278642654418945
1702063243347874600,6.49787451171875,-1.892903447151184,6.595826625823975,10.464424133300781
1702063243364868600,6.51486865234375,-2.5607683658599854,6.517984390258789,10.19010066986084
1702063243381862400,6.5318623046875,-2.450591802597046,6.8296003341674805,9.093442916870117
1702063243398858200,6.548858154296875,-2.3979780673980713,7.070248603820801,8.08360481262207
1702063243415848200,6.56584814453125,-2.6262905597686768,6.996919631958008,7.643465518951416
1702063243432847000,6.58284716796875,-3.328674554824829,6.67669153213501,8.035115242004395
1702063243449834500,6.59983447265625,-4.037384986877441,6.522914409637451,8.429317474365234
1702063243466832000,6.616831787109375,-4.421226978302002,6.413234710693359,7.962589740753174
1702063243483825200,6.6338251953125,-4.318333148956299,6.5606303215026855,6.382784843444824
1702063243500816600,6.650816650390625,-4.042568683624268,6.7656707763671875,4.9730048179626465
1702063243517813000,6.66781298828125,-3.615985155105591,6.719067096710205,4.483257293701172
1702063243534807000,6.68480712890625,-3.1751797199249268,6.417491912841797,4.727710723876953
1702063243551800300,6.70180029296875,-2.764197826385498,6.280916213989258,5.189953327178955
1702063243568794400,6.71879443359375,-2.344796657562256,6.3805742263793945,5.503998756408691
1702063243585778000,6.73577783203125,-1.8481413125991821,6.498335361480713,5.31355094909668
1702063243602782500,6.752782470703125,-1.5157761573791504,6.33121919631958,4.676774978637695
1702063243619775700,6.769775634765625,-1.5251429080963135,6.0472412109375,3.9259085655212402
1702063243636769800,6.786769775390625,-1.8561761379241943,5.8588056564331055,3.363192081451416
1702063243653763600,6.803763671875,-2.233184814453125,5.539355278015137,3.3414688110351562
1702063243670757600,6.820757568359375,-2.4672865867614746,4.973027229309082,3.836331367492676
1702063243687751000,6.8377509765625,-2.501673460006714,4.521280765533447,4.4177680015563965
1702063243704745200,6.8547451171875,-2.7190632820129395,4.133108615875244,4.488635063171387
1702063243721739000,6.871739013671875,-2.8639049530029297,3.8941550254821777,3.5982003211975098
1702063243738732800,6.88873291015625,-2.978679895401001,3.800302505493164,2.5774788856506348
1702063243755726300,6.905726318359375,-3.1022138595581055,3.6842100620269775,2.2839136123657227
1702063243772710000,6.9227099609375,-3.5467464923858643,3.311938762664795,2.772958755493164
1702063243789714200,6.939714111328125,-4.245471954345703,3.006953716278076,3.364345073699951
1702063243806708500,6.95670849609375,-4.740309238433838,3.0170915126800537,3.493471622467041
1702063243823704000,6.9737041015625,-4.991730213165283,2.944218873977661,3.48154878616333
1702063243840682800,6.990682861328125,-5.226109027862549,2.752171277999878,3.3750252723693848
1702063243857689300,7.007689453125,-5.61971378326416,2.4058239459991455,3.1660938262939453
1702063243874683600,7.02468359375,-6.5657854080200195,2.168517589569092,2.670870304107666
1702063243891677000,7.041677001953125,-7.375234603881836,2.0043601989746094,2.532785415649414
1702063243908671200,7.058671142578125,-7.870161056518555,1.9991416931152344,2.735999584197998
1702063243925664800,7.075664794921875,-7.704404354095459,1.8768093585968018,2.987663745880127
1702063243942648600,7.092648681640625,-7.171968936920166,1.4214954376220703,3.2252511978149414
1702063243959652000,7.109652099609375,-6.463964462280273,1.0066375732421875,3.2453417778015137
1702063243976646400,7.126646484375,-6.214239120483398,0.5434021949768066,3.264904499053955
1702063243993640000,7.143639892578125,-6.540572643280029,0.18501758575439453,3.21803617477417
1702063244010630700,7.160630615234375,-7.24084997177124,-0.24569320678710938,3.4009833335876465
1702063244027631000,7.177631103515625,-7.840579032897949,-0.6757473945617676,3.7549614906311035
1702063244044631000,7.194631103515625,-8.029659271240234,-0.9727411270141602,4.232672214508057
1702063244061615400,7.211615478515625,-7.981348514556885,-1.085893154144287,4.6463775634765625
1702063244078609400,7.228609375,-8.1474609375,-1.3132379055023193,5.065961837768555
1702063244095602700,7.245602783203125,-9.030532836914062,-1.9411957263946533,4.863669395446777
1702063244112586200,7.262586181640625,-9.469841003417969,-2.8603620529174805,3.927971839904785
1702063244129590800,7.2795908203125,-8.4751558303833,-3.172694683074951,3.757810115814209
1702063244146584800,7.296584716796875,-6.905678749084473,-2.9740991592407227,4.192078113555908
1702063244163578000,7.313578125,-6.659444808959961,-2.3371634483337402,4.927434921264648
1702063244180572400,7.330572509765625,-8.059669494628906,-2.182040214538574,6.103022575378418
1702063244197566000,7.34756591796875,-9.435853958129883,-2.2135612964630127,6.212167263031006
1702063244214557400,7.364557373046875,-9.86848258972168,-2.2833499908447266,5.498229503631592
1702063244231556600,7.381556640625,-9.47532844543457,-2.3399317264556885,5.772622108459473
1702063244248546600,7.398546630859375,-8.630227088928223,-2.642455816268921,6.393939018249512
1702063244265541000,7.415541015625,-8.114789009094238,-2.6172969341278076,7.0218634605407715
1702063244282532900,7.432532958984375,-8.49362850189209,-2.356882095336914,8.167825698852539
1702063244299531300,7.44953125,-9.626172065734863,-2.303670644760132,9.425298690795898
1702063244316522800,7.466522705078125,-10.971941947937012,-2.514686107635498,9.47481918334961
1702063244333516800,7.483516845703125,-11.445037841796875,-2.836306095123291,8.79156494140625
1702063244350510600,7.500510498046875,-10.671117782592773,-2.9578592777252197,7.921073913574219
1702063244367504100,7.517504150390625,-9.021875381469727,-2.80356502532959,7.019419193267822
1702063244384498000,7.534497802734375,-8.351112365722656,-2.8953988552093506,6.738697528839111
1702063244401492200,7.5514921875,-8.5311918258667,-3.112304449081421,6.643673419952393
1702063244418486000,7.568486083984375,-8.889577865600586,-3.194364070892334,6.180364608764648
1702063244435483000,7.58548291015625,-9.050533294677734,-3.1347084045410156,5.329996585845947
1702063244452470000,7.602469970703125,-8.866156578063965,-3.0090527534484863,4.982314109802246
1702063244469467100,7.619467041015625,-8.77726936340332,-2.8388876914978027,5.312101364135742
1702063244486461400,7.63646142578125,-8.474533081054688,-2.3663830757141113,5.4051594734191895
1702063244503454500,7.653454345703125,-8.021856307983398,-1.784867286682129,4.737965106964111
1702063244520448500,7.670448486328125,-7.641639709472656,-1.2209901809692383,3.773947238922119
1702063244537442300,7.6874423828125,-7.360917091369629,-1.0953965187072754,3.4298524856567383
1702063244554436600,7.7044365234375,-7.273854732513428,-1.1871953010559082,3.6884655952453613
1702063244571430000,7.721429931640625,-7.188780784606934,-0.9465541839599609,4.121367454528809
1702063244588424000,7.738423828125,-7.076207637786865,-0.41632556915283203,4.123726844787598
1702063244605419500,7.75541943359375,-6.863327503204346,0.1558704376220703,3.662595748901367
1702063244622414600,7.77241455078125,-6.5164995193481445,0.565253734588623,3.019747734069824
1702063244639405000,7.789405029296875,-6.3032145500183105,0.7484321594238281,2.4974637031555176
1702063244656399000,7.806399169921875,-6.116340637207031,0.7903084754943848,2.2730751037597656
1702063244673393200,7.82339306640625,-5.7689666748046875,1.1816329956054688,2.267672061920166
1702063244690387000,7.840386962890625,-5.294628620147705,1.8206238746643066,2.5319981575012207
1702063244707380500,7.85738037109375,-4.922158718109131,2.214688777923584,2.886547565460205
1702063244724374500,7.87437451171875,-4.499943733215332,2.481818437576294,2.74224853515625
1702063244741357800,7.89135791015625,-4.115293979644775,2.8132123947143555,2.309342384338379
1702063244758362400,7.9083623046875,-3.8428640365600586,3.1957504749298096,2.0883774757385254
1702063244775355600,7.925355712890625,-3.703773260116577,3.5893032550811768,2.409531593322754
1702063244792347400,7.942347412109375,-3.3711459636688232,4.059942722320557,3.2296695709228516
1702063244809344000,7.959343994140625,-3.2577457427978516,4.4825944900512695,3.6614632606506348
1702063244826340000,7.976340087890625,-3.4987010955810547,4.764935493469238,3.4902257919311523
1702063244843330800,7.993330810546875,-3.531996488571167,4.792757987976074,3.024282455444336
1702063244860325000,8.0103251953125,-3.4206173419952393,4.860879421234131,2.648988723754883
1702063244877319000,8.02731884765625,-3.4671638011932373,4.962886810302734,2.4965028762817383
1702063244894313200,8.044313232421874,-2.980903148651123,4.968909740447998,2.667844772338867
1702063244911291400,8.06129150390625,-2.226069688796997,5.0434489250183105,3.0453457832336426
1702063244928304600,8.0783046875,-1.1778922080993652,5.179556369781494,3.555034637451172
1702063244945284400,8.095284423828126,-0.13515377044677734,5.419312477111816,3.8017959594726562
1702063244962288400,8.112288330078124,0.7279484272003174,5.777813911437988,3.652477741241455
1702063244979282000,8.129281982421874,1.3381996154785156,6.041459560394287,3.450434684753418
1702063244996272600,8.146272705078125,1.576067566871643,6.031890869140625,3.5754470825195312
1702063245013272000,8.16327197265625,1.6713765859603882,6.232975959777832,3.992776393890381
1702063245030263600,8.180263671875,1.6799980401992798,6.467861175537109,4.674149990081787
1702063245047256800,8.1972568359375,1.6825319528579712,6.641613960266113,5.129814624786377
1702063245064251000,8.2142509765625,1.7300636768341064,6.736635684967041,5.115935325622559
1702063245081244700,8.23124462890625,1.7064446210861206,6.71087646484375,4.7246198654174805
1702063245098239000,8.248239013671874,1.520975112915039,6.633957862854004,4.446470260620117
1702063245115232000,8.26523193359375,1.4286519289016724,6.429527759552002,4.792384147644043
1702063245132214000,8.282214111328125,1.228413701057434,6.356434345245361,5.783332347869873
1702063245149220400,8.299220458984376,1.036889910697937,6.121284484863281,6.562789440155029
1702063245166214100,8.316214111328126,1.3439222574234009,5.919156074523926,6.517922401428223
1702063245183207400,8.33320751953125,1.5636756420135498,5.852141380310059,6.107213497161865
1702063245200199000,8.350198974609375,1.590502142906189,5.877563953399658,6.05809211730957
1702063245217197800,8.36719775390625,1.184614658355713,6.0067267417907715,6.707614898681641
1702063245234186800,8.384186767578125,0.40169668197631836,6.022864818572998,7.57094669342041
1702063245251185400,8.401185302734374,-0.5026012659072876,6.126455307006836,7.697284698486328
1702063245268177000,8.418177001953126,-1.3064417839050293,6.162353515625,6.931410312652588
1702063245285170700,8.435170654296876,-1.4754999876022339,6.104829788208008,6.094488143920898
1702063245302146000,8.45214599609375,-1.113891839981079,6.107533931732178,5.468095779418945
1702063245319158000,8.469157958984376,-0.32355213165283203,6.097928047180176,5.218807220458984
1702063245336154400,8.486154296875,0.09378564357757568,6.060467720031738,5.9518232345581055
1702063245353143600,8.5031435546875,-0.11870110034942627,6.180050849914551,6.659087657928467
1702063245370129700,8.520129638671875,-0.7024534940719604,6.289669036865234,6.507378578186035
1702063245387132200,8.537132080078125,-1.3042585849761963,6.326084136962891,5.942882537841797
1702063245404118000,8.554117919921875,-1.2440192699432373,6.265659809112549,5.584420680999756
1702063245421121000,8.57112109375,-0.8460226058959961,6.081660270690918,5.760786056518555
1702063245438115300,8.588115234375,-0.5446739196777344,5.955397605895996,6.411067485809326
1702063245455108600,8.605108642578125,-0.2382723093032837,5.786268711090088,7.1857404708862305
1702063245472102700,8.6221025390625,0.32762467861175537,5.63619327545166,7.4721150398254395
1702063245489096400,8.639096435546875,0.8636473417282104,5.543128490447998,7.259223937988281
1702063245506089700,8.65608984375,1.1085878610610962,5.5436553955078125,6.999069690704346
1702063245523084800,8.673084716796875,0.8474975824356079,5.597594738006592,6.877498149871826
1702063245540078000,8.690078125,0.34387609362602234,5.622311592102051,6.873948574066162
1702063245557072000,8.70707177734375,-0.32706379890441895,5.680177211761475,6.56308126449585
1702063245574066000,8.72406591796875,-0.7707787752151489,5.704777240753174,6.036147117614746
1702063245591059500,8.7410595703125,-0.9073673486709595,5.679113388061523,5.610414028167725
1702063245608052700,8.758052734375,-0.808600902557373,5.670681476593018,5.345803737640381
1702063245625047000,8.775047119140625,-0.5283291935920715,5.706866264343262,5.1085028648376465
1702063245642041000,8.792041015625,-0.22993925213813782,5.700295925140381,4.859571933746338
1702063245659034400,8.809034423828125,-0.06312471628189087,5.598310470581055,4.546535968780518
1702063245676028400,8.8260283203125,-0.10409224033355713,5.501241683959961,4.188409805297852
1702063245693022200,8.843022216796875,-0.3299562931060791,5.546619415283203,3.8190860748291016
1702063245710016500,8.8600166015625,-0.7356740236282349,5.620720863342285,3.5191893577575684
1702063245727009800,8.877009765625,-1.0210254192352295,5.548752784729004,3.246481418609619
1702063245744003800,8.89400390625,-1.2518658638000488,5.312624454498291,2.9688339233398438
1702063245760997400,8.910997314453125,-1.478227138519287,5.139749526977539,2.6950435638427734
1702063245777993200,8.9279931640625,-1.8129664659500122,4.979923725128174,2.397514820098877
1702063245794984000,8.94498388671875,-2.3492064476013184,4.87608528137207,2.6501641273498535
1702063245811979000,8.96197900390625,-3.071319818496704,4.370504856109619,2.919771194458008
1702063245828972800,8.978972900390625,-3.830832004547119,4.077910423278809,2.8803839683532715
1702063245845966800,8.995966796875,-4.382431507110596,3.7628936767578125,2.8145155906677246
1702063245862950100,9.0129501953125,-4.65394926071167,3.4954028129577637,2.6603269577026367
1702063245879954200,9.0299541015625,-4.868836402893066,3.1779253482818604,2.3826751708984375
1702063245896948200,9.0469482421875,-5.215744972229004,2.8821280002593994,1.9407720565795898
1702063245913939000,9.06393896484375,-5.524507999420166,2.6363792419433594,1.6069531440734863
1702063245930936300,9.080936279296875,-5.677076816558838,2.3390440940856934,1.624671459197998
1702063245947929600,9.0979296875,-5.670100688934326,2.015599250793457,1.8562521934509277
1702063245964922600,9.114922607421875,-5.64309549331665,1.6538853645324707,2.045347213745117
1702063245981918200,9.131918212890625,-5.543857574462891,1.2194762229919434,1.873244285583496
1702063245998910700,9.14891064453125,-5.224801540374756,0.8317756652832031,1.5294294357299805
1702063246015904300,9.165904296875,-5.158581733703613,0.46614551544189453,1.045222282409668
1702063246032899300,9.1828994140625,-5.400345802307129,0.05284690856933594,0.6632089614868164
1702063246049890000,9.19989013671875,-5.759007453918457,-0.5843195915222168,1.029006004333496
1702063246066888700,9.216888671875,-6.3355183601379395,-1.2526381015777588,1.8005571365356445
1702063246083880000,9.2338798828125,-6.923993110656738,-1.8632948398590088,2.076237201690674
1702063246100874000,9.2508740234375,-7.1375651359558105,-2.171204090118408,1.6726303100585938
1702063246117868000,9.267867919921875,-7.028656005859375,-2.0873990058898926,1.057912826538086
1702063246134859000,9.28485888671875,-7.034972667694092,-2.253970146179199,0.7691922187805176
1702063246151857700,9.301857666015625,-7.287818908691406,-2.246429443359375,0.9507932662963867
1702063246168845300,9.31884521484375,-7.210114002227783,-2.3489949703216553,2.4262595176696777
1702063246185847300,9.335847412109375,-6.790324687957764,-2.641127109527588,4.22195291519165
1702063246202836500,9.35283642578125,-6.335843086242676,-3.1109213829040527,4.4524359703063965
1702063246219830500,9.36983056640625,-6.285738468170166,-3.505223035812378,3.3548765182495117
1702063246236824600,9.386824462890624,-6.145759582519531,-3.2899320125579834,2.3199524879455566
1702063246253818600,9.403818603515624,-5.7173590660095215,-3.253870964050293,2.279834270477295
1702063246270812000,9.42081201171875,-5.054096221923828,-3.3178532123565674,3.6490836143493652
1702063246287806000,9.437805908203124,-4.972043037414551,-3.8324289321899414,4.989044666290283
1702063246304800000,9.454800048828124,-5.2225341796875,-4.429380893707275,5.083020210266113
1702063246321793800,9.471793701171874,-5.629566192626953,-4.628606796264648,4.147427082061768
1702063246338787000,9.488787109375,-5.732249736785889,-4.321249008178711,3.0207595825195312
1702063246355781000,9.505781005859374,-5.699058532714844,-4.223632335662842,2.493964195251465
1702063246372775000,9.52277490234375,-5.397616863250732,-4.692680358886719,1.8473949432373047
1702063246389766400,9.539766357421875,-5.397586345672607,-5.726014137268066,1.9463438987731934
1702063246406765000,9.55676513671875,-5.785046577453613,-6.484273910522461,3.9109554290771484
1702063246423756500,9.573756591796876,-5.616964340209961,-6.640671730041504,6.612574577331543
1702063246440750800,9.590750732421874,-5.331189155578613,-6.088511943817139,8.394617080688477
1702063246457744400,9.607744384765626,-4.596052169799805,-5.327287673950195,8.843570709228516
1702063246474737700,9.624737548828126,-4.23648738861084,-5.361834526062012,8.550514221191406
1702063246491731700,9.641731689453126,-5.457602500915527,-6.354389667510986,8.665214538574219
1702063246508717600,9.658717529296876,-6.9013566970825195,-7.130101203918457,8.616291046142578
1702063246525719600,9.675719482421876,-7.354217052459717,-7.40592622756958,7.990104675292969
1702063246542712800,9.692712890625,-6.795064926147461,-6.986042499542236,6.726655960083008
1702063246559707100,9.70970703125,-6.444241046905518,-6.454338073730469,5.203756332397461
1702063246576701000,9.726700927734376,-6.569576263427734,-6.518369674682617,4.1129302978515625
1702063246593695000,9.743695068359376,-6.771892547607422,-6.923750877380371,3.358102798461914
1702063246610677800,9.760677734375,-6.770036220550537,-7.189667701721191,3.1108036041259766
1702063246627682000,9.77768212890625,-6.3932600021362305,-6.925942420959473,2.905747890472412
1702063246644668000,9.79466796875,-5.967287063598633,-6.194000244140625,2.535125255584717
1702063246661670100,9.811670166015626,-5.743376731872559,-5.353776931762695,2.804487705230713
1702063246678663400,9.828663330078125,-6.251443386077881,-4.68247127532959,3.0721635818481445
1702063246695657500,9.845657470703125,-7.253939628601074,-4.5225510597229,2.5706443786621094
1702063246712660000,9.862659912109375,-7.770488262176514,-4.606657028198242,1.7055835723876953
1702063246729645300,9.879645263671875,-7.702086925506592,-4.630309104919434,1.0761919021606445
1702063246746638600,9.896638671875,-6.663069725036621,-4.045838832855225,0.8423652648925781
1702063246763630800,9.913630859375,-5.534661293029785,-3.1082286834716797,1.120922565460205
1702063246780629000,9.93062890625,-4.718591690063477,-2.084883689880371,1.6023497581481934
1702063246797620700,9.947620849609375,-4.474198341369629,-1.5532267093658447,1.7944226264953613
1702063246814615000,9.964614990234375,-4.698587417602539,-1.3735342025756836,1.4546489715576172
1702063246831606800,9.981606689453125,-4.556066513061523,-1.0426204204559326,0.508786678314209
1702063246848602000,9.99860205078125,-3.3544046878814697,-0.6003339290618896,0.32281923294067383
1702063246865596000,10.015595947265625,-1.7152323722839355,0.1052703857421875,1.103259563446045
1702063246882589200,10.032589111328125,-1.1520142555236816,1.0275039672851562,1.6310429573059082
1702063246899580700,10.04958056640625,-1.4845771789550781,1.4143245220184326,1.0871529579162598
1702063246916579600,10.06657958984375,-2.4764065742492676,1.6404304504394531,0.06657123565673828
1702063246933571300,10.0835712890625,-3.3156166076660156,1.974992036819458,-1.0530686378479004
1702063246950564400,10.100564453125,-3.966003894805908,2.183398723602295,-1.9725470542907715
1702063246967558700,10.11755859375,-4.148773670196533,2.246631622314453,-1.7394051551818848
1702063246984552200,10.13455224609375,-4.073710918426514,2.335686445236206,-0.674919605255127
1702063247001546500,10.15154638671875,-3.9801158905029297,2.509242057800293,0.6286463737487793
1702063247018553600,10.1685537109375,-3.860189914703369,2.8140597343444824,1.7382125854492188
1702063247035533800,10.185533935546875,-3.4034316539764404,3.089442729949951,1.9888863563537598
1702063247052517000,10.20251708984375,-2.9353508949279785,3.31303334236145,1.5520234107971191
1702063247069521700,10.219521728515625,-2.7250404357910156,3.539604663848877,1.042184829711914
1702063247086515000,10.236514892578125,-2.385836124420166,3.8110949993133545,1.3133511543273926
1702063247103509000,10.253509033203125,-2.8006045818328857,4.085858345031738,2.0729427337646484
1702063247120502800,10.270502685546875,-3.19456148147583,4.242544174194336,2.855644702911377
1702063247137494500,10.28749462890625,-3.0176565647125244,4.541077613830566,2.911412239074707
1702063247154490000,10.304489990234375,-2.525266647338867,4.737889289855957,2.602823257446289
1702063247171486700,10.32148681640625,-1.9006752967834473,4.776348114013672,2.3553996086120605
1702063247188478200,10.338478271484375,-1.4174028635025024,4.8753437995910645,2.536372184753418
1702063247205461800,10.355461669921874,-1.4348393678665161,5.105856895446777,3.2834320068359375
1702063247222465500,10.372465576171875,-1.5811185836791992,5.317028045654297,4.071130275726318
1702063247239459600,10.38945947265625,-1.273024082183838,5.336966514587402,4.356644153594971
1702063247256453400,10.406453369140625,-0.6051029562950134,5.190752983093262,4.0574421882629395
1702063247273447400,10.423447509765625,0.3773534893989563,5.235546588897705,3.5639328956604004
1702063247290440700,10.440440673828125,1.1470160484313965,5.46719217300415,3.6990408897399902
1702063247307419000,10.4574189453125,1.1698713302612305,5.727516174316406,4.595841884613037
1702063247324430800,10.474430908203125,0.8334250450134277,5.796356201171875,5.401359558105469
1702063247341422800,10.4914228515625,1.111046314239502,5.47265100479126,5.3871378898620605
1702063247358416000,10.508415771484374,1.9727760553359985,5.2732834815979,4.909499645233154
1702063247375410200,10.52541015625,2.263524055480957,5.352126598358154,5.104342937469482
1702063247392401000,10.54240087890625,1.5985039472579956,5.392333984375,5.496092319488525
1702063247409387500,10.559387451171874,0.8185232281684875,5.201089859008789,5.507826805114746
1702063247426391300,10.576391357421874,-0.031995296478271484,5.128329753875732,5.273905277252197
1702063247443382500,10.593382568359376,-0.4537525177001953,5.228403091430664,4.8650641441345215
1702063247460381700,10.610381591796875,-0.12780189514160156,5.199223518371582,4.654589653015137
1702063247477373400,10.62737353515625,0.3878520727157593,5.249073028564453,4.5775065422058105
1702063247494366500,10.644366455078124,0.6892516613006592,5.371874809265137,4.813727378845215
1702063247511358000,10.66135791015625,0.6805970668792725,5.531609058380127,5.266953945159912
1702063247528356900,10.67835693359375,0.6497998237609863,5.573337554931641,5.323749542236328
1702063247545348600,10.6953486328125,0.47837138175964355,5.752709865570068,4.887725830078125
1702063247562341600,10.712341552734374,0.3169509172439575,5.995455741882324,4.551766395568848
1702063247579336000,10.7293359375,0.2389296293258667,6.089626789093018,4.577958106994629
1702063247596328700,10.74632861328125,0.2942854166030884,6.051490306854248,4.760064601898193
1702063247613324300,10.76332421875,0.27991819381713867,5.861240386962891,5.1147966384887695
1702063247630317000,10.780317138671874,0.4605778455734253,5.7213215827941895,5.331314563751221
1702063247647311000,10.79731103515625,0.5244342088699341,5.5804619789123535,5.69344425201416
1702063247664305000,10.814304931640624,0.5197356939315796,5.4961652755737305,5.894500255584717
1702063247681288700,10.831288818359376,0.33241117000579834,5.374701023101807,5.905799865722656
1702063247698292200,10.848292236328126,-0.17273536324501038,5.297723770141602,5.893848419189453
1702063247715286300,10.865286376953126,-0.717268705368042,5.187212944030762,5.695222854614258
1702063247732280000,10.882280029296876,-1.2097105979919434,5.192387104034424,5.373430252075195
1702063247749265000,10.899264892578126,-1.3829684257507324,5.288607597351074,4.9552998542785645
1702063247766267400,10.916267333984376,-1.271528959274292,5.265406131744385,4.387887477874756
1702063247783261700,10.93326171875,-1.2295681238174438,5.092642784118652,4.044787406921387
1702063247800242700,10.95024267578125,-1.2829351425170898,4.653705596923828,3.9251480102539062
1702063247817249000,10.9672490234375,-1.304684042930603,4.3229475021362305,3.7985072135925293
1702063247834245400,10.984245361328124,-1.476420521736145,4.145613193511963,3.9043126106262207
1702063247851236900,11.00123681640625,-2.1390066146850586,4.075490951538086,3.8797054290771484
1702063247868230700,11.018230712890626,-2.5340590476989746,3.9226760864257812,3.306790828704834
1702063247885224700,11.035224609375,-2.8396120071411133,3.794952630996704,2.435209274291992
1702063247902224600,11.052224609375,-3.094247341156006,3.762131452560425,1.458265781402588
1702063247919195000,11.06919482421875,-3.222856283187866,3.5975167751312256,0.8542118072509766
1702063247936205800,11.086205810546875,-3.575913667678833,3.4335713386535645,0.9614758491516113
1702063247953199900,11.103199951171876,-4.048879623413086,3.2435264587402344,1.4960384368896484
1702063247970193200,11.120193115234375,-4.281471252441406,3.1248362064361572,1.5996766090393066
1702063247987187500,11.1371875,-4.360169410705566,2.9978020191192627,1.1200695037841797
1702063248004181000,11.154180908203125,-4.384143829345703,2.8174915313720703,0.20046234130859375
1702063248021175000,11.171175048828125,-4.4444050788879395,2.5579380989074707,-0.651829719543457
1702063248038168300,11.188168212890625,-4.436212539672852,2.361675262451172,-1.023120403289795
1702063248055162600,11.20516259765625,-4.434368133544922,2.188392162322998,-0.9257364273071289
1702063248072156400,11.222156494140625,-4.484381675720215,2.061438798904419,-0.5041766166687012
1702063248089150500,11.239150390625,-4.645730018615723,1.980604887008667,-0.17682886123657227
1702063248106143700,11.256143798828125,-4.803834438323975,1.8276586532592773,0.11822032928466797
1702063248123137800,11.2731376953125,-4.704960346221924,1.4926738739013672,0.039229393005371094
1702063248140134100,11.290134033203126,-4.383126735687256,1.082472562789917,-0.30528783798217773
1702063248157125600,11.307125732421875,-3.8196234703063965,1.1933228969573975,-0.6080083847045898
1702063248174119000,11.324118896484375,-3.6591970920562744,1.2334470748901367,-0.18661832809448242
1702063248191102700,11.341102783203125,-3.4979023933410645,0.9470853805541992,0.18433475494384766
1702063248208109000,11.358109130859376,-3.8938589096069336,0.7493259906768799,-0.2111186981201172
1702063248225100800,11.375100830078125,-4.746135234832764,0.35504746437072754,-0.4627242088317871
1702063248242094000,11.392093994140625,-5.186027526855469,-0.23108553886413574,-0.7445793151855469
1702063248259088100,11.409088134765625,-5.506017684936523,-0.4483177661895752,-0.5830368995666504
1702063248276082200,11.426082275390625,-5.579267978668213,-1.1371476650238037,-0.23200035095214844
1702063248293076200,11.443076171875,-5.744234085083008,-1.5701359510421753,-0.17467594146728516
1702063248310069500,11.460069580078125,-5.438532829284668,-1.8115628957748413,-0.24707984924316406
1702063248327063600,11.4770634765625,-5.030782222747803,-1.9728906154632568,-0.2845883369445801
1702063248344057300,11.494057373046875,-4.656035900115967,-2.245776653289795,-0.0783853530883789
1702063248361051400,11.511051513671875,-4.7935967445373535,-3.3103058338165283,0.24055099487304688
1702063248378051800,11.5280517578125,-4.93364143371582,-4.200189113616943,0.22304439544677734
1702063248395039000,11.5450390625,-4.598752975463867,-4.616240501403809,0.17099666595458984
1702063248412032800,11.56203271484375,-4.1423540115356445,-4.519489288330078,0.42681312561035156
1702063248429026600,11.579026611328125,-4.461464881896973,-4.505627632141113,0.9200143814086914
1702063248446019800,11.596019775390625,-5.39329719543457,-4.868546009063721,1.4944419860839844
1702063248463014000,11.613013916015625,-6.229287147521973,-4.678005695343018,2.367598533630371
1702063248480007700,11.630007568359375,-6.807760715484619,-4.511385440826416,3.3088111877441406
1702063248497002000,11.647001953125,-7.001371383666992,-4.716175079345703,3.8657093048095703
1702063248513995000,11.6639951171875,-6.830903053283691,-5.012351989746094,3.9197568893432617
1702063248530989300,11.6809892578125,-6.383928298950195,-5.187701225280762,3.666316032409668
1702063248547983000,11.697983154296875,-5.446679592132568,-5.187766075134277,4.087089538574219
1702063248564977200,11.71497705078125,-4.911747455596924,-4.951396465301514,5.120918273925781
1702063248581968100,11.731968017578126,-5.210756301879883,-4.828458786010742,5.930222511291504
1702063248598964500,11.748964599609375,-5.693803787231445,-4.541525840759277,6.177967071533203
1702063248615949000,11.765948974609374,-5.987063407897949,-4.239916801452637,6.578120231628418
1702063248632952300,11.782952392578125,-5.888940811157227,-4.092581748962402,6.254696846008301
1702063248649945600,11.799945556640624,-5.8265581130981445,-4.3772478103637695,5.342938423156738
1702063248666939600,11.816939697265624,-5.751936435699463,-4.849891185760498,4.389833450317383
1702063248683933400,11.833933349609374,-5.3765130043029785,-5.025758743286133,3.6199569702148438
1702063248700927500,11.850927490234374,-5.30340051651001,-4.897688865661621,3.224853515625
1702063248717920800,11.867920654296874,-5.805408000946045,-4.725912094116211,3.120985984802246
1702063248734914800,11.884914794921874,-6.383047103881836,-4.56914758682251,2.809441566467285
1702063248751908600,11.90190869140625,-6.443023681640625,-4.139660835266113,1.9661178588867188
1702063248768902700,11.918902587890624,-6.258074760437012,-3.7187938690185547,1.3627147674560547
1702063248785894000,11.935893798828126,-5.800327777862549,-3.4046123027801514,1.2434186935424805
1702063248802890500,11.952890380859374,-5.514258861541748,-3.170518398284912,1.494856834411621
1702063248819883800,11.9698837890625,-5.561917781829834,-2.934117317199707,1.7318439483642578
1702063248836875500,11.98687548828125,-5.617879867553711,-2.7700846195220947,1.618431568145752
1702063248853873700,12.003873779296875,-5.520924091339111,-2.5244600772857666,1.096846103668213
1702063248870877400,12.02087744140625,-5.432844638824463,-2.1969497203826904,0.4258852005004883
1702063248887857200,12.037857177734375,-5.2282257080078125,-1.6576135158538818,-0.14303922653198242
1702063248904855300,12.054855224609375,-4.994688987731934,-1.1809649467468262,-0.13724899291992188
1702063248921846500,12.071846435546876,-4.975149154663086,-0.943232536315918,0.45480775833129883
1702063248938838000,12.088838134765625,-4.922797679901123,-0.7802250385284424,0.8297901153564453
1702063248955837000,12.1058369140625,-4.616189956665039,-0.4627978801727295,0.5375766754150391
1702063248972810200,12.122810302734376,-4.216776371002197,-0.0634152889251709,-0.004729270935058594
1702063248989825500,12.139825439453125,-4.174221992492676,0.45428013801574707,-0.4083585739135742
1702063249006816000,12.15681591796875,-4.382371425628662,0.8224716186523438,-0.5555582046508789
1702063249023809500,12.1738095703125,-4.557281017303467,1.1019625663757324,-0.6249008178710938
1702063249040803800,12.190803955078126,-4.540505409240723,1.3798837661743164,-0.4790501594543457
1702063249057794300,12.207794189453125,-4.119538307189941,1.678462266921997,-0.28876590728759766
1702063249074793700,12.224793701171874,-3.6130177974700928,1.8253662586212158,-0.07232522964477539
1702063249091772200,12.241772216796875,-3.161196708679199,1.9430928230285645,0.09494876861572266
1702063249108771600,12.258771484375,-2.730588436126709,2.1762194633483887,0.10709333419799805
1702063249125772000,12.27577197265625,-2.450073480606079,2.4029808044433594,-0.05863618850708008
1702063249142766300,12.292766357421876,-2.3624398708343506,2.6052160263061523,-0.027327537536621094
1702063249159760100,12.309760009765625,-2.201777935028076,2.7704086303710938,0.19481611251831055
1702063249176754200,12.326754150390625,-2.110617160797119,3.0152902603149414,0.5658268928527832
1702063249193747500,12.34374755859375,-2.00566029548645,3.410672426223755,0.9190411567687988
1702063249210741500,12.360741455078125,-1.811741590499878,3.7614824771881104,1.0862784385681152
1702063249227735300,12.3777353515625,-1.4953927993774414,3.643549919128418,1.2988605499267578
1702063249244729300,12.394729248046875,-0.9448397159576416,3.3881421089172363,1.384195327758789
1702063249261722600,12.41172265625,-0.26746392250061035,3.39166259765625,1.3460960388183594
1702063249278716700,12.428716552734375,0.284568727016449,3.59139347076416,1.5359349250793457
1702063249295710000,12.4457099609375,0.5233122110366821,3.871002197265625,1.8940439224243164
1702063249312705000,12.462705078125,1.0535180568695068,3.9419806003570557,1.9574871063232422
1702063249329687600,12.4796875,1.7058448791503906,3.8524961471557617,1.7076530456542969
1702063249346691800,12.49669189453125,2.2122251987457275,3.9344770908355713,1.4297900199890137
1702063249363680300,12.51368017578125,2.4381747245788574,4.0954389572143555,1.3810234069824219
1702063249380679700,12.5306796875,2.3197720050811768,4.192576885223389,1.7080488204956055
1702063249397670700,12.547670654296875,2.1049563884735107,4.330742835998535,2.102078437805176
1702063249414669800,12.564669921875,2.11970591545105,4.435744762420654,2.5019965171813965
1702063249431660800,12.581660888671875,2.340508460998535,4.471529960632324,2.6214656829833984
1702063249448644400,12.598644287109375,2.4876649379730225,4.343757152557373,2.8098888397216797
1702063249465648000,12.615648193359375,2.377439498901367,4.170938014984131,3.154421806335449
1702063249482643200,12.632643310546875,1.9225475788116455,4.140503406524658,3.3257808685302734
1702063249499635200,12.64963525390625,1.6938377618789673,4.287933349609375,3.321660041809082
1702063249516630300,12.66663037109375,1.6383440494537354,4.233809947967529,3.6858630180358887
1702063249533626400,12.68362646484375,1.8046258687973022,4.132059097290039,4.392372131347656
1702063249550614800,12.70061474609375,2.0138344764709473,3.8763320446014404,4.931278228759766
1702063249567611400,12.717611328125,2.146003007888794,3.7239084243774414,4.854234218597412
1702063249584605400,12.73460546875,2.0088913440704346,3.9194602966308594,4.333639621734619
1702063249601598700,12.7515986328125,1.502751111984253,4.183504581451416,4.108659744262695
1702063249618592800,12.7685927734375,0.7202508449554443,4.3932037353515625,4.644611358642578
1702063249635586600,12.785586669921875,-0.11325562000274658,4.3653645515441895,5.704694747924805
1702063249652580600,12.80258056640625,-0.4518777132034302,4.4054460525512695,6.14666748046875
1702063249669574000,12.819573974609375,-0.6695904731750488,4.561155319213867,5.649345874786377
1702063249686568000,12.83656787109375,-0.6854338645935059,4.6958723068237305,4.905272960662842
1702063249703561700,12.853561767578125,-0.7660543918609619,4.526848793029785,4.55104398727417
1702063249720552200,12.87055224609375,-1.035264015197754,4.279047012329102,4.374406814575195
1702063249737551600,12.887551513671875,-1.1722371578216553,4.131148338317871,4.557943344116211
1702063249754543000,12.904543212890625,-1.1817083358764648,4.073233127593994,4.708184242248535
1702063249771537200,12.921537109375,-0.9446983337402344,4.207913875579834,4.532797336578369
1702063249788531200,12.93853125,-0.7204957008361816,4.358388900756836,4.17972469329834
1702063249805514000,12.955513916015626,-0.5226899981498718,4.400383472442627,3.9077157974243164
1702063249822518500,12.9725185546875,-0.21023064851760864,4.402944564819336,3.8587779998779297
1702063249839512300,12.98951220703125,0.11232495307922363,4.510968208312988,3.958339214324951
1702063249856513000,13.006512939453126,0.3364224433898926,4.6588921546936035,4.016775608062744
1702063249873495300,13.023495361328125,0.5748064517974854,4.725742340087891,4.058144569396973
1702063249890496300,13.040496337890625,0.6105071902275085,4.629663467407227,3.857232093811035
1702063249907487500,13.057487548828124,0.48821118474006653,4.520985126495361,3.2874464988708496
1702063249924481300,13.074481201171874,0.15272897481918335,4.555645942687988,2.7686872482299805
1702063249941466400,13.09146630859375,-0.2317776381969452,4.628598213195801,2.5316057205200195
1702063249958468600,13.108468505859374,-0.4583246409893036,4.645895957946777,2.4026012420654297
1702063249975462700,13.125462646484374,-0.41434168815612793,4.5434250831604,2.4397072792053223
1702063249992456700,13.142456787109374,-0.13952046632766724,4.437966346740723,2.4143457412719727
1702063250009450000,13.159449951171876,0.21008610725402832,4.5030083656311035,2.1767091751098633
1702063250026444500,13.176444580078124,0.49220186471939087,4.683650970458984,1.7229256629943848
1702063250043435500,13.193435546875,0.46794551610946655,4.838954448699951,1.254075050354004
1702063250060434200,13.21043408203125,0.16935789585113525,4.873846054077148,0.8632383346557617
1702063250077425200,13.227425048828126,-0.24676144123077393,4.774256706237793,0.660980224609375
1702063250094416400,13.24441650390625,-0.5885342955589294,4.5592451095581055,0.6000924110412598
1702063250111416000,13.261416015625,-0.8240326642990112,4.515705585479736,0.8951296806335449
1702063250128407000,13.278406982421876,-1.1486024856567383,4.139914512634277,1.0734920501708984
1702063250145400300,13.295400390625,-1.2966043949127197,3.915403366088867,0.4477391242980957
1702063250162394600,13.31239453125,-1.4988884925842285,3.789489269256592,-0.21610212326049805
1702063250179388200,13.32938818359375,-1.7272645235061646,3.581388473510742,-0.5877571105957031
1702063250196382200,13.34638232421875,-1.8358608484268188,3.2234995365142822,-0.6342124938964844
1702063250213375500,13.36337548828125,-1.8422669172286987,2.8543403148651123,-0.34751415252685547
1702063250230369800,13.380369873046876,-2.1748881340026855,2.3636910915374756,0.19557571411132812
1702063250247363600,13.397363525390626,-2.5194900035858154,1.8599824905395508,0.2802925109863281
1702063250264357600,13.414357666015626,-2.617109775543213,1.487640142440796,-0.23958969116210938
1702063250281351000,13.431350830078125,-2.346676826477051,1.1898930072784424,-0.7264223098754883
1702063250298345000,13.448344970703126,-2.096681594848633,0.7085475921630859,-0.7156610488891602
1702063250315338800,13.4653388671875,-2.299327850341797,0.2923116683959961,-0.28208446502685547
1702063250332332800,13.482332763671875,-2.66658878326416,0.009011268615722656,0.3672628402709961
1702063250349326000,13.499326171875,-3.0235674381256104,-0.023050546646118164,0.5745382308959961
1702063250366320000,13.516320068359375,-3.238624334335327,-0.14212322235107422,0.3852062225341797
1702063250383303400,13.533303466796875,-3.3184337615966797,-0.4691905975341797,0.15555953979492188
1702063250400305400,13.550305419921875,-3.339571714401245,-0.8274874687194824,0.06657791137695312
1702063250417303600,13.567303466796876,-3.7394421100616455,-1.268908977508545,0.030730247497558594
1702063250434295300,13.58429541015625,-4.416520595550537,-1.649361491203308,-0.1702117919921875
1702063250451289000,13.6012890625,-4.182529449462891,-1.9078092575073242,-0.08438968658447266
1702063250468283100,13.618283203125,-3.9500436782836914,-2.1678290367126465,0.0725717544555664
1702063250485276400,13.6352763671875,-3.90826153755188,-2.3792059421539307,0.4504117965698242
1702063250502270500,13.6522705078125,-4.556149482727051,-2.6970667839050293,0.8752222061157227
1702063250519264300,13.66926416015625,-5.26326847076416,-2.9707419872283936,1.1172027587890625
1702063250536258300,13.68625830078125,-5.9157514572143555,-3.3257479667663574,1.1540861129760742
1702063250553255700,13.703255615234376,-5.5988383293151855,-3.2616662979125977,1.0226097106933594
1702063250570245600,13.72024560546875,-4.42949914932251,-2.724134922027588,0.9866104125976562
1702063250587239400,13.737239501953125,-3.7928450107574463,-2.2976233959198,1.5474414825439453
1702063250604233500,13.7542333984375,-3.5216429233551025,-2.3363020420074463,2.555551528930664
1702063250621226800,13.771226806640625,-3.654552936553955,-2.7120561599731445,2.494800567626953
1702063250638220800,13.788220703125,-3.1519641876220703,-3.024703025817871,2.01033878326416
1702063250655214600,13.805214599609375,-2.7550034523010254,-3.187976121902466,2.3728370666503906
1702063250672208600,13.822208740234375,-2.832444906234741,-3.1302244663238525,2.8284263610839844
1702063250689202000,13.839201904296875,-3.64392352104187,-3.4336705207824707,2.369317054748535
1702063250706196200,13.8561962890625,-4.534573554992676,-3.231919765472412,0.8181829452514648
1702063250723189800,13.873189697265625,-5.462423324584961,-3.1716933250427246,0.5866317749023438
1702063250740184000,13.89018408203125,-6.144462585449219,-3.3428289890289307,1.5028820037841797
1702063250757177000,13.907177001953125,-6.353217601776123,-3.430715799331665,3.1572532653808594
1702063250774171100,13.924171142578125,-6.39315938949585,-3.281572103500366,4.670209884643555
1702063250791144700,13.941144775390624,-6.205961227416992,-3.0039820671081543,5.308437347412109
1702063250808148700,13.958148681640624,-6.558451175689697,-3.1765799522399902,5.658330917358398
1702063250825152300,13.97515234375,-7.149211883544922,-3.425793409347534,6.086485862731934
1702063250842146600,13.992146484375,-7.357908248901367,-3.3440890312194824,5.967680931091309
1702063250859140400,14.009140380859375,-7.747880935668945,-3.4897303581237793,5.26041316986084
1702063250876134400,14.026134521484375,-8.075990676879883,-3.904592752456665,4.111120223999023
1702063250893127400,14.04312744140625,-8.069266319274902,-4.343982219696045,2.889842987060547
1702063250910121500,14.06012158203125,-7.453062057495117,-4.601620197296143,1.8117055892944336
1702063250927115500,14.077115478515625,-6.385180473327637,-4.784220218658447,1.207925796508789
1702063250944109600,14.094109619140625,-5.665754318237305,-4.68801736831665,1.1789302825927734
1702063250961102600,14.1111025390625,-5.599250793457031,-4.643402576446533,1.4841537475585938
1702063250978097000,14.128096923828124,-5.817824363708496,-4.477356910705566,1.4047231674194336
1702063250995090700,14.145090576171874,-5.8701934814453125,-4.102755069732666,0.8636417388916016
1702063251012084700,14.162084716796874,-5.6016387939453125,-3.736377239227295,0.2782468795776367
1702063251029078000,14.179078125,-4.901627063751221,-3.3778324127197266,-0.077728271484375
1702063251046072000,14.196072021484374,-4.295422077178955,-3.1571264266967773,-0.1442861557006836
1702063251063065900,14.21306591796875,-3.7611851692199707,-2.897646427154541,-0.13422584533691406
1702063251080060000,14.230059814453124,-3.460876941680908,-2.353670358657837,-0.11477279663085938
1702063251097053200,14.24705322265625,-3.3861241340637207,-1.7830886840820312,0.14109134674072266
1702063251114044400,14.26404443359375,-3.464531660079956,-1.3328113555908203,0.4524250030517578
1702063251131040800,14.281040771484374,-3.4002199172973633,-0.91910719871521,0.236663818359375
1702063251148032300,14.2980322265625,-3.1572444438934326,-0.5159690380096436,-0.35125160217285156
1702063251165031000,14.315031005859375,-2.863999366760254,-0.0377652645111084,-0.7762203216552734
1702063251182022400,14.3320224609375,-2.8891987800598145,0.49832749366760254,-0.9428458213806152
1702063251199016200,14.34901611328125,-2.9655227661132812,0.6819000244140625,-0.7315845489501953
1702063251216018700,14.366018798828126,-2.901073694229126,0.9436266422271729,-0.8265810012817383
1702063251233003500,14.38300341796875,-2.735262393951416,1.2321109771728516,-0.9563999176025391
1702063251249997800,14.399997802734376,-2.317018747329712,1.5070037841796875,-1.0225787162780762
1702063251266991400,14.416991455078126,-1.7182366847991943,1.849820613861084,-1.0660619735717773
1702063251283985400,14.4339853515625,-1.237237572669983,2.068758249282837,-1.1145691871643066
1702063251300978700,14.450978759765626,-0.7444179058074951,2.173560619354248,-0.8085112571716309
1702063251317972700,14.46797265625,-0.4759296178817749,2.371845006942749,-0.3383769989013672
1702063251334966500,14.484966552734376,-0.33157581090927124,2.6059534549713135,-0.009800910949707031
1702063251351960600,14.501960693359376,-0.2623981833457947,2.749844551086426,0.019451141357421875
1702063251368954400,14.518954345703126,-0.11580240726470947,2.9125821590423584,-0.1161642074584961
1702063251385945300,14.5359453125,-0.022011876106262207,3.105787515640259,-0.07167816162109375
1702063251402944300,14.5529443359375,0.12324399501085281,3.2475404739379883,0.3541545867919922
1702063251419935700,14.569935791015626,0.26709192991256714,3.3409619331359863,0.8648390769958496
1702063251436927200,14.58692724609375,0.634087324142456,3.3978142738342285,1.1020846366882324
1702063251453923300,14.60392333984375,1.1161558628082275,3.633805990219116,1.171755313873291
1702063251470916900,14.620916748046875,1.5303122997283936,3.9361300468444824,1.4310946464538574
1702063251487911000,14.637910888671875,1.6436394453048706,4.056346893310547,1.73826265335083
1702063251504897800,14.654897705078126,1.4865628480911255,4.014823913574219,2.0647811889648438
1702063251521901000,14.671901123046876,1.221817135810852,3.8882851600646973,2.1536335945129395
1702063251538892000,14.68889208984375,1.199284315109253,3.7992289066314697,2.2490358352661133
1702063251555886000,14.705885986328125,1.376922607421875,4.010367393493652,2.392810344696045
1702063251572879400,14.72287939453125,1.4775187969207764,4.2696638107299805,2.632390022277832
1702063251589873700,14.739873779296875,1.4174673557281494,4.13649320602417,2.7035164833068848
1702063251606867500,14.756867431640625,1.4425690174102783,3.9042911529541016,2.3568115234375
1702063251623861500,14.773861572265625,1.667576789855957,3.7428059577941895,2.1818485260009766
1702063251640850700,14.7908505859375,2.217315912246704,3.7650370597839355,2.310504913330078
1702063251657853000,14.80785302734375,2.4603796005249023,3.843207359313965,3.0959253311157227
1702063251674842600,14.824842529296875,2.070652961730957,4.002414703369141,3.922595500946045
1702063251691836400,14.84183642578125,1.486138939857483,3.8929171562194824,3.9329543113708496
1702063251708830200,14.858830322265625,0.9367771148681641,3.825164794921875,3.285531997680664
1702063251725823700,14.87582373046875,0.5832297801971436,3.7573888301849365,2.817753791809082
1702063251742817800,14.89281787109375,0.8325707912445068,3.7081732749938965,2.888195037841797
1702063251759811600,14.9098115234375,1.3711304664611816,3.5104880332946777,3.3689112663269043
1702063251776804900,14.926804931640625,1.7179176807403564,3.6460070610046387,4.274957180023193
1702063251793799200,14.943799072265625,1.6877617835998535,3.9741392135620117,5.289130687713623
1702063251810793000,14.96079296875,2.03096342086792,4.229122161865234,4.838301181793213
1702063251827787000,14.977787109375,2.2715864181518555,4.3164873123168945,4.188231945037842
1702063251844780300,14.9947802734375,2.179349660873413,4.334890842437744,4.039309978485107
1702063251861770200,15.011770263671876,1.7141916751861572,4.097409248352051,3.9418411254882812
1702063251878767900,15.028767822265625,1.8496230840682983,3.5814759731292725,3.3252429962158203
1702063251895759600,15.045759521484374,2.2211132049560547,3.2727644443511963,2.891869068145752
1702063251912758000,15.062758056640625,2.6177754402160645,3.1129064559936523,3.151763439178467
1702063251929749500,15.07974951171875,2.752446174621582,3.0378427505493164,3.6906142234802246
1702063251946743300,15.096743408203125,2.569936752319336,3.1197357177734375,3.889461040496826
1702063251963737300,15.1137373046875,2.0302796363830566,3.404282808303833,4.005584239959717
1702063251980730600,15.130730712890625,1.4489920139312744,3.5836944580078125,3.9959425926208496
1702063251997724700,15.147724609375,1.1973018646240234,3.7456088066101074,3.9209847450256348
1702063252014718500,15.164718505859375,1.012470006942749,3.9281115531921387,3.913754940032959
1702063252031719200,15.18171923828125,1.0106265544891357,3.9808242321014404,3.8778185844421387
1702063252048700000,15.198699951171875,1.1138989925384521,3.874981164932251,3.714991569519043
1702063252065699800,15.215699951171874,1.2201935052871704,3.833775758743286,3.2832260131835938
1702063252082693600,15.232693603515624,1.2350152730941772,3.743318557739258,2.7289505004882812
1702063252099687700,15.249687744140624,1.3553757667541504,3.673238754272461,2.2590832710266113
1702063252116681000,15.266680908203124,1.5011944770812988,3.6419997215270996,2.0220327377319336
1702063252133671200,15.283671142578125,1.3992984294891357,3.6083528995513916,1.8941035270690918
1702063252150672400,15.30067236328125,1.030949354171753,3.56307315826416,1.6843700408935547
1702063252167662800,15.317662841796874,0.5591598749160767,3.517209053039551,1.3943681716918945
1702063252184656100,15.33465625,0.06539543718099594,3.4023380279541016,1.1604490280151367
1702063252201650200,15.351650146484374,-0.4358726739883423,3.213602066040039,0.8547582626342773
1702063252218643700,15.368643798828124,-0.8729698657989502,3.107059955596924,0.4513731002807617
1702063252235638000,15.385637939453124,-1.3028240203857422,2.9864931106567383,0.1922464370727539
1702063252252631000,15.402631103515626,-1.4445489645004272,2.885746955871582,0.09309768676757812
1702063252269620700,15.419620849609375,-1.5166981220245361,2.699425458908081,-0.0728006362915039
1702063252286621200,15.43662109375,-1.748818039894104,2.521723747253418,-0.3695182800292969
1702063252303616000,15.453615966796875,-2.030503273010254,2.230245351791382,-0.45515918731689453
1702063252320596200,15.47059619140625,-2.2745447158813477,2.0084798336029053,-0.399505615234375
1702063252337600500,15.4876005859375,-2.3561172485351562,1.9147484302520752,-0.4417304992675781
1702063252354594300,15.50459423828125,-2.1581928730010986,1.7973557710647583,-0.5470085144042969
1702063252371589400,15.52158935546875,-1.9419516324996948,1.535597801208496,-0.47165870666503906
1702063252388580600,15.53858056640625,-2.125998020172119,1.290351390838623,-0.2775564193725586
1702063252405565400,15.5555654296875,-2.3790066242218018,0.8992898464202881,-0.43190765380859375
1702063252422569500,15.572569580078126,-2.6198763847351074,0.43575406074523926,-0.7119207382202148
1702063252439563800,15.589563720703126,-2.8529727458953857,0.13846826553344727,-1.001288890838623
1702063252456556800,15.606556884765626,-2.7983362674713135,-0.02423858642578125,-1.1043663024902344
1702063252473550800,15.62355078125,-2.471726655960083,-0.2794642448425293,-1.030538558959961
1702063252490544000,15.640544189453125,-2.393918037414551,-0.5470635890960693,-0.7502412796020508
1702063252507539500,15.65753955078125,-2.452089786529541,-1.0460294485092163,-0.5586767196655273
1702063252524529400,15.674529296875,-2.9003024101257324,-1.438727617263794,-0.7287092208862305
1702063252541528600,15.691528564453124,-3.607889175415039,-1.5545496940612793,-1.1611814498901367
1702063252558519800,15.708519775390625,-4.235389232635498,-1.7119622230529785,-1.3331212997436523
1702063252575514000,15.72551416015625,-3.943547248840332,-2.164219379425049,-0.7569961547851562
1702063252592507400,15.74250732421875,-3.0141966342926025,-2.4705848693847656,0.16634082794189453
1702063252609501400,15.75950146484375,-2.4171769618988037,-2.717205047607422,0.5847196578979492
1702063252626495000,15.776494873046875,-2.8452391624450684,-2.870255947113037,0.33565330505371094
1702063252643489000,15.793489013671875,-4.048201560974121,-3.0918169021606445,0.06751155853271484
1702063252660482600,15.810482666015625,-5.036015033721924,-3.4252257347106934,0.20061111450195312
1702063252677475800,15.827475830078125,-5.8752546310424805,-3.828394889831543,0.7512617111206055
1702063252694471000,15.844470947265625,-6.085329055786133,-4.207584857940674,0.8987569808959961
1702063252711464200,15.861464111328125,-6.1672749519348145,-4.342311859130859,1.0540380477905273
1702063252728457500,15.87845751953125,-5.673700332641602,-4.320220947265625,1.4202404022216797
1702063252745451500,15.895451416015625,-5.053765296936035,-3.863654136657715,1.5755853652954102
1702063252762443500,15.912443603515625,-4.810483932495117,-3.644718647003174,1.9951248168945312
1702063252779439600,15.929439697265625,-4.875711441040039,-3.5532541275024414,3.659052848815918
1702063252796432600,15.9464326171875,-4.648562431335449,-3.583489418029785,4.346301078796387
1702063252813426700,15.9634267578125,-4.6334733963012695,-3.4186339378356934,4.117497444152832
1702063252830420700,15.980420654296875,-4.467552661895752,-3.21702241897583,3.6547679901123047
1702063252847414500,15.99741455078125,-3.751239776611328,-3.353999137878418,3.0713682174682617
1702063252864407800,16.01440771484375,-3.115513801574707,-3.300570487976074,2.764103889465332
1702063252881401900,16.03140185546875,-3.1824727058410645,-3.281696319580078,2.935976028442383
1702063252898393000,16.04839306640625,-4.346067905426025,-3.5892977714538574,3.240414619445801
1702063252915381800,16.0653818359375,-5.805283546447754,-3.757453441619873,3.513075828552246
1702063252932383000,16.082383056640627,-6.969454765319824,-3.914200782775879,3.714531898498535
1702063252949377000,16.099376953125,-7.589184284210205,-3.719681739807129,3.1534461975097656
1702063252966370800,16.116370849609375,-7.390384674072266,-3.446620225906372,2.283968925476074
1702063252983374800,16.133374755859375,-6.613594055175781,-3.315805435180664,1.6249666213989258
1702063253000358100,16.150358154296875,-5.698442459106445,-3.2923712730407715,1.3432912826538086
1702063253017352200,16.167352294921876,-4.993856906890869,-3.294222831726074,1.2750577926635742
1702063253034346000,16.184345947265626,-4.586145401000977,-3.1914076805114746,1.1006832122802734
1702063253051340000,16.201340087890625,-4.437093257904053,-3.0353851318359375,0.8141756057739258
1702063253068330500,16.21833056640625,-4.641487121582031,-2.7687034606933594,0.3826742172241211
1702063253085330200,16.235330078125,-4.653904914855957,-2.527088165283203,0.14177703857421875
1702063253102321200,16.252321044921874,-4.362732887268066,-2.3564653396606445,0.09980201721191406
1702063253119315200,16.269315185546876,-3.968912124633789,-2.1242494583129883,-0.0029773712158203125
1702063253136308500,16.28630859375,-3.7221007347106934,-1.8791152238845825,0.03977012634277344
1702063253153302500,16.303302490234376,-3.6432714462280273,-1.596069097518921,0.044769287109375
1702063253170296300,16.32029638671875,-3.505866050720215,-1.4140841960906982,-0.22879981994628906
1702063253187299300,16.33729931640625,-3.249382495880127,-1.276360034942627,-0.5231094360351562
1702063253204275700,16.354275634765624,-2.8980753421783447,-1.1566517353057861,-0.7069149017333984
1702063253221277700,16.371277587890624,-2.5697033405303955,-1.0161449909210205,-0.6105241775512695
1702063253238272500,16.3882724609375,-2.183298110961914,-0.7389771938323975,-0.41956043243408203
1702063253255264500,16.405264404296876,-2.027843475341797,-0.3669700622558594,-0.22075462341308594
1702063253272258800,16.4222587890625,-1.8184317350387573,0.03519320487976074,-0.10142993927001953
1702063253289252900,16.4392529296875,-1.587669014930725,0.2212679386138916,-0.3402242660522461
1702063253306247000,16.456246826171874,-1.4665101766586304,0.20531368255615234,-0.7651033401489258
1702063253323240700,16.47324072265625,-1.2741321325302124,0.27065014839172363,-1.1214876174926758
1702063253340234000,16.49023388671875,-1.054049015045166,0.4336831569671631,-1.265589714050293
1702063253357228000,16.50722802734375,-0.8086127042770386,0.6656596660614014,-1.1411495208740234
1702063253374221800,16.524221923828126,-0.6137180328369141,0.9304111003875732,-0.8496036529541016
1702063253391210500,16.54121044921875,-0.5613570213317871,1.0640153884887695,-0.727325439453125
1702063253408209400,16.55820947265625,-0.3392235338687897,1.341113567352295,-0.9503974914550781
1702063253425203200,16.575203125,-0.17633624374866486,1.5837352275848389,-1.184542179107666
1702063253442197000,16.592197021484374,0.0008814334869384766,1.83986496925354,-1.244196891784668
1702063253459191000,16.60919091796875,0.023344531655311584,2.0745997428894043,-1.0837397575378418
1702063253476184300,16.626184326171874,-0.26399120688438416,2.134255886077881,-0.6168670654296875
1702063253493178400,16.643178466796876,-0.6484948992729187,2.1798360347747803,-0.03958702087402344
1702063253510172200,16.660172119140626,-0.7164999842643738,2.3352582454681396,0.25301551818847656
1702063253527166200,16.677166259765624,-0.44472482800483704,2.489682197570801,0.20506954193115234
1702063253544159500,16.694159423828125,0.13213977217674255,2.5980641841888428,0.02945709228515625
1702063253561153300,16.7111533203125,0.7347027659416199,2.6376259326934814,-0.08592414855957031
1702063253578148000,16.728148193359374,1.180797815322876,2.7133991718292236,-0.13039875030517578
1702063253595140400,16.745140380859375,1.4734055995941162,2.7118959426879883,-0.023759841918945312
1702063253612136700,16.76213671875,1.7285672426223755,2.5848042964935303,0.22826766967773438
1702063253629128400,16.77912841796875,1.9535267353057861,2.5911805629730225,0.2986564636230469
1702063253646119700,16.79611962890625,2.109720230102539,2.655027389526367,0.3078298568725586
1702063253663119000,16.813119140625,2.187525987625122,2.7348082065582275,0.45429229736328125
1702063253680109600,16.830109619140625,2.191645383834839,2.8196725845336914,0.5117378234863281
1702063253697104000,16.847103759765623,2.169578790664673,2.877138376235962,0.5556716918945312
1702063253714097400,16.864097412109373,2.0741374492645264,2.9779903888702393,0.8908710479736328
1702063253731091500,16.881091552734375,1.9643800258636475,3.0821785926818848,1.422414779663086
1702063253748085000,16.8980849609375,1.8895156383514404,3.1808459758758545,1.9759159088134766
1702063253765078800,16.915078857421875,1.8997292518615723,3.3794684410095215,2.3410892486572266
1702063253782071000,16.932071044921877,1.9058482646942139,3.5027804374694824,2.432525634765625
1702063253799068400,16.949068359375,1.7110563516616821,3.421720027923584,2.550251007080078
1702063253816060000,16.966059814453125,1.6490488052368164,3.34649658203125,2.7222018241882324
1702063253833054200,16.98305419921875,1.45650053024292,3.3178551197052,3.0053443908691406
1702063253850047700,17.0000478515625,1.3910107612609863,3.2816789150238037,3.2123169898986816
1702063253867039500,17.01703955078125,1.3927879333496094,3.2161145210266113,3.2746458053588867
1702063253884037400,17.034037353515625,1.4255008697509766,3.1883792877197266,3.025825023651123
1702063253901029400,17.051029296875,1.591069221496582,3.159532070159912,2.649901866912842
1702063253918019600,17.06801953125,1.6304129362106323,2.9475350379943848,2.5899672508239746
1702063253935017000,17.085016845703127,1.6573994159698486,2.8631362915039062,2.82633638381958
1702063253952010200,17.10201025390625,1.4862722158432007,2.9051148891448975,3.2980294227600098
1702063253969004300,17.11900439453125,1.2603644132614136,2.9937453269958496,3.6503782272338867
1702063253985998000,17.135998046875,1.189570426940918,3.1093363761901855,3.7613143920898438
1702063254002992000,17.1529921875,1.3420946598052979,3.3725695610046387,3.6818490028381348
1702063254019985400,17.1699853515625,1.751185655593872,3.618969202041626,3.6816048622131348
1702063254036979500,17.1869794921875,1.9752317667007446,3.7777113914489746,3.7076706886291504
1702063254053973200,17.20397314453125,1.8162819147109985,3.7488789558410645,3.978695869445801
1702063254070967300,17.22096728515625,1.386130928993225,3.556718587875366,4.28590726852417
1702063254087960600,17.237960693359376,1.1261886358261108,3.458381175994873,4.356585502624512
1702063254104955000,17.254954833984375,0.9690067768096924,3.4463677406311035,4.288936138153076
1702063254121948400,17.271948486328125,0.8804817199707031,3.4850926399230957,4.190386772155762
1702063254138942700,17.288942626953126,0.8568885326385498,3.4938151836395264,4.000365734100342
1702063254155935700,17.305935791015624,0.7760195732116699,3.4556665420532227,3.7859368324279785
1702063254172929500,17.322929443359374,0.7493307590484619,3.526672840118408,3.4122276306152344
1702063254189923600,17.339923583984376,0.8593668937683105,3.555401086807251,3.113986015319824
1702063254206917600,17.356917724609374,1.102103352546692,3.5518107414245605,2.922518730163574
1702063254223911000,17.373910888671876,1.2816872596740723,3.533233404159546,2.562864303588867
1702063254240918800,17.390918701171874,1.426283836364746,3.4402780532836914,2.2516956329345703
1702063254257898800,17.407898681640624,1.7199702262878418,3.3089282512664795,2.2926130294799805
1702063254274890000,17.424889892578125,1.7466915845870972,3.172527551651001,2.4579029083251953
1702063254291888600,17.441888671875,1.5227627754211426,2.9104106426239014,2.237729072570801
1702063254308891100,17.45889111328125,1.131583571434021,2.8880043029785156,1.3915824890136719
1702063254325874000,17.4758740234375,0.5711061358451843,2.786813497543335,0.6407623291015625
1702063254342865200,17.492865234375,0.2339646816253662,2.8408446311950684,0.15154457092285156
1702063254359863600,17.509863525390625,0.021320343017578125,2.8045618534088135,0.19574451446533203
1702063254376855000,17.52685498046875,-0.1255740523338318,2.630417585372925,0.30493640899658203
1702063254393849000,17.54384912109375,-0.12693126499652863,2.402066946029663,-0.07962226867675781
1702063254410843000,17.5608427734375,-0.25351113080978394,2.263484477996826,-0.5859498977661133
1702063254427836200,17.577836181640624,-0.4587256908416748,2.3427364826202393,-0.9835281372070312
1702063254444830200,17.594830322265626,-0.6535110473632812,2.211029052734375,-1.1290607452392578
1702063254461824000,17.611823974609376,-0.5040181875228882,1.9356528520584106,-1.1220998764038086
1702063254478818000,17.628818115234374,-0.22420692443847656,1.6257529258728027,-1.214329719543457
1702063254495811300,17.645811279296876,-0.08022254705429077,1.4087802171707153,-1.4660558700561523
1702063254512805400,17.662805419921874,-0.1120138168334961,1.0961980819702148,-1.658846378326416
1702063254529799400,17.67979931640625,-0.39889585971832275,0.9177100658416748,-1.9275989532470703
1702063254546793500,17.69679345703125,-0.7900490760803223,0.6794168949127197,-2.3182997703552246
1702063254563786500,17.713786376953124,-0.9113702178001404,0.37475132942199707,-2.5693860054016113
1702063254580780500,17.730780517578125,-0.935748815536499,0.07509875297546387,-2.59395694732666
1702063254597774600,17.747774658203124,-0.9186854362487793,-0.1574857234954834,-2.098668098449707
1702063254614768600,17.7647685546875,-0.9860720634460449,-0.3267817497253418,-1.8598918914794922
1702063254631761700,17.78176171875,-1.3635023832321167,-0.3357424736022949,-1.8269309997558594
1702063254648753200,17.798753173828125,-1.8222029209136963,-0.5904297828674316,-1.5110235214233398
1702063254665752000,17.815751953125,-2.5126497745513916,-0.8392462730407715,-1.2614336013793945
1702063254682743600,17.83274365234375,-2.997591972351074,-0.9892677068710327,-1.3069982528686523
1702063254699731200,17.849731201171874,-3.371652841567993,-1.0029908418655396,-1.2751655578613281
1702063254716731000,17.86673095703125,-3.502817392349243,-1.0691441297531128,-0.9795398712158203
1702063254733724700,17.883724609375,-2.9653000831604004,-1.3102275133132935,-0.1160573959350586
1702063254750718700,17.90071875,-2.357727289199829,-1.395198941230774,0.9834985733032227
1702063254767708700,17.917708740234374,-2.2887754440307617,-1.4611462354660034,1.630681037902832
1702063254784706000,17.9347060546875,-2.8548474311828613,-1.5744234323501587,1.3121280670166016
1702063254801699800,17.951699951171875,-3.329892873764038,-1.8217015266418457,0.3932762145996094
1702063254818694000,17.96869384765625,-3.581634283065796,-1.9322609901428223,-0.25423622131347656
1702063254835687200,17.985687255859375,-3.8679866790771484,-2.172344446182251,0.14254283905029297
1702063254852681000,18.002680908203125,-3.554459571838379,-2.4204115867614746,1.2784109115600586
1702063254869675000,18.019675048828127,-3.1947097778320312,-2.721083164215088,1.9779329299926758
1702063254886656800,18.03665673828125,-3.315260648727417,-2.9425253868103027,1.5699472427368164
1702063254903659500,18.053659423828126,-4.056554794311523,-3.023089647293091,1.0076446533203125
1702063254920659000,18.070658935546874,-4.648221492767334,-3.232665538787842,1.3377246856689453
1702063254937650700,18.087650634765627,-5.028505325317383,-3.760209083557129,1.3124380111694336
1702063254954644200,18.104644287109377,-4.636475563049316,-3.9749579429626465,0.43543529510498047
1702063254971637200,18.12163720703125,-3.4251937866210938,-3.806943893432617,0.1620044708251953
1702063254988640500,18.138640625,-1.75055992603302,-3.330993413925171,1.3307218551635742
1702063255005625300,18.155625244140627,-0.5454659461975098,-2.90793514251709,3.252072334289551
1702063255022619100,18.172619140625,-0.4564967155456543,-2.529249906539917,5.177366256713867
1702063255039615200,18.189615234375,-2.59108829498291,-2.1268815994262695,5.4886674880981445
1702063255056606500,18.2066064453125,-4.69616174697876,-2.2414326667785645,5.101875305175781
1702063255073600300,18.223600341796875,-6.042311668395996,-2.5150604248046875,4.293127059936523
1702063255090583600,18.24058349609375,-6.2756805419921875,-2.792567253112793,3.3299903869628906
1702063255107587600,18.257587646484374,-5.602409839630127,-3.2343339920043945,3.3469009399414062
1702063255124581600,18.27458154296875,-4.935642242431641,-3.43754506111145,4.553718566894531
1702063255141575400,18.291575439453126,-5.18393611907959,-3.5624783039093018,5.118264198303223
1702063255158559200,18.308559326171874,-5.92814302444458,-3.5972187519073486,3.998687744140625
1702063255175562800,18.325562744140626,-6.517179489135742,-3.4962408542633057,2.253976821899414
1702063255192556800,18.342556884765624,-6.511658668518066,-3.2526907920837402,1.1791353225708008
1702063255209550800,18.35955078125,-5.838629722595215,-3.2266290187835693,1.0521230697631836
1702063255226544400,18.37654443359375,-4.69351053237915,-3.3014237880706787,1.314295768737793
1702063255243537700,18.39353759765625,-4.146187782287598,-3.386375665664673,1.8030414581298828
1702063255260531700,18.41053173828125,-4.125521183013916,-3.3588039875030518,1.7541818618774414
1702063255277525500,18.427525390625,-4.25765323638916,-3.3570282459259033,0.9452352523803711
1702063255294519600,18.44451953125,-4.076012134552002,-3.1872315406799316,0.05096626281738281
1702063255311512800,18.461512939453126,-3.69657301902771,-2.9911041259765625,-0.4467658996582031
1702063255328497400,18.478497314453126,-2.927351713180542,-2.9342129230499268,-0.4532308578491211
1702063255345500700,18.495500732421874,-2.27248215675354,-2.776503801345825,0.10946464538574219
1702063255362494700,18.51249462890625,-2.1091463565826416,-2.4980831146240234,0.5628805160522461
1702063255379486000,18.52948583984375,-2.3890883922576904,-2.27390193939209,0.2809629440307617
1702063255396484000,18.546484130859376,-2.654895305633545,-1.9867315292358398,-0.5619573593139648
1702063255413476000,18.56347607421875,-2.6879796981811523,-1.684242844581604,-1.1907405853271484
1702063255430469600,18.5804697265625,-2.6220624446868896,-1.5693379640579224,-1.3682012557983398
1702063255447466500,18.597466552734375,-2.4795150756835938,-1.4194316864013672,-1.1836509704589844
1702063255464442400,18.6144423828125,-2.4314169883728027,-1.3405463695526123,-0.5474700927734375
1702063255481441800,18.63144189453125,-1.9399209022521973,-1.3477973937988281,-0.04381275177001953
1702063255498444800,18.64844482421875,-1.2428823709487915,-1.2043068408966064,-0.196929931640625
1702063255515438300,18.665438232421874,-0.3310941457748413,-0.9117226600646973,-0.6546039581298828
1702063255532432400,18.682432373046876,0.32357609272003174,-0.5717630386352539,-1.063673973083496
1702063255549426000,18.699426025390625,0.688223123550415,-0.19127917289733887,-1.327437400817871
1702063255566420200,18.716420166015624,0.6988468170166016,0.1148688793182373,-1.40399169921875
1702063255583406800,18.73340673828125,0.5970467925071716,0.33182668685913086,-1.4277915954589844
1702063255600411400,18.750411376953124,0.4927811324596405,0.5032782554626465,-1.4943304061889648
1702063255617401000,18.767401123046874,0.6609989404678345,0.6455559730529785,-1.582305908203125
1702063255634395100,18.78439501953125,1.0319923162460327,0.8242349624633789,-1.7623624801635742
1702063255651388400,18.801388427734373,1.36172616481781,1.03005051612854,-1.8039741516113281
1702063255668382500,18.818382568359375,1.4620829820632935,1.1867337226867676,-1.4930357933044434
1702063255685366000,18.835365966796875,1.409470796585083,1.3806910514831543,-1.0098037719726562
1702063255702370600,18.85237060546875,1.2704603672027588,1.5759730339050293,-0.7379674911499023
1702063255719362300,18.8693623046875,1.1293445825576782,1.7592253684997559,-0.624730110168457
1702063255736358000,18.88635791015625,1.0409810543060303,2.008517026901245,-0.4782543182373047
1702063255753348900,18.903348876953125,0.9598517417907715,2.3094916343688965,-0.22791194915771484
1702063255770348000,18.92034814453125,0.9572666883468628,2.5057034492492676,0.04405689239501953
1702063255787328500,18.93732861328125,1.0950058698654175,2.448593854904175,0.39197731018066406
1702063255804340200,18.95434033203125,1.3284151554107666,2.3637170791625977,0.8022289276123047
1702063255821318100,18.971318115234375,1.6171021461486816,2.5309557914733887,1.1285104751586914
1702063255838320400,18.9883203125,1.617614984512329,2.7662014961242676,1.427842140197754
1702063255855303400,19.005303466796875,1.520813226699829,2.8970069885253906,1.542588233947754
1702063255872294400,19.02229443359375,1.3857240676879883,2.8454716205596924,1.4580802917480469
1702063255889301500,19.039301513671877,1.219214916229248,2.8633029460906982,1.468928337097168
1702063255906295800,19.0562958984375,1.24049711227417,2.976724147796631,2.0756592750549316
1702063255923288800,19.073288818359377,1.47769033908844,3.009756088256836,2.819089889526367
1702063255940283100,19.090283203125,1.72933030128479,2.913407325744629,2.9729371070861816
1702063255957274000,19.107274169921876,1.868101954460144,2.7186975479125977,2.746861457824707
1702063255974273500,19.1242734375,1.793419361114502,2.5833687782287598,2.502749443054199
1702063255991263700,19.141263671875,1.69881010055542,2.378854990005493,2.6670494079589844
1702063256008258300,19.15825830078125,1.6461281776428223,2.225067615509033,3.103128433227539
1702063256025250600,19.17525048828125,1.6501142978668213,2.1687469482421875,3.448962688446045
1702063256042247200,19.1922470703125,1.9807212352752686,2.1489176750183105,3.386397361755371
1702063256059239200,19.2092392578125,2.3909785747528076,2.193162441253662,3.1374263763427734
1702063256076233000,19.22623291015625,2.597719430923462,2.265901565551758,2.9622459411621094
1702063256093227000,19.24322705078125,2.4426941871643066,2.394085645675659,2.8704681396484375
1702063256110221000,19.260220947265626,1.7472162246704102,2.591768741607666,2.969651222229004
1702063256127214000,19.277214111328124,1.0399799346923828,2.870821475982666,3.1093506813049316
1702063256144208400,19.29420849609375,0.6671299934387207,2.9939775466918945,3.242152690887451
1702063256161202000,19.311201904296876,0.7382526397705078,3.0231873989105225,3.367567539215088
1702063256178196200,19.3281962890625,1.0663909912109375,3.0739009380340576,3.3821582794189453
1702063256195186700,19.345186767578124,1.408830165863037,3.238839864730835,3.4214272499084473
1702063256212186000,19.36218603515625,1.4187617301940918,3.3982205390930176,3.428424835205078
1702063256229177300,19.37917724609375,1.2410943508148193,3.3473734855651855,3.362626075744629
1702063256246171100,19.396171142578126,1.1001131534576416,3.1455609798431396,3.3770384788513184
1702063256263164400,19.413164306640624,1.1357359886169434,2.9440181255340576,3.3121018409729004
1702063256280158500,19.430158447265626,1.3171758651733398,2.86370587348938,3.2156238555908203
1702063256297152300,19.44715234375,1.5339288711547852,2.7935426235198975,3.2939882278442383
1702063256314146300,19.464146240234374,1.8802154064178467,2.847358465194702,3.405458450317383
1702063256331139600,19.4811396484375,1.9732680320739746,3.017214298248291,3.502513885498047
1702063256348133600,19.498133544921874,1.934708833694458,3.118412971496582,3.5239434242248535
1702063256365127200,19.515127197265624,1.7949893474578857,3.1001405715942383,3.353482246398926
1702063256382121500,19.53212158203125,1.7050893306732178,3.016794204711914,3.044738292694092
1702063256399114500,19.549114501953124,1.6218425035476685,2.955606698989868,2.7509708404541016
1702063256416108800,19.56610888671875,1.4823048114776611,2.8905081748962402,2.5788955688476562
1702063256433102300,19.583102294921876,1.3152928352355957,2.7908101081848145,2.3732433319091797
1702063256450089000,19.6000888671875,1.325555682182312,2.685253858566284,2.126706123352051
1702063256467089700,19.617089599609375,1.4890979528427124,2.5686299800872803,1.787576675415039
1702063256484083700,19.634083740234374,1.6951007843017578,2.484546422958374,1.3493947982788086
1702063256501076000,19.651075927734375,1.7546664476394653,2.3571245670318604,0.8589906692504883
1702063256518073000,19.668072998046874,1.6483819484710693,2.2655725479125977,0.5433368682861328
1702063256535064800,19.68506494140625,1.3310694694519043,2.0563278198242188,0.2925243377685547
1702063256552059100,19.70205908203125,0.9824654459953308,1.9136757850646973,0.07582473754882812
1702063256569052700,19.719052734375,0.5484874248504639,1.873849630355835,-0.058945655822753906
1702063256586044000,19.7360439453125,0.2545437216758728,1.8250802755355835,-0.16422748565673828
1702063256603042600,19.75304248046875,-0.012637495994567871,1.724058985710144,-0.21895122528076172
1702063256620023300,19.770023193359375,-0.34327036142349243,1.667191982269287,-0.17023849487304688
1702063256637027600,19.787027587890623,-0.766414225101471,1.5355329513549805,-0.23110485076904297
1702063256654021600,19.804021728515625,-1.2883796691894531,1.4471063613891602,-0.5780611038208008
1702063256671015200,19.82101513671875,-1.8392683267593384,1.6038527488708496,-1.177469253540039
1702063256688009000,19.838009033203125,-2.0953521728515625,1.555213212966919,-1.4331979751586914
1702063256705002800,19.855002685546875,-2.0862276554107666,1.271945595741272,-1.3277454376220703
1702063256721996800,19.871996826171873,-1.933787226676941,0.7961039543151855,-1.2348127365112305
1702063256738990000,19.888989990234375,-1.8006715774536133,0.41493284702301025,-1.3017377853393555
1702063256755984100,19.905984130859373,-1.6096075773239136,-0.004258394241333008,-1.305068016052246
1702063256772978000,19.92297802734375,-1.5548386573791504,-0.3514087200164795,-1.640367031097412
1702063256789972000,19.939971923828125,-1.4324498176574707,-0.618030309677124,-2.1840410232543945
1702063256806965200,19.95696533203125,-1.7827701568603516,-0.9949959516525269,-2.2207183837890625
1702063256823956500,19.97395654296875,-2.0574634075164795,-1.2623525857925415,-1.9517955780029297
1702063256840955400,19.990955322265624,-2.1976780891418457,-1.365543007850647,-1.7617359161376953
1702063256857947400,20.007947509765625,-2.1510443687438965,-1.3737050294876099,-1.5302753448486328
1702063256874940200,20.024940185546875,-1.6328823566436768,-1.4799014329910278,-1.2948360443115234
1702063256891934200,20.041934326171877,-1.2924330234527588,-1.7485591173171997,-1.064178466796875
1702063256908930300,20.058930419921875,-1.365264892578125,-1.9014091491699219,-1.0393648147583008
1702063256925917700,20.075917724609376,-1.8607293367385864,-1.9321706295013428,-1.115797996520996
1702063256942912500,20.09291259765625,-2.3840227127075195,-2.104806423187256,-1.08740234375
1702063256959909600,20.10990966796875,-2.4296224117279053,-2.5294768810272217,-0.6900310516357422
1702063256976900600,20.126900634765626,-2.21026611328125,-2.8358423709869385,-0.19959163665771484
1702063256993899800,20.143899658203125,-2.2377121448516846,-3.236947536468506,0.2301340103149414
1702063257010890200,20.16089013671875,-2.5357022285461426,-3.6849780082702637,0.6157188415527344
1702063257027884500,20.177884521484376,-3.34932017326355,-3.740699052810669,0.7655849456787109
1702063257044878000,20.194878173828126,-4.227795600891113,-3.5308709144592285,0.6942386627197266
1702063257061872400,20.211872314453124,-4.337982177734375,-3.5800182819366455,0.42064857482910156
1702063257078865400,20.228865478515626,-3.8069355487823486,-3.893310785293579,1.1955680847167969
1702063257095859500,20.245859375,-2.471012592315674,-4.283933639526367,2.384921073913574
1702063257112843000,20.262843017578124,-0.516525149345398,-4.331987380981445,2.490161895751953
1702063257129847300,20.279847412109376,0.8993836641311646,-4.121068954467773,1.7210378646850586
1702063257146840600,20.296840576171874,0.029413461685180664,-4.120285511016846,1.592005729675293
1702063257163834600,20.313834716796876,-1.7063190937042236,-4.066288471221924,2.2946529388427734
1702063257180826000,20.330826171875,-2.5805888175964355,-3.8063318729400635,2.093374252319336
1702063257197824500,20.347824462890625,-2.8908143043518066,-3.48763108253479,1.35308837890625
1702063257214815700,20.364815673828126,-2.694167137145996,-3.271925210952759,0.8551244735717773
1702063257231809800,20.381809814453124,-2.812117338180542,-3.3548786640167236,1.7099485397338867
1702063257248803600,20.398803466796874,-3.090711832046509,-3.4681508541107178,4.261098861694336
1702063257265797600,20.415797607421876,-4.350074291229248,-2.9154000282287598,4.8352508544921875
1702063257282790700,20.432790771484374,-5.580660820007324,-2.6610453128814697,2.452059745788574
1702063257299784700,20.44978466796875,-5.530134201049805,-2.781877279281616,1.7205934524536133
1702063257316778500,20.466778564453126,-4.886812210083008,-2.968980550765991,2.9303388595581055
1702063257333770000,20.48377001953125,-4.21554708480835,-3.0198252201080322,3.9110193252563477
1702063257350768000,20.50076806640625,-4.138864517211914,-3.0433409214019775,3.8950910568237305
1702063257367758800,20.5177587890625,-4.398698806762695,-3.055634021759033,2.7839736938476562
1702063257384748800,20.534748779296876,-4.575745105743408,-3.2476024627685547,1.6578245162963867
1702063257401749000,20.5517490234375,-4.608177185058594,-3.3988282680511475,0.8558759689331055
1702063257418739500,20.568739501953125,-4.505474090576172,-3.6362826824188232,0.7232885360717773
1702063257435734800,20.58573486328125,-4.291568756103516,-3.8901736736297607,0.8882255554199219
1702063257452728600,20.602728515625,-3.966430902481079,-4.019838809967041,0.939295768737793
1702063257469722600,20.61972265625,-3.766294002532959,-4.069725036621094,0.6156625747680664
1702063257486716000,20.6367158203125,-3.445739984512329,-4.013211727142334,-0.004080772399902344
1702063257503710000,20.6537099609375,-2.8332133293151855,-3.912889003753662,-0.5512266159057617
1702063257520701700,20.67070166015625,-2.1556038856506348,-3.8151698112487793,-0.7090644836425781
1702063257537698600,20.687698486328124,-1.736215353012085,-3.5968785285949707,-0.43666934967041016
1702063257554692400,20.7046923828125,-1.7189605236053467,-3.428201198577881,-0.05372810363769531
1702063257571685000,20.72168505859375,-1.806761384010315,-3.2251787185668945,-0.2046661376953125
1702063257588679000,20.738678955078125,-1.9786373376846313,-3.0008766651153564,-0.5572347640991211
1702063257605673000,20.7556728515625,-1.9272809028625488,-2.6842126846313477,-0.9265623092651367
1702063257622666000,20.772666015625,-1.6584548950195312,-2.276242733001709,-1.1586275100708008
1702063257639660000,20.789659912109375,-1.5043264627456665,-1.9360501766204834,-1.1271257400512695
1702063257656654000,20.806654052734373,-1.5101001262664795,-1.6908752918243408,-1.038421630859375
1702063257673640000,20.823639892578125,-1.4169180393218994,-1.411492109298706,-1.0974254608154297
1702063257690641200,20.84064111328125,-1.1260919570922852,-1.1299468278884888,-1.2770090103149414
1702063257707633000,20.8576328125,-0.7115277051925659,-0.8312690258026123,-1.4307966232299805
1702063257724631300,20.87463134765625,-0.47121983766555786,-0.6145150661468506,-1.2887678146362305
1702063257741623000,20.891623046875,-0.3841589689254761,-0.5346171855926514,-0.9305553436279297
1702063257758619000,20.908618896484374,-0.45711463689804077,-0.48504185676574707,-0.6502752304077148
1702063257775608300,20.9256083984375,-0.32121652364730835,-0.3470170497894287,-0.723876953125
1702063257792604000,20.94260400390625,-0.0020631253719329834,-0.18226122856140137,-1.2030000686645508
1702063257809598000,20.959597900390627,0.35113734006881714,-0.0843658447265625,-1.6056184768676758
1702063257826591200,20.97659130859375,0.8132100105285645,-0.044164419174194336,-1.727428913116455
1702063257843585300,20.993585205078126,1.0345659255981445,-0.08005237579345703,-1.472956657409668
1702063257860579000,21.0105791015625,1.1604561805725098,0.04350924491882324,-1.0782899856567383
1702063257877573000,21.027572998046875,1.1264681816101074,0.27227139472961426,-0.7160854339599609
1702063257894566400,21.04456640625,1.1683001518249512,0.5886473655700684,-0.43666553497314453
1702063257911560400,21.061560546875,1.1738793849945068,0.7941598892211914,-0.3384075164794922
1702063257928545500,21.078545654296875,1.0879021883010864,1.0014793872833252,-0.3810701370239258
1702063257945548300,21.09554833984375,0.9993690252304077,1.2252864837646484,-0.2773866653442383
1702063257962541600,21.11254150390625,1.082943081855774,1.3286137580871582,-0.17905712127685547
1702063257979533000,21.129532958984374,1.4867724180221558,1.330324411392212,0.11866950988769531
1702063257996531700,21.14653173828125,2.0943260192871094,1.417405605316162,0.47194862365722656
1702063258013523200,21.163523193359374,2.7676451206207275,1.6863527297973633,0.7338275909423828
1702063258030516500,21.1805166015625,3.2668795585632324,1.9578678607940674,0.8019876480102539
1702063258047504600,21.197504638671877,3.364326238632202,2.1318037509918213,0.5257177352905273
1702063258064504300,21.21450439453125,3.353830099105835,2.1622204780578613,0.22173690795898438
1702063258081498400,21.231498291015626,3.2165579795837402,2.1679635047912598,0.29589366912841797
1702063258098491600,21.24849169921875,3.1394925117492676,2.2919418811798096,0.9632530212402344
1702063258115485700,21.265485595703126,3.1479849815368652,2.514110565185547,1.7640361785888672
1702063258132479200,21.282479248046876,2.9645442962646484,2.6995131969451904,2.2189855575561523
1702063258149470200,21.29947021484375,2.624711275100708,2.9341511726379395,2.1668639183044434
1702063258166470000,21.316469970703125,1.9691089391708374,3.0396289825439453,1.8278183937072754
1702063258183447600,21.333447509765627,1.3516385555267334,2.985651969909668,1.4762320518493652
1702063258200454400,21.350454345703124,1.0713844299316406,2.7993826866149902,1.7070093154907227
1702063258217448700,21.36744873046875,1.2226619720458984,2.659247398376465,2.3061461448669434
1702063258234441700,21.384441650390624,1.400238037109375,2.53110408782959,3.1154747009277344
1702063258251435800,21.401435791015626,1.3048315048217773,2.4901208877563477,3.3033480644226074
1702063258268429600,21.4184296875,1.1399660110473633,2.4407498836517334,2.5853519439697266
1702063258285423600,21.435423583984374,1.033090353012085,2.5245895385742188,1.821021556854248
1702063258302416600,21.452416748046875,0.9435601234436035,2.209074020385742,1.845139503479004
1702063258319410700,21.46941064453125,1.0481948852539062,1.7788550853729248,2.643871784210205
1702063258336404500,21.486404541015624,1.717278003692627,1.7099566459655762,3.4496712684631348
1702063258353398800,21.503398681640626,2.335895299911499,1.6760482788085938,4.029321670532227
1702063258370391800,21.520391845703124,2.7327582836151123,1.6797993183135986,4.213477611541748
1702063258387385900,21.5373857421875,2.595611095428467,1.7993812561035156,4.176000595092773
1702063258404369200,21.554369140625,1.9692068099975586,1.9205498695373535,3.926309585571289
1702063258421363200,21.57136328125,1.3662781715393066,2.105592727661133,3.7206125259399414
1702063258438367000,21.588366943359375,1.2354419231414795,2.202913284301758,3.9801406860351562
1702063258455360800,21.60536083984375,1.2505626678466797,2.2933125495910645,4.32767391204834
1702063258472354600,21.6223544921875,1.6030511856079102,2.3631720542907715,4.077757835388184
1702063258489349000,21.63934912109375,1.8292217254638672,2.382019281387329,3.6329665184020996
1702063258506331400,21.656331298828125,1.8638715744018555,2.4108076095581055,3.2833213806152344
1702063258523336000,21.6733359375,1.8642547130584717,2.3372113704681396,3.1545934677124023
1702063258540334600,21.69033447265625,1.9809849262237549,2.1982669830322266,3.1678390502929688
1702063258557319200,21.707319091796876,2.225355386734009,2.1893301010131836,3.3717494010925293
1702063258574317000,21.724317138671875,2.408066511154175,2.344041347503662,3.4148287773132324
1702063258591300400,21.74130029296875,2.5617668628692627,2.533921480178833,3.293320655822754
1702063258608301000,21.758301025390626,2.5486562252044678,2.6717047691345215,3.13747501373291
