time,seconds_elapsed,z,y,x
1702139015267652400,0.11465234375,-5.960198402404785,-2.9282686710357666,0.3442594110965729
1702139015284643000,0.13164306640625,-5.711267471313477,-4.176694393157959,-0.4940589368343353
1702139015301634600,0.148634521484375,-5.756498336791992,-5.185307025909424,-0.9188957810401917
1702139015318610000,0.16560986328125,-6.738147258758545,-5.615014553070068,-0.8426029682159424
1702139015335614200,0.1826142578125,-9.04049015045166,-5.661021709442139,0.08705782890319824
1702139015352607200,0.199607177734375,-10.262475967407227,-6.0508036613464355,1.5644359588623047
1702139015369593000,0.216593017578125,-7.932981014251709,-6.180281639099121,2.547914981842041
1702139015386587100,0.233587158203125,-4.761510372161865,-5.834897041320801,3.1901803016662598
1702139015403578400,0.250578369140625,-2.0830349922180176,-5.75349235534668,3.14040470123291
1702139015420565800,0.267565673828125,-2.0288314819335938,-5.1432952880859375,3.2840986251831055
1702139015437558800,0.284558837890625,-4.084000587463379,-4.877001762390137,3.428260326385498
1702139015454547500,0.30154736328125,-5.1746745109558105,-4.600438117980957,3.112250328063965
1702139015471532000,0.318531982421875,-4.93035888671875,-4.689507961273193,3.173513412475586
1702139015488528400,0.3355283203125,-3.6943671703338623,-4.510182857513428,3.918210029602051
1702139015505521000,0.35252099609375,-2.4690942764282227,-3.806870460510254,4.7359418869018555
1702139015522509600,0.369509521484375,-2.4606285095214844,-3.124359607696533,5.681350231170654
1702139015539511600,0.386511474609375,-3.0271706581115723,-2.731809139251709,6.425294876098633
1702139015556493300,0.403493408203125,-3.121335029602051,-2.546267032623291,7.216487884521484
1702139015573484300,0.420484375,-2.6749818325042725,-2.0703320503234863,7.109759330749512
1702139015590472000,0.437471923828125,-2.8235042095184326,-1.3167240619659424,6.0053229331970215
1702139015607464700,0.454464599609375,-3.7905712127685547,-0.7836229801177979,4.974775791168213
1702139015624456000,0.4714560546875,-4.195077419281006,-0.30105575919151306,4.227348327636719
1702139015641447200,0.488447265625,-3.9427645206451416,-0.10067787766456604,3.6931557655334473
1702139015658438000,0.50543798828125,-3.5874733924865723,-0.24375148117542267,3.120150566101074
1702139015675423700,0.522423828125,-2.847601890563965,-0.03772452473640442,3.3443374633789062
1702139015692421600,0.539421630859375,-2.4317500591278076,-0.03167104721069336,3.7431859970092773
1702139015709406200,0.55640625,-2.9301259517669678,-0.06390634179115295,3.810072898864746
1702139015726407700,0.57340771484375,-3.6455025672912598,0.22768306732177734,2.563715934753418
1702139015743381200,0.59038134765625,-3.737844467163086,0.43997395038604736,1.2593050003051758
1702139015760378000,0.607378173828125,-3.1324167251586914,-0.220316082239151,0.8503293991088867
1702139015777372400,0.624372314453125,-1.9452235698699951,-1.1678838729858398,1.0893793106079102
1702139015794366500,0.641366455078125,-0.818932294845581,-1.5801897048950195,1.6947832107543945
1702139015811354000,0.65835400390625,-0.990248441696167,-1.8481990098953247,2.507473945617676
1702139015828340700,0.6753408203125,-2.3507542610168457,-2.7218410968780518,2.8166303634643555
1702139015845332700,0.692332763671875,-3.303523063659668,-4.03896427154541,2.6753158569335938
1702139015862326300,0.709326171875,-2.632411003112793,-4.963374137878418,2.3330917358398438
1702139015879312000,0.726311767578125,-1.7077101469039917,-5.898131847381592,2.70986270904541
1702139015896305700,0.7433056640625,-1.4350254535675049,-6.960960388183594,4.11982536315918
1702139015913297200,0.760297119140625,-2.1976523399353027,-7.343812942504883,4.177590370178223
1702139015930284300,0.7772841796875,-2.8067705631256104,-7.702962398529053,3.0540924072265625
1702139015947266800,0.794266845703125,-2.5790765285491943,-8.177234649658203,2.0572242736816406
1702139015964269600,0.81126953125,-1.7876111268997192,-9.305377960205078,2.09344482421875
1702139015981258000,0.828258056640625,-1.6430046558380127,-10.122812271118164,1.7806081771850586
1702139015998245000,0.8452451171875,-1.7801963090896606,-10.48619556427002,0.9175863265991211
1702139016015240000,0.862239990234375,-1.797678828239441,-10.656782150268555,0.7253875732421875
1702139016032234000,0.87923388671875,-0.9655141830444336,-10.252309799194336,0.5491771697998047
1702139016049217800,0.8962177734375,-0.6956071853637695,-10.133848190307617,0.5778942108154297
1702139016066211800,0.9132119140625,-0.9956362247467041,-10.793622970581055,0.3510322570800781
1702139016083200300,0.9302001953125,-0.3200109004974365,-12.429283142089844,0.2310466766357422
1702139016100193300,0.947193359375,0.23420429229736328,-12.705551147460938,-0.7801122665405273
1702139016117183500,0.96418359375,-0.8707365989685059,-12.750633239746094,-1.465479850769043
1702139016134173000,0.9811728515625,-2.2702760696411133,-12.768407821655273,-1.0918240547180176
1702139016151167000,0.9981669921875,-2.413407564163208,-12.316996574401855,-0.7763614654541016
1702139016168148200,1.015148193359375,-1.4351978302001953,-12.540936470031738,0.6773843765258789
1702139016185132500,1.032132568359375,-0.617886483669281,-13.192410469055176,3.20513916015625
1702139016202138600,1.049138671875,-1.055420994758606,-14.362236022949219,5.512845039367676
1702139016219125800,1.066125732421875,-1.2750736474990845,-13.809843063354492,4.3654069900512695
1702139016236119000,1.083119140625,-1.345431923866272,-13.235477447509766,2.680208206176758
1702139016253098500,1.100098388671875,-1.857698678970337,-13.268261909484863,2.2517595291137695
1702139016270096600,1.1170966796875,-1.755754828453064,-13.4228515625,2.0841712951660156
1702139016287089000,1.1340888671875,-0.8676419258117676,-13.07752799987793,1.4820890426635742
1702139016304077000,1.1510771484375,-0.07552814483642578,-12.87287425994873,1.1373987197875977
1702139016321074700,1.16807470703125,-0.1509624719619751,-12.845346450805664,1.5735931396484375
1702139016338061000,1.18506103515625,-0.5651092529296875,-13.160950660705566,1.2030954360961914
1702139016355055000,1.20205517578125,-0.712007999420166,-13.154934883117676,-0.10196971893310547
1702139016372044800,1.219044921875,-0.5283546447753906,-12.62544059753418,-1.6484460830688477
1702139016389030100,1.236030029296875,-0.40737199783325195,-12.07905101776123,-1.8125419616699219
1702139016406014000,1.253013916015625,-0.9179548025131226,-11.577853202819824,-0.3963174819946289
1702139016423012900,1.270012939453125,-1.776094675064087,-10.830803871154785,0.6159868240356445
1702139016440006000,1.287005859375,-1.972029685974121,-10.344660758972168,0.32560157775878906
1702139016456993300,1.3039931640625,-2.197007417678833,-9.810612678527832,-0.8661799430847168
1702139016473979000,1.320978759765625,-2.429431915283203,-9.520513534545898,-2.5026707649230957
1702139016490975000,1.33797509765625,-2.114434242248535,-8.06149959564209,-3.7171974182128906
1702139016507968800,1.35496875,-2.980935573577881,-6.899137496948242,-2.663081169128418
1702139016524957700,1.371957763671875,-4.290060043334961,-7.039027214050293,-0.4311990737915039
1702139016541951200,1.388951171875,-3.9598746299743652,-6.775674819946289,0.0022449493408203125
1702139016558936600,1.4059365234375,-2.830678939819336,-6.25942325592041,-1.8837594985961914
1702139016575928800,1.4229287109375,-2.1228246688842773,-5.714324474334717,-3.301657199859619
1702139016592923400,1.43992333984375,-1.8149893283843994,-5.0563788414001465,-3.452674388885498
1702139016609905000,1.45690478515625,-1.917909026145935,-4.200587272644043,-2.687668800354004
1702139016626903600,1.473903564453125,-2.3654580116271973,-3.8395872116088867,-1.384324073791504
1702139016643892200,1.490892333984375,-2.6237802505493164,-3.6574840545654297,-0.8304157257080078
1702139016660880400,1.50788037109375,-3.423248291015625,-3.32676100730896,-1.193453311920166
1702139016677877800,1.524877685546875,-3.507133960723877,-3.013451099395752,-2.3143935203552246
1702139016694861300,1.541861328125,-3.1549911499023438,-2.875854015350342,-2.8492517471313477
1702139016711857200,1.558857177734375,-2.5042929649353027,-2.527463436126709,-2.417332172393799
1702139016728844300,1.57584423828125,-2.4580883979797363,-2.411634922027588,-0.965972900390625
1702139016745838000,1.592838134765625,-2.270174026489258,-2.2064335346221924,-0.23672008514404297
1702139016762824700,1.60982470703125,-1.8763842582702637,-2.107497215270996,-0.6300783157348633
1702139016779811300,1.626811279296875,-1.380610466003418,-1.717372179031372,-1.2456421852111816
1702139016796806700,1.643806640625,-1.17376708984375,-1.3067622184753418,-1.2332329750061035
1702139016813803000,1.660802978515625,-1.4550590515136719,-0.9284906387329102,-0.9289951324462891
1702139016830779600,1.677779541015625,-1.6658276319503784,-0.5876402854919434,0.029796600341796875
1702139016847781000,1.694781005859375,-1.6980079412460327,-0.6181840896606445,0.9195528030395508
1702139016864770000,1.71177001953125,-1.1538581848144531,-0.8713095188140869,1.0916509628295898
1702139016881753600,1.728753662109375,-0.6235194206237793,-1.0333144664764404,0.8525629043579102
1702139016898744000,1.745744140625,-0.7934243679046631,-0.6113083362579346,0.2582254409790039
1702139016915745300,1.762745361328125,-0.9831616878509521,-0.4871337413787842,0.40756893157958984
1702139016932734500,1.779734375,-0.986423134803772,-0.9027729034423828,1.4497594833374023
1702139016949722000,1.79672216796875,-0.9567102193832397,-1.2695331573486328,2.8749141693115234
1702139016966713900,1.8137138671875,-1.649564266204834,-1.7163424491882324,3.6135787963867188
1702139016983707100,1.83070703125,-2.2435624599456787,-1.77885103225708,3.1794090270996094
1702139017000692200,1.847692138671875,-2.973245620727539,-1.3271713256835938,2.668869972229004
1702139017017687600,1.8646875,-3.265775203704834,-1.0633220672607422,2.808650016784668
1702139017034676500,1.881676513671875,-3.0504653453826904,-1.0291075706481934,3.4592390060424805
1702139017051667000,1.8986669921875,-2.941096544265747,-0.8016629219055176,3.944761276245117
1702139017068655400,1.9156552734375,-2.8362319469451904,-0.30089759826660156,3.6731839179992676
1702139017085649400,1.9326494140625,-2.9139442443847656,0.4906930923461914,2.3480606079101562
1702139017102640600,1.949640625,-3.2253241539001465,1.2161612510681152,1.092979907989502
1702139017119617800,1.96661767578125,-3.7300703525543213,1.474971055984497,0.6123805046081543
1702139017136622600,1.98362255859375,-4.0430378913879395,1.1912293434143066,0.9795327186584473
1702139017153613600,2.000613525390625,-3.494647264480591,0.9195623397827148,1.4721779823303223
1702139017170599000,2.017598876953125,-2.750847578048706,0.9452791213989258,1.5076255798339844
1702139017187593700,2.03459375,-2.176537275314331,1.3647739887237549,1.5618672370910645
1702139017204583000,2.0515830078125,-2.9875192642211914,1.402012586593628,1.6923441886901855
1702139017221576000,2.068575927734375,-3.7712817192077637,1.055631160736084,1.75429105758667
1702139017238559000,2.08555908203125,-4.02678918838501,0.42545509338378906,2.2664737701416016
1702139017255560000,2.102559814453125,-3.7879714965820312,0.08046674728393555,3.1452059745788574
1702139017272544800,2.119544677734375,-3.0997776985168457,0.17613649368286133,3.8146462440490723
1702139017289534500,2.136534423828125,-2.874533176422119,0.5763444900512695,4.341000080108643
1702139017306526500,2.1535263671875,-2.8183159828186035,1.0284104347229004,4.292496681213379
1702139017323519700,2.170519775390625,-2.969115734100342,1.3696744441986084,3.5640134811401367
1702139017340505000,2.187505126953125,-2.935534715652466,1.2756893634796143,2.792973518371582
1702139017357500400,2.20450048828125,-2.598318338394165,0.9563777446746826,2.267454147338867
1702139017374488000,2.221488037109375,-2.1373131275177,0.7498624324798584,2.3420257568359375
1702139017391483400,2.2384833984375,-1.895365834236145,0.5043160915374756,3.2598466873168945
1702139017408467700,2.2554677734375,-1.6665538549423218,0.42810940742492676,2.9045534133911133
1702139017425463000,2.272463134765625,-1.4183881282806396,0.14548611640930176,1.602743148803711
1702139017442453200,2.289453369140625,-1.110222339630127,-0.3231618404388428,0.566676139831543
1702139017459438000,2.30643798828125,-1.3420934677124023,-0.47112011909484863,-0.19752883911132812
1702139017476435200,2.323435302734375,-1.8693842887878418,-0.41825294494628906,-0.5022916793823242
1702139017493413400,2.340413330078125,-1.8660672903060913,-0.362809419631958,-0.4974374771118164
1702139017510414000,2.3574140625,-1.3324079513549805,-0.46648263931274414,-0.2896299362182617
1702139017527409000,2.374408935546875,-0.7602255344390869,-0.7602834701538086,-0.13782310485839844
1702139017544407600,2.391407470703125,-0.46856188774108887,-1.26920747756958,-0.08055496215820312
1702139017561379800,2.4083798828125,-0.6225082874298096,-2.032309055328369,-0.3930521011352539
1702139017578375400,2.42537548828125,-1.5499000549316406,-2.647639751434326,-0.382537841796875
1702139017595370800,2.442370849609375,-1.8997206687927246,-2.774448871612549,-0.18287086486816406
1702139017612364300,2.4593642578125,-2.6266098022460938,-3.1826272010803223,-0.0062198638916015625
1702139017629346000,2.476345947265625,-2.472332715988159,-3.748199462890625,-0.017450332641601562
1702139017646339600,2.493339599609375,-1.3065977096557617,-3.8317878246307373,-0.6057529449462891
1702139017663329300,2.510329345703125,-1.0338317155838013,-3.9421463012695312,-0.8910608291625977
1702139017680318000,2.52731787109375,-1.599613904953003,-4.172250747680664,-0.7252054214477539
1702139017697313000,2.54431298828125,-2.359628200531006,-4.460021018981934,-0.5788593292236328
1702139017714291500,2.56129150390625,-2.349365711212158,-4.92259407043457,-0.5355119705200195
1702139017731292400,2.57829248046875,-1.0511672496795654,-5.125436782836914,-0.0936899185180664
1702139017748284700,2.59528466796875,0.5350127220153809,-4.88499116897583,0.41637420654296875
1702139017765274400,2.6122744140625,0.9887759685516357,-4.758913040161133,0.4510517120361328
1702139017782266000,2.62926611328125,-0.25325489044189453,-5.696868896484375,0.18731689453125
1702139017799253500,2.64625341796875,-1.4445931911468506,-6.261990070343018,-1.193556785583496
1702139017816245200,2.663245361328125,-2.403226613998413,-6.320908546447754,-2.666842460632324
1702139017833238800,2.68023876953125,-3.2891225814819336,-6.25098180770874,-3.214171886444092
1702139017850224000,2.69722412109375,-3.464498519897461,-6.43284797668457,-2.418671131134033
1702139017867219000,2.714218994140625,-2.995983839035034,-7.033428192138672,-1.7573866844177246
1702139017884207900,2.731207763671875,-1.87868332862854,-7.5964531898498535,-1.7703676223754883
1702139017901201200,2.748201171875,-1.2228491306304932,-7.903111934661865,-1.7932171821594238
1702139017918197800,2.76519775390625,-1.7630348205566406,-8.111581802368164,-1.416417121887207
1702139017935179000,2.782178955078125,-3.07620906829834,-8.472579002380371,-0.24383544921875
1702139017952173800,2.799173828125,-4.242649555206299,-9.404182434082031,1.01531982421875
1702139017969159700,2.81615966796875,-4.073169231414795,-10.836836814880371,1.2251462936401367
1702139017986152000,2.83315185546875,-3.0361998081207275,-11.010808944702148,1.0895490646362305
1702139018003148800,2.850148681640625,-2.7637338638305664,-10.913473129272461,1.5979681015014648
1702139018020125700,2.867125732421875,-2.2868196964263916,-10.711282730102539,1.9422798156738281
1702139018037126400,2.88412646484375,-1.6366872787475586,-11.051055908203125,1.9169626235961914
1702139018054114600,2.901114501953125,-0.7395056486129761,-11.232307434082031,2.3162975311279297
1702139018071105300,2.918105224609375,-0.41704899072647095,-11.95018196105957,3.060368537902832
1702139018088094500,2.935094482421875,0.22259974479675293,-12.251739501953125,2.0412750244140625
1702139018105085000,2.9520849609375,1.1584246158599854,-12.384269714355469,0.8383636474609375
1702139018122074400,2.969074462890625,1.340528130531311,-12.236621856689453,0.6736345291137695
1702139018139068400,2.986068359375,0.2034432291984558,-12.154963493347168,2.088104248046875
1702139018156057300,3.003057373046875,-2.0825891494750977,-12.206378936767578,4.06005859375
1702139018173053700,3.0200537109375,-4.230872631072998,-12.093900680541992,4.5997314453125
1702139018190037200,3.037037353515625,-4.854908466339111,-11.243297576904297,3.6481943130493164
1702139018207031800,3.05403173828125,-3.84247088432312,-10.602195739746094,2.644413948059082
1702139018224020700,3.071020751953125,-2.2865543365478516,-10.66478157043457,2.8578357696533203
1702139018241008600,3.088008544921875,-1.7534196376800537,-11.348793029785156,3.5103883743286133
1702139018258004500,3.10500439453125,-1.461142659187317,-11.403572082519531,3.028134346008301
1702139018274993400,3.121993408203125,-1.0812561511993408,-11.120596885681152,1.928389549255371
1702139018291984600,3.138984619140625,-0.7139095067977905,-10.807462692260742,1.2065401077270508
1702139018308975600,3.1559755859375,-0.6951394081115723,-10.604744911193848,0.9754810333251953
1702139018325965300,3.17296533203125,-1.1499115228652954,-10.696490287780762,0.9744539260864258
1702139018342957000,3.18995703125,-1.1134588718414307,-10.59964370727539,0.810542106628418
1702139018359946500,3.206946533203125,-0.4431106448173523,-10.229596138000488,0.6090822219848633
1702139018376938200,3.223938232421875,0.24463897943496704,-9.814051628112793,0.4665794372558594
1702139018393928000,3.240927978515625,0.06551647186279297,-9.516470909118652,0.16891098022460938
1702139018410907400,3.257907470703125,-0.4325824975967407,-9.329179763793945,-0.391876220703125
1702139018427898600,3.274898681640625,-0.901404619216919,-8.983098983764648,-1.0689468383789062
1702139018444902400,3.29190234375,-1.1901270151138306,-8.583870887756348,-1.403594970703125
1702139018461890300,3.308890380859375,-1.777402400970459,-8.1210355758667,-1.742602825164795
1702139018478871800,3.325871826171875,-1.9497703313827515,-7.636744499206543,-1.8620052337646484
1702139018495871500,3.34287158203125,-1.7673274278640747,-7.168425559997559,-1.7710156440734863
1702139018512863500,3.359863525390625,-1.4055618047714233,-6.712526798248291,-1.6234073638916016
1702139018529852700,3.376852783203125,-1.234764814376831,-6.420436859130859,-1.6108388900756836
1702139018546844400,3.393844482421875,-1.548188328742981,-6.158314228057861,-1.5100297927856445
1702139018563833900,3.410833740234375,-2.0727500915527344,-5.821163654327393,-1.936974048614502
1702139018580822800,3.42782275390625,-2.466336250305176,-5.4714226722717285,-2.4704689979553223
1702139018597811700,3.444811767578125,-2.4970297813415527,-4.969132423400879,-2.589109420776367
1702139018614804500,3.461804443359375,-2.2927653789520264,-4.464357852935791,-2.0005297660827637
1702139018631799300,3.47879931640625,-2.0743355751037598,-3.9047393798828125,-1.3371658325195312
1702139018648788200,3.495788330078125,-1.9888046979904175,-3.434034585952759,-1.2023630142211914
1702139018665778000,3.51277783203125,-1.7202202081680298,-3.0750069618225098,-1.530991554260254
1702139018682769700,3.529769775390625,-1.3298630714416504,-2.671128273010254,-2.179556369781494
1702139018699748400,3.546748291015625,-1.0688395500183105,-2.367806911468506,-2.6907095909118652
1702139018716750800,3.563750732421875,-0.9265133142471313,-1.9696283340454102,-2.734579563140869
1702139018733731800,3.58073193359375,-1.0246095657348633,-1.484570026397705,-2.1872963905334473
1702139018750724900,3.597724853515625,-1.2753148078918457,-1.1795108318328857,-1.4393229484558105
1702139018767714800,3.61471484375,-1.26353120803833,-0.774590015411377,-1.0628547668457031
1702139018784703200,3.631703125,-1.0575083494186401,-0.38399553298950195,-0.9881305694580078
1702139018801695700,3.64869580078125,-1.0316680669784546,0.05735135078430176,-1.0138940811157227
1702139018818691000,3.665691162109375,-1.392011284828186,0.15420961380004883,-0.7701101303100586
1702139018835677200,3.68267724609375,-1.2146989107131958,0.17528963088989258,-0.40413665771484375
1702139018852674300,3.69967431640625,-0.700268030166626,0.19841837882995605,-0.035470008850097656
1702139018869654800,3.71665478515625,-0.7111469507217407,0.4250471591949463,0.5637750625610352
1702139018886650400,3.733650390625,-1.5054636001586914,0.659700870513916,1.2252569198608398
1702139018903647200,3.750647216796875,-1.9711146354675293,0.8902385234832764,1.1398611068725586
1702139018920638200,3.76763818359375,-1.9170483350753784,0.28243446350097656,1.0121746063232422
1702139018937628000,3.7846279296875,-1.3159193992614746,0.5025861263275146,0.19119739532470703
1702139018954617600,3.80161767578125,-0.8216531276702881,1.0696802139282227,-0.09512042999267578
1702139018971611600,3.818611572265625,-1.2301887273788452,1.4197912216186523,0.8688592910766602
1702139018988586200,3.835586181640625,-1.7947487831115723,1.6214916706085205,2.4467954635620117
1702139019005590500,3.852590576171875,-1.5225714445114136,0.6665105819702148,3.6974477767944336
1702139019022582500,3.86958251953125,-0.8569744825363159,0.5470991134643555,2.7160730361938477
1702139019039561200,3.886561279296875,-1.1868582963943481,0.4472689628601074,1.7749814987182617
1702139019056561000,3.903560791015625,-2.1306962966918945,0.4804706573486328,1.3601207733154297
1702139019073556000,3.920555908203125,-3.365962505340576,0.16103315353393555,2.206357955932617
1702139019090545000,3.937544921875,-3.926579475402832,-0.21125221252441406,3.550198554992676
1702139019107534600,3.95453466796875,-3.345417022705078,0.22630071640014648,3.6780128479003906
1702139019124526300,3.9715263671875,-2.507953643798828,0.5708260536193848,3.0774831771850586
1702139019141515800,3.988515869140625,-1.8631494045257568,0.6324305534362793,2.1182937622070312
1702139019158505000,4.0055048828125,-1.5802890062332153,0.6755733489990234,1.3997020721435547
1702139019175494100,4.022494140625,-1.69504976272583,0.8583264350891113,1.1989898681640625
1702139019192490000,4.039489990234375,-2.095231533050537,1.2592086791992188,2.003119468688965
1702139019209479400,4.0564794921875,-2.898737907409668,1.5002820491790771,2.998476028442383
1702139019226462200,4.073462158203125,-3.0300564765930176,1.700516700744629,2.7874107360839844
1702139019243459600,4.09045947265625,-2.397613525390625,1.803377389907837,1.839920997619629
1702139019260451600,4.10745166015625,-1.7850937843322754,1.6180799007415771,1.087855339050293
1702139019277438500,4.1244384765625,-1.5351157188415527,1.2175776958465576,0.7521438598632812
1702139019294436000,4.14143603515625,-1.8174316883087158,0.7871913909912109,1.1373157501220703
1702139019311411000,4.158410888671875,-2.2342782020568848,0.6031169891357422,2.07509708404541
1702139019328413700,4.17541357421875,-2.548110246658325,0.37305355072021484,2.4926681518554688
1702139019345403400,4.1924033203125,-2.8039374351501465,0.3397636413574219,2.3559045791625977
1702139019362395100,4.20939501953125,-3.0908408164978027,0.3837110996246338,2.0834035873413086
1702139019379384600,4.226384521484375,-2.990851879119873,0.6294786930084229,1.799738883972168
1702139019396376000,4.2433759765625,-2.7564549446105957,0.7741339206695557,1.8512306213378906
1702139019413357800,4.26035791015625,-2.2548491954803467,0.5670273303985596,2.262289047241211
1702139019430357800,4.277357666015625,-1.5116515159606934,0.4358818531036377,2.52626895904541
1702139019447347500,4.294347412109375,-0.8089820146560669,0.4157111644744873,2.5151538848876953
1702139019464338700,4.311338623046875,-0.5282202363014221,0.7153480052947998,2.339634895324707
1702139019481328400,4.328328369140625,-0.7909069061279297,0.8630497455596924,1.931107521057129
1702139019498320100,4.345320068359375,-1.2268643379211426,0.6907191276550293,1.3710346221923828
1702139019515311400,4.362311279296875,-1.1989160776138306,0.282789945602417,1.1772994995117188
1702139019532306400,4.379306396484375,-0.5190978050231934,0.08325004577636719,0.9867982864379883
1702139019549291300,4.396291259765625,0.1920475959777832,-0.17792010307312012,1.1450424194335938
1702139019566282800,4.41328271484375,0.5871086120605469,-0.3741300106048584,1.329061508178711
1702139019583274200,4.430274169921875,0.21999907493591309,-0.5767722129821777,1.0221519470214844
1702139019600255500,4.44725537109375,-0.03593099117279053,-0.9162495136260986,0.23517608642578125
1702139019617247200,4.464247314453125,0.147635817527771,-1.269779086112976,-0.11850643157958984
1702139019634244000,4.481244140625,-0.6921324133872986,-1.5253223180770874,-0.06047630310058594
1702139019651233800,4.49823388671875,-1.7364193201065063,-2.034837245941162,-0.08015251159667969
1702139019668215800,4.5152158203125,-2.3703134059906006,-2.2946205139160156,-0.6960859298706055
1702139019685218800,4.53221875,-2.4411795139312744,-2.38039493560791,-1.3598899841308594
1702139019702196000,4.549196044921875,-1.9062161445617676,-2.6324148178100586,-1.6527962684631348
1702139019719187200,4.566187255859375,-1.3802363872528076,-3.128063440322876,-1.7937827110290527
1702139019736178000,4.583177978515625,-1.5344820022583008,-3.566527843475342,-1.6435637474060059
1702139019753171700,4.600171630859375,-2.1985316276550293,-3.951714277267456,-1.6544933319091797
1702139019770163200,4.6171630859375,-2.6928014755249023,-4.122467041015625,-1.8528475761413574
1702139019787152600,4.634152587890625,-2.1768686771392822,-4.076480865478516,-2.116507053375244
1702139019804144600,4.65114453125,-1.0461976528167725,-4.227633953094482,-1.8917860984802246
1702139019821132500,4.668132568359375,0.12902557849884033,-4.548898696899414,-1.2768774032592773
1702139019838128600,4.685128662109375,0.0240170955657959,-4.798191547393799,-0.3424263000488281
1702139019855112400,4.702112548828125,-2.120931386947632,-4.467917442321777,-0.4656381607055664
1702139019872104200,4.719104248046875,-3.350961208343506,-5.081233978271484,-1.5193138122558594
1702139019889096700,4.7360966796875,-3.0889034271240234,-5.171648979187012,-3.3005547523498535
1702139019906087400,4.75308740234375,-1.452820897102356,-5.2341814041137695,-3.6158370971679688
1702139019923075800,4.770075927734375,-0.2465139627456665,-5.891613960266113,-3.103362560272217
1702139019940069000,4.787069091796875,0.8808091878890991,-6.420570373535156,-2.121440887451172
1702139019957066200,4.804066162109375,0.11483621597290039,-7.408952713012695,-0.5645656585693359
1702139019974057700,4.8210576171875,-1.5203115940093994,-8.601268768310547,0.7163372039794922
1702139019991047400,4.83804736328125,-2.5719246864318848,-9.480881690979004,0.7968406677246094
1702139020008039200,4.8550390625,-3.466376543045044,-10.308846473693848,0.2760896682739258
1702139020025029000,4.872029052734375,-4.000332355499268,-10.127728462219238,0.09321784973144531
1702139020042017500,4.889017578125,-4.168748378753662,-9.775002479553223,0.8291091918945312
1702139020059009300,4.90600927734375,-3.857879638671875,-8.914217948913574,0.3610067367553711
1702139020076002800,4.9230029296875,-2.934469699859619,-8.842219352722168,0.49703121185302734
1702139020092988700,4.93998876953125,-1.3865467309951782,-9.371175765991211,1.5251598358154297
1702139020109978000,4.95697802734375,-1.4606921672821045,-9.8197021484375,2.351133346557617
1702139020126962200,4.973962158203125,0.5386747717857361,-9.592198371887207,1.115250587463379
1702139020143964700,4.990964599609375,2.2148468494415283,-9.612174034118652,-0.28209590911865234
1702139020160953900,5.007953857421875,2.0774176120758057,-10.209205627441406,-0.21831989288330078
1702139020177943300,5.024943359375,0.21214163303375244,-11.062302589416504,0.040993690490722656
1702139020194937900,5.041937744140625,-1.2520499229431152,-11.24527359008789,-0.11120414733886719
1702139020211927000,5.058927001953125,-1.194136381149292,-9.89112663269043,0.1459341049194336
1702139020228916500,5.07591650390625,-2.038912296295166,-9.06520938873291,2.814558982849121
1702139020245908000,5.092907958984375,-3.4731972217559814,-9.342501640319824,6.251399993896484
1702139020262898000,5.10989794921875,-3.169696092605591,-9.748669624328613,6.107748031616211
1702139020279879400,5.12687939453125,-1.2462108135223389,-9.656761169433594,3.996034622192383
1702139020296879400,5.14387939453125,-0.353629469871521,-9.516279220581055,2.0649642944335938
1702139020313870800,5.160870849609375,-2.1605758666992188,-9.60262393951416,1.2365074157714844
1702139020330860800,5.17786083984375,-3.8075273036956787,-9.839226722717285,0.7667436599731445
1702139020347851800,5.194851806640625,-3.8554632663726807,-9.405789375305176,0.019001007080078125
1702139020364841500,5.211841552734375,-3.210217237472534,-9.313553810119629,0.06771183013916016
1702139020381833500,5.22883349609375,-2.883108139038086,-8.89404582977295,-0.2530384063720703
1702139020398812700,5.245812744140625,-3.2944154739379883,-8.935710906982422,-0.45057106018066406
1702139020415814700,5.262814697265625,-3.7084803581237793,-8.514747619628906,-0.8068208694458008
1702139020432804000,5.27980419921875,-3.671225070953369,-8.09292984008789,-0.9824552536010742
1702139020449795600,5.296795654296875,-3.6009023189544678,-7.902466773986816,-0.7361640930175781
1702139020466785500,5.31378564453125,-4.320209980010986,-7.836589813232422,-0.6598997116088867
1702139020483770400,5.330770263671875,-4.462092399597168,-7.733464241027832,-1.141026496887207
1702139020500766700,5.3477666015625,-3.5260543823242188,-7.292380332946777,-2.0299601554870605
1702139020517755600,5.364755615234375,-2.4474141597747803,-6.940310478210449,-2.025322914123535
1702139020534748000,5.381747802734375,-2.77714467048645,-6.751805782318115,-2.0954575538635254
1702139020551740000,5.398739990234375,-3.161679267883301,-6.544381141662598,-2.106640338897705
1702139020568718800,5.41571875,-3.2566299438476562,-6.181666374206543,-2.31257963180542
1702139020585721000,5.43272119140625,-2.4005706310272217,-5.573792934417725,-2.276909828186035
1702139020602710800,5.449710693359375,-1.7696348428726196,-4.986577987670898,-2.066136360168457
1702139020619691800,5.46669189453125,-1.3629323244094849,-4.646531581878662,-1.9510035514831543
1702139020636691700,5.483691650390625,-1.1167161464691162,-4.403601169586182,-2.2693886756896973
1702139020653683700,5.50068359375,-1.5670382976531982,-3.953514814376831,-2.3858675956726074
1702139020670673700,5.517673583984375,-1.6615450382232666,-3.339265823364258,-1.9009156227111816
1702139020687661800,5.534661865234375,-2.119296073913574,-2.6992266178131104,-0.9391794204711914
1702139020704656600,5.55165673828125,-1.883089303970337,-2.650460958480835,-0.06136798858642578
1702139020721646000,5.56864599609375,-0.7625872492790222,-2.7165632247924805,-0.02560901641845703
1702139020738623200,5.585623291015625,0.45900285243988037,-2.479435443878174,-0.4517688751220703
1702139020755627300,5.602627197265625,0.698551595211029,-1.8049904108047485,-1.1089582443237305
1702139020772616700,5.61961669921875,0.13748955726623535,-1.659287929534912,-1.4699020385742188
1702139020789598200,5.63659814453125,-0.2970384359359741,-1.6667799949645996,-1.3712100982666016
1702139020806598400,5.653598388671875,-0.5273536443710327,-1.4774131774902344,-0.9277095794677734
1702139020823590100,5.670590087890625,-0.3336763381958008,-0.9678122997283936,-0.6941614151000977
1702139020840579600,5.68757958984375,-0.2844584584236145,-0.39137864112854004,-0.6639070510864258
1702139020857555000,5.704554931640625,0.38894668221473694,-0.11076235771179199,-0.6162424087524414
1702139020874558000,5.721557861328125,1.3064496517181396,-0.47695326805114746,-0.3501310348510742
1702139020891552500,5.738552490234375,1.964094877243042,-0.6984241008758545,-0.6978855133056641
1702139020908544800,5.755544677734375,2.1041500568389893,-0.19868230819702148,-1.0597972869873047
1702139020925533700,5.77253369140625,1.8105956315994263,0.45949769020080566,-0.8753876686096191
1702139020942513400,5.789513427734375,1.6759545803070068,0.9851474761962891,-0.029496192932128906
1702139020959515100,5.80651513671875,1.5275543928146362,0.5262503623962402,1.3470048904418945
1702139020976495600,5.82349560546875,1.6761069297790527,0.6422371864318848,0.9229660034179688
1702139020993499000,5.840498779296875,1.6071460247039795,0.771181583404541,0.3922996520996094
1702139021010485800,5.85748583984375,1.619800090789795,0.8020401000976562,0.5136346817016602
1702139021027477500,5.8744775390625,1.5342016220092773,1.0806770324707031,1.5577220916748047
1702139021044467200,5.89146728515625,0.6579706072807312,0.3216533660888672,3.896035671234131
1702139021061459000,5.908458984375,0.3798932433128357,-0.09438896179199219,4.18988037109375
1702139021078448600,5.92544873046875,-0.21233046054840088,0.42937374114990234,3.0689592361450195
1702139021095437800,5.942437744140625,-0.5778456926345825,0.9757509231567383,2.378561019897461
1702139021112432400,5.959432373046875,-1.6318466663360596,1.027275562286377,3.416090488433838
1702139021129421300,5.97642138671875,-3.452007293701172,-0.27509498596191406,5.368087291717529
1702139021146411000,5.993410888671875,-4.747734546661377,-0.15499114990234375,5.099562168121338
1702139021163402800,6.01040283203125,-4.59049129486084,-0.20872116088867188,3.916661262512207
1702139021180390000,6.027389892578125,-1.325329065322876,0.2669377326965332,3.380898952484131
1702139021197386800,6.04438671875,1.5706682205200195,2.211076259613037,3.3518409729003906
1702139021214374000,6.061373779296875,1.5466234683990479,2.629192352294922,4.344146251678467
1702139021231355000,6.07835498046875,-0.7990661263465881,2.7397289276123047,3.940826416015625
1702139021248354800,6.095354736328125,-2.939545154571533,2.8466076850891113,2.487881660461426
1702139021265346600,6.1123466796875,-3.886793613433838,2.001870632171631,1.994119644165039
1702139021282336300,6.129336181640625,-3.3338589668273926,1.7814583778381348,1.977524757385254
1702139021299328000,6.146327880859375,-2.416870355606079,1.6285343170166016,2.375199794769287
1702139021316317400,6.1633173828125,-1.600797414779663,1.3899726867675781,3.0462141036987305
1702139021333309000,6.180308837890625,-0.7617796063423157,1.5436391830444336,2.9771695137023926
1702139021350299000,6.197298828125,-0.45815134048461914,1.37410306930542,2.9714789390563965
1702139021367290600,6.21429052734375,-0.7765955924987793,1.267042636871338,2.9804134368896484
1702139021384280000,6.231280029296875,-1.3067638874053955,1.395322322845459,2.9078526496887207
1702139021401271800,6.248271728515625,-1.7163143157958984,1.5886969566345215,2.908085823059082
1702139021418261200,6.26526123046875,-1.8555796146392822,1.779686450958252,2.983903408050537
1702139021435248400,6.282248291015625,-1.3565889596939087,1.7391209602355957,3.056591033935547
1702139021452247300,6.299247314453125,-0.777623176574707,1.5451679229736328,2.790473461151123
1702139021469234400,6.316234375,-0.4795033037662506,1.3076348304748535,2.404506206512451
1702139021486224000,6.333223876953125,-0.011275172233581543,1.2631292343139648,2.0904603004455566
1702139021503215900,6.3502158203125,-0.011523813009262085,0.9883041381835938,1.8735575675964355
1702139021520205000,6.367205078125,0.386303186416626,0.7893204689025879,1.4864425659179688
1702139021537196800,6.38419677734375,0.8337764739990234,0.6735777854919434,1.0951976776123047
1702139021554177800,6.401177734375,1.2989832162857056,0.5843381881713867,0.7785158157348633
1702139021571177200,6.41817724609375,1.3840229511260986,0.46790361404418945,0.6746563911437988
1702139021588168400,6.43516845703125,0.95231032371521,0.3649559020996094,0.7951054573059082
1702139021605146000,6.45214599609375,0.24638503789901733,0.16780996322631836,0.6773290634155273
1702139021622141200,6.46914111328125,-0.054410189390182495,0.14583349227905273,-0.1762251853942871
1702139021639130000,6.486130126953125,0.2003535032272339,0.2217540740966797,-0.8459625244140625
1702139021656130300,6.50313037109375,0.8052523136138916,0.45559167861938477,-0.8735146522521973
1702139021673121800,6.520121826171875,0.9664047956466675,0.5693511962890625,-0.44007301330566406
1702139021690111500,6.537111572265625,0.7409666776657104,0.30028486251831055,0.11755752563476562
1702139021707103000,6.55410302734375,0.3442612290382385,-0.15343141555786133,0.12089824676513672
1702139021724091000,6.5710908203125,0.057021260261535645,-0.5091395378112793,-0.29450225830078125
1702139021741086700,6.588086669921875,-0.5444291830062866,-0.7623767852783203,-0.7891721725463867
1702139021758074400,6.605074462890625,-0.9716595411300659,-1.0587201118469238,-1.152409553527832
1702139021775063600,6.6220634765625,-0.5663053393363953,-1.4433162212371826,-1.3117365837097168
1702139021792047000,6.639047119140625,0.3052006959915161,-1.7758162021636963,-0.9962129592895508
1702139021809046800,6.656046875,0.2828902006149292,-2.3070998191833496,-0.39847278594970703
1702139021826036700,6.67303662109375,-0.6437047719955444,-3.009385585784912,-0.3513202667236328
1702139021843026000,6.69002587890625,-1.5989772081375122,-3.48537278175354,-1.2079391479492188
1702139021860020700,6.707020751953125,-2.241288900375366,-3.8154525756835938,-2.5271692276000977
1702139021877009200,6.724009033203125,-2.2981836795806885,-4.249554634094238,-3.6162075996398926
1702139021893999600,6.74099951171875,-1.6567249298095703,-4.502176284790039,-4.270658493041992
1702139021910991000,6.7579912109375,-1.1194568872451782,-4.37517786026001,-4.729619979858398
1702139021927980500,6.77498046875,-0.8710903525352478,-4.515193939208984,-4.714987754821777
1702139021944972300,6.79197216796875,-0.5036386847496033,-4.823236465454102,-4.500663757324219
1702139021961962000,6.8089619140625,0.13802683353424072,-5.553226470947266,-4.181107521057129
1702139021978942700,6.825942626953125,0.20605260133743286,-6.500742435455322,-3.397658348083496
1702139021995943200,6.842943115234375,-0.301312655210495,-6.9868268966674805,-3.1084179878234863
1702139022012935000,6.859934814453125,-1.0458301305770874,-7.2951154708862305,-2.199032783508301
1702139022029924600,6.876924560546875,-1.1616103649139404,-7.4449968338012695,-1.256927490234375
1702139022046915800,6.893915771484375,-0.6053885221481323,-7.559001445770264,0.15280818939208984
1702139022063905800,6.91090576171875,-0.5519522428512573,-8.252657890319824,1.515573501586914
1702139022080897500,6.9278974609375,-0.5484251379966736,-8.352926254272461,1.4999885559082031
1702139022097884000,6.9448837890625,-0.8112333416938782,-8.284900665283203,0.5033626556396484
1702139022114878500,6.96187841796875,-1.1986188888549805,-8.694910049438477,-0.7964162826538086
1702139022131868400,6.978868408203125,-1.2211893796920776,-8.436395645141602,-2.0116429328918457
1702139022148860000,6.99585986328125,-0.8031332492828369,-8.264484405517578,-1.3947858810424805
1702139022165840100,7.012840087890625,-1.4712706804275513,-8.434175491333008,0.6485013961791992
1702139022182841000,7.029841064453125,-2.847748279571533,-8.733211517333984,2.89373779296875
1702139022199830800,7.046830810546875,-2.913839101791382,-8.220621109008789,1.0866289138793945
1702139022216810000,7.06381005859375,-2.3101961612701416,-7.895892143249512,-2.1541690826416016
1702139022233809200,7.08080908203125,-0.9498151540756226,-8.049766540527344,-3.9804954528808594
1702139022250794500,7.09779443359375,-0.5026321411132812,-9.226160049438477,-0.5301599502563477
1702139022267783400,7.114783447265625,-2.266854763031006,-9.5576171875,4.02657413482666
1702139022284777000,7.13177685546875,-3.2475459575653076,-7.730259418487549,3.220517158508301
1702139022301770200,7.148770263671875,-2.9134085178375244,-7.0704545974731445,1.8401012420654297
1702139022318752800,7.165752685546875,-1.793082356452942,-7.6219482421875,0.9723377227783203
1702139022335759400,7.18275927734375,-0.9495120048522949,-8.657877922058105,0.4125099182128906
1702139022352747500,7.19974755859375,0.09256097674369812,-9.122795104980469,-0.41809558868408203
1702139022369737200,7.2167373046875,0.4115097224712372,-9.526394844055176,-0.24178314208984375
1702139022386729200,7.233729248046875,0.588447630405426,-9.401226997375488,-0.25887489318847656
1702139022403718700,7.25071875,0.09681504964828491,-8.814469337463379,0.37466907501220703
1702139022420710100,7.267710205078125,-1.5354912281036377,-8.356948852539062,1.0449705123901367
1702139022437699600,7.284699462890625,-2.6606128215789795,-8.166460990905762,0.34754180908203125
1702139022454685400,7.301685546875,-2.6114697456359863,-8.401772499084473,-0.8138322830200195
1702139022471684400,7.318684326171875,-1.2148768901824951,-8.125361442565918,-1.6886024475097656
1702139022488669700,7.335669677734375,-1.0439428091049194,-7.914938926696777,-1.586843490600586
1702139022505662200,7.352662109375,-1.6707842350006104,-7.7273454666137695,-1.4594316482543945
1702139022522643700,7.369643798828125,-1.7003147602081299,-7.538963794708252,-1.8261733055114746
1702139022539637500,7.386637451171875,-1.234188199043274,-7.36900520324707,-2.3403091430664062
1702139022556634400,7.40363427734375,-0.25885188579559326,-7.041803359985352,-2.478869915008545
1702139022573625600,7.42062548828125,0.22003531455993652,-6.349738597869873,-2.273576259613037
1702139022590616800,7.437616943359375,-0.1679232120513916,-5.581533908843994,-2.075500965118408
1702139022607606500,7.4546064453125,-0.945495069026947,-5.02728271484375,-1.851090908050537
1702139022624598000,7.471597900390625,-1.3979371786117554,-4.421197891235352,-2.0790963172912598
1702139022641587500,7.48858740234375,-1.50697660446167,-3.7963991165161133,-3.0169363021850586
1702139022658579200,7.5055791015625,-0.7855137586593628,-3.1533496379852295,-3.756570339202881
1702139022675569000,7.52256884765625,0.6197147369384766,-2.862842559814453,-2.609736919403076
1702139022692560400,7.539560302734375,0.3030223846435547,-1.7776366472244263,-0.485321044921875
1702139022709549800,7.5565498046875,-0.5753222703933716,-1.465028166770935,0.7271766662597656
1702139022726541600,7.57354150390625,-1.3060119152069092,-1.2995423078536987,0.19782161712646484
1702139022743531500,7.590531494140625,-1.7778937816619873,-1.2988673448562622,-1.5218520164489746
1702139022760523000,7.60752294921875,-1.635772466659546,-1.5589165687561035,-2.7662534713745117
1702139022777512700,7.6245126953125,-0.3308439254760742,-1.7064557075500488,-3.528651714324951
1702139022794503400,7.64150341796875,0.9047720432281494,-1.5187385082244873,-3.1817378997802734
1702139022811495200,7.6584951171875,0.3813350200653076,-0.8404521942138672,-2.0518059730529785
1702139022828485400,7.6754853515625,-0.45359158515930176,-0.5415325164794922,-1.219956398010254
1702139022845476600,7.6924765625,-1.2910635471343994,-0.2946176528930664,-1.2168989181518555
1702139022862455000,7.709455078125,-1.572337031364441,-0.16632318496704102,-1.629593849182129
1702139022879456500,7.72645654296875,-1.064292550086975,-0.14053821563720703,-2.248593807220459
1702139022896448300,7.7434482421875,0.3192451596260071,-0.02794337272644043,-2.6443629264831543
1702139022913436000,7.760435791015625,1.2775967121124268,0.12891912460327148,-2.4995250701904297
1702139022930431200,7.77743115234375,1.891897439956665,0.40233445167541504,-1.8705363273620605
1702139022947419100,7.794419189453125,1.9501193761825562,0.8349635601043701,-0.9976315498352051
1702139022964410600,7.81141064453125,2.0065486431121826,1.460205316543579,-1.1384797096252441
1702139022981397500,7.8283974609375,2.5650906562805176,1.5485944747924805,-1.505600929260254
1702139022998395000,7.845394775390625,2.9799134731292725,1.8021023273468018,-1.4836726188659668
1702139023015371800,7.862371826171875,2.6765012741088867,1.9490234851837158,-0.7062549591064453
1702139023032376800,7.879376953125,1.4807796478271484,1.5230045318603516,0.7257766723632812
1702139023049363000,7.896363037109375,0.8055065870285034,1.8683171272277832,1.1552705764770508
1702139023066354700,7.913354736328125,1.2662187814712524,1.7586915493011475,1.3275566101074219
1702139023083328500,7.93032861328125,1.9028613567352295,1.5901291370391846,1.0105209350585938
1702139023100333300,7.947333251953125,1.9045844078063965,1.6445114612579346,0.831700325012207
1702139023117328000,7.964327880859375,0.9983275532722473,1.5771818161010742,1.461644172668457
1702139023134304500,7.981304443359375,0.11747580766677856,1.094221591949463,2.1242666244506836
1702139023151307000,7.99830712890625,0.40977802872657776,0.05073213577270508,2.6570281982421875
1702139023168286200,8.0152861328125,1.0446653366088867,-0.02444314956665039,2.742068290710449
1702139023185280800,8.03228076171875,0.9617050886154175,0.14097166061401367,3.17775821685791
1702139023202269000,8.04926904296875,-0.15560674667358398,0.31823301315307617,4.162631034851074
1702139023219259000,8.0662587890625,-1.342418909072876,0.35672998428344727,4.964457035064697
1702139023236251400,8.08325146484375,-1.8335697650909424,-0.10675954818725586,5.214389801025391
1702139023253243400,8.100243408203125,-0.9588811993598938,0.03785133361816406,4.798869609832764
1702139023270238200,8.11723828125,-0.3906710743904114,0.32050228118896484,4.159978866577148
1702139023287232300,8.134232177734376,-0.11632382869720459,0.42641448974609375,3.6239829063415527
1702139023304219600,8.1512197265625,0.04222273826599121,0.646245002746582,2.923856258392334
1702139023321205500,8.16820556640625,0.1799491047859192,0.6930913925170898,2.548448085784912
1702139023338199800,8.18519970703125,0.3871852159500122,0.7812671661376953,2.4442052841186523
1702139023355189500,8.202189453125,0.005989491939544678,0.6783714294433594,2.8057703971862793
1702139023372176400,8.21917626953125,-0.47770246863365173,0.7458844184875488,3.191913604736328
1702139023389172700,8.2361728515625,-1.1267374753952026,0.8678059577941895,3.176609516143799
1702139023406168000,8.25316796875,-1.688938856124878,0.9213356971740723,2.897113800048828
1702139023423152400,8.27015234375,-2.118637800216675,0.7301540374755859,2.9267234802246094
1702139023440140300,8.287140380859375,-2.320439338684082,0.4620375633239746,3.1012682914733887
1702139023457128700,8.304128662109376,-2.2093403339385986,0.39119815826416016,3.450653553009033
1702139023474119700,8.32111962890625,-1.7739235162734985,0.5304512977600098,3.600985527038574
1702139023491112000,8.33811181640625,-1.2148300409317017,0.6077365875244141,3.5552639961242676
1702139023508112100,8.355112060546874,-0.6332337856292725,0.5836763381958008,3.1546478271484375
1702139023525101000,8.37210107421875,-0.13328509032726288,0.5833139419555664,2.62113094329834
1702139023542092500,8.389092529296875,0.2517453730106354,0.7966532707214355,2.331116199493408
1702139023559082200,8.406082275390625,0.4487367868423462,1.0642571449279785,2.5910239219665527
1702139023576074000,8.423073974609375,0.2868407666683197,1.1971421241760254,2.886007308959961
1702139023593061000,8.44006103515625,0.03046785667538643,1.1801815032958984,2.7791833877563477
1702139023610057000,8.457056884765626,-0.0444241538643837,1.0656318664550781,1.7980804443359375
1702139023627044900,8.474044921875,0.4177815318107605,1.0699539184570312,0.8482036590576172
1702139023644036000,8.4910361328125,1.0677145719528198,1.1180720329284668,0.5204010009765625
1702139023661026000,8.508026123046875,1.4160207509994507,1.0765466690063477,0.6972446441650391
1702139023678017500,8.525017578125,1.0393731594085693,0.9208478927612305,1.1872739791870117
1702139023695007700,8.5420078125,0.4747907519340515,0.8935093879699707,0.8220081329345703
1702139023711998500,8.55899853515625,-0.022860348224639893,0.8647446632385254,-0.07518672943115234
1702139023728988400,8.575988525390626,-0.4344274699687958,0.6420555114746094,-0.8435707092285156
1702139023745980200,8.592980224609375,-0.647190511226654,0.3829374313354492,-1.240349292755127
1702139023762969900,8.609969970703125,-0.6876242756843567,0.7621231079101562,-1.4380669593811035
1702139023779961300,8.62696142578125,-0.8602576851844788,1.1598763465881348,-1.1621756553649902
1702139023796949000,8.643948974609375,-1.150644063949585,1.4115545749664307,-1.0515336990356445
1702139023813945300,8.6609453125,-1.098908543586731,1.3840694427490234,-1.326749324798584
1702139023830932000,8.677931884765625,-0.8208436965942383,1.47768235206604,-1.73201322555542
1702139023847923000,8.6949228515625,-0.3593359589576721,1.3540663719177246,-1.9241013526916504
1702139023864915200,8.711915283203124,0.09360933303833008,1.1291570663452148,-2.199268341064453
1702139023881905400,8.728905517578125,0.03444778919219971,0.5265762805938721,-2.0209083557128906
1702139023898907100,8.7459072265625,0.020258545875549316,0.19711518287658691,-2.102433204650879
1702139023915886800,8.762886962890626,0.032268643379211426,0.048705101013183594,-2.085300922393799
1702139023932876000,8.7798759765625,-0.5043368935585022,0.0254514217376709,-2.292600631713867
1702139023949868000,8.796867919921874,-0.6720150113105774,-0.22226595878601074,-3.250040054321289
1702139023966857700,8.813857666015625,-0.6592358946800232,-0.6760842800140381,-4.023204326629639
1702139023983849000,8.830848876953125,-0.0746159553527832,-0.9767894744873047,-4.413451671600342
1702139024000828400,8.847828369140625,0.28972673416137695,-1.4708213806152344,-3.830630302429199
1702139024017831200,8.8648310546875,-0.16896259784698486,-1.7728546857833862,-2.73468017578125
1702139024034820000,8.881820068359374,-1.0359835624694824,-2.1587891578674316,-2.081826686859131
1702139024051811800,8.898811767578126,-1.3601620197296143,-2.6223793029785156,-2.293799877166748
1702139024068801500,8.915801513671875,-0.8824208974838257,-2.852982759475708,-2.667567253112793
1702139024085793000,8.93279296875,-0.35297560691833496,-3.3251538276672363,-2.442452907562256
1702139024102782700,8.94978271484375,-0.49887263774871826,-4.163069248199463,-1.487309455871582
1702139024119764000,8.966763916015625,-0.9934646487236023,-4.3423991203308105,-0.7585296630859375
1702139024136764200,8.98376416015625,-1.2975378036499023,-4.32073450088501,-0.3696460723876953
1702139024153758200,9.00075830078125,-1.3181666135787964,-4.566049098968506,-0.7720298767089844
1702139024170746600,9.01774658203125,-0.5609944462776184,-5.506037712097168,-1.2296695709228516
1702139024187737000,9.034737060546876,0.09396600723266602,-6.513540744781494,-1.4162721633911133
1702139024204726300,9.051726318359375,0.1160740852355957,-6.872880935668945,-1.025857925415039
1702139024221707800,9.068707763671876,-0.6343967318534851,-6.821037769317627,0.20415019989013672
1702139024238697500,9.085697509765625,-2.0647964477539062,-7.421779155731201,1.0084314346313477
1702139024255699200,9.10269921875,-2.559999942779541,-7.838184356689453,0.16411209106445312
1702139024272689000,9.11968896484375,-2.0004639625549316,-7.469579696655273,-1.3992128372192383
1702139024289681000,9.136680908203125,-1.3605477809906006,-6.9452009201049805,-1.8576068878173828
1702139024306670000,9.153670166015624,-0.8620655536651611,-6.824394702911377,-0.9437284469604492
1702139024323662300,9.170662353515626,-1.7771492004394531,-7.544888973236084,1.982666015625
1702139024340651500,9.187651611328125,-2.8821861743927,-7.712679862976074,3.1608591079711914
1702139024357643300,9.204643310546874,-3.516404628753662,-6.727481365203857,2.3316001892089844
1702139024374630100,9.221630126953125,-4.945932388305664,-5.851020336151123,1.7375879287719727
1702139024391627000,9.238626953125,-4.594324588775635,-6.090888023376465,1.349747657775879
1702139024408614100,9.2556142578125,-2.051779270172119,-6.119201183319092,0.7852783203125
1702139024425606100,9.272606201171875,1.0630003213882446,-7.477633476257324,2.084906578063965
1702139024442596900,9.289596923828125,2.221695899963379,-7.918245315551758,3.311840057373047
1702139024459571700,9.30657177734375,2.136185884475708,-8.467866897583008,3.540477752685547
1702139024476566300,9.323566162109374,-0.3050670623779297,-7.3821516036987305,2.146097183227539
1702139024493568500,9.340568603515624,-3.173240900039673,-6.886118412017822,1.2205266952514648
1702139024510558000,9.357557861328125,-4.354890823364258,-6.996643543243408,1.2486839294433594
1702139024527549700,9.3745498046875,-3.8612875938415527,-7.2929606437683105,1.5830278396606445
1702139024544539400,9.391539306640626,-1.6780316829681396,-7.513952732086182,2.4806251525878906
1702139024561531000,9.40853076171875,-0.17378807067871094,-7.40532112121582,3.099973678588867
1702139024578510000,9.425510009765626,0.1448047161102295,-7.346225738525391,2.920029640197754
1702139024595509500,9.442509521484375,-0.20146316289901733,-7.0595526695251465,1.386087417602539
1702139024612504600,9.459504638671875,-0.7713749408721924,-6.623714923858643,-0.24169540405273438
1702139024629493800,9.47649365234375,-1.0704143047332764,-6.196900844573975,-0.8758325576782227
1702139024646483000,9.49348291015625,-1.250619649887085,-6.095941543579102,-0.6862926483154297
1702139024663475000,9.510474853515625,-1.1647710800170898,-6.119040489196777,0.011521339416503906
1702139024680464400,9.52746435546875,-0.8071966171264648,-6.038447856903076,0.17090225219726562
1702139024697455900,9.544455810546875,0.03172469139099121,-5.728637218475342,-0.12106609344482422
1702139024714443000,9.561443115234376,0.15675967931747437,-5.352840900421143,-0.4331655502319336
1702139024731439000,9.578439208984374,-0.19774258136749268,-5.149567604064941,-0.6322641372680664
1702139024748428300,9.59542822265625,-0.9877039790153503,-5.09100866317749,-1.125025749206543
1702139024765418500,9.61241845703125,-1.397935390472412,-5.126009941101074,-1.6529550552368164
1702139024782397000,9.62939697265625,-1.2293133735656738,-5.122383117675781,-1.8960537910461426
1702139024799388000,9.646387939453126,-0.5562794208526611,-4.869675159454346,-2.0389604568481445
1702139024816392400,9.663392333984374,0.021414995193481445,-4.578468322753906,-1.9599456787109375
1702139024833381400,9.68038134765625,0.13752853870391846,-4.182023048400879,-1.911417007446289
1702139024850370800,9.697370849609374,0.08825135231018066,-3.854020595550537,-1.9747519493103027
1702139024867362600,9.714362548828126,0.059679388999938965,-3.388118028640747,-2.261805534362793
1702139024884352300,9.731352294921875,0.33388251066207886,-2.950831174850464,-2.5391650199890137
1702139024901343700,9.74834375,0.7276198863983154,-2.374478816986084,-2.7050743103027344
1702139024918333200,9.765333251953125,0.9492208957672119,-1.7832896709442139,-2.709582805633545
1702139024935321300,9.7823212890625,0.6236346364021301,-1.2965658903121948,-2.3529105186462402
1702139024952314600,9.799314697265626,0.05742421746253967,-0.9090849161148071,-2.1169185638427734
1702139024969306400,9.816306396484375,0.027667850255966187,-0.5585812330245972,-2.4166340827941895
1702139024986296000,9.833296142578124,0.5767897367477417,-0.442490816116333,-2.7365241050720215
1702139025003287600,9.85028759765625,1.3616052865982056,-0.16102886199951172,-2.6933836936950684
1702139025020277200,9.86727734375,1.553604245185852,0.15394043922424316,-2.166543483734131
1702139025037268700,9.884268798828124,1.2044380903244019,0.44033169746398926,-1.6495981216430664
1702139025054255900,9.901255859375,0.9544239640235901,0.543062686920166,-1.4480185508728027
1702139025071252500,9.91825244140625,1.0669761896133423,0.7449595928192139,-1.6203627586364746
1702139025088239900,9.935239990234376,1.3969790935516357,1.0488300323486328,-1.78778076171875
1702139025105231400,9.9522314453125,1.372070550918579,1.1906309127807617,-1.6280312538146973
1702139025122221000,9.969220947265624,1.5708814859390259,1.4874293804168701,-1.3027215003967285
1702139025139212800,9.986212890625,1.5259132385253906,1.7545968294143677,-0.8840789794921875
1702139025156200000,10.003199951171876,1.8731505870819092,1.8370577096939087,-0.7275638580322266
1702139025173201000,10.020200927734376,2.588545799255371,1.683281421661377,-0.8074302673339844
1702139025190180600,10.0371806640625,3.1242003440856934,1.775179147720337,-0.9193706512451172
1702139025207175400,10.054175537109375,3.0234451293945312,1.887488842010498,-0.4688282012939453
1702139025224165000,10.0711650390625,2.4171738624572754,1.9772188663482666,-0.013438224792480469
1702139025241156600,10.088156494140625,2.2071473598480225,2.002370595932007,0.3832368850708008
1702139025258146300,10.105146240234374,2.1520731449127197,1.8616886138916016,0.7440080642700195
1702139025275138600,10.122138671875,2.553208351135254,1.7588109970092773,1.1372661590576172
1702139025292126500,10.13912646484375,2.105269193649292,1.364664077758789,2.2479686737060547
1702139025309119000,10.156118896484376,1.092017412185669,0.8758611679077148,3.4235000610351562
1702139025326108700,10.173108642578125,0.4667275547981262,1.1159591674804688,3.444803237915039
1702139025343100700,10.1901005859375,0.17509400844573975,1.3566038608551025,3.514556884765625
1702139025360089900,10.20708984375,-0.42993342876434326,0.9669928550720215,4.053043365478516
1702139025377081600,10.22408154296875,-0.8380361795425415,0.12948989868164062,4.574728488922119
1702139025394071600,10.241071533203124,-0.6320042610168457,0.0416259765625,4.504120826721191
1702139025411063000,10.25806298828125,-0.47321975231170654,0.07740640640258789,4.788017749786377
1702139025428052700,10.275052734375,0.21255052089691162,0.3909482955932617,4.660788536071777
1702139025445044000,10.2920439453125,0.6349567174911499,0.7275104522705078,4.480216979980469
1702139025462034000,10.309033935546875,1.2160468101501465,0.8638544082641602,4.437077045440674
1702139025479022300,10.326022216796876,1.4522464275360107,1.100999355316162,4.447248935699463
1702139025496004400,10.34300439453125,1.5681171417236328,1.4093260765075684,4.774703502655029
1702139025513008000,10.360008056640625,1.093834638595581,1.7167792320251465,4.709229946136475
1702139025529995300,10.376995361328126,1.2769206762313843,2.2125191688537598,4.62841272354126
1702139025546988000,10.393988037109375,2.0691452026367188,3.0069169998168945,4.502216815948486
1702139025563977500,10.4109775390625,2.79880428314209,3.3973374366760254,4.943795204162598
1702139025580962800,10.427962890625,2.2253923416137695,2.9989821910858154,5.360693454742432
1702139025597959200,10.444959228515625,0.895348310470581,2.516434907913208,4.873739242553711
1702139025614950700,10.46195068359375,-0.6148045063018799,1.8433313369750977,4.005187034606934
1702139025631940000,10.478940185546875,-1.4922945499420166,1.1133780479431152,3.2843151092529297
1702139025648929000,10.495928955078124,-1.3004494905471802,0.9533290863037109,2.9683914184570312
1702139025665921300,10.51292138671875,-0.6332156658172607,0.8941287994384766,3.0949530601501465
1702139025682913000,10.5299130859375,-0.22667908668518066,0.9548063278198242,3.2133264541625977
1702139025699902700,10.54690283203125,-0.3231546878814697,1.0695171356201172,2.721827507019043
1702139025716883000,10.563883056640625,-0.3384940028190613,1.3079795837402344,1.9130330085754395
1702139025733874700,10.580874755859375,-0.07674962282180786,1.495142936706543,1.4783830642700195
1702139025750864600,10.59786474609375,0.2967694401741028,1.6877775192260742,1.462723731994629
1702139025767857000,10.61485693359375,0.7570198774337769,1.7116646766662598,1.500596046447754
1702139025784854800,10.631854736328124,1.0954971313476562,1.614769697189331,1.3526763916015625
1702139025801844700,10.6488447265625,1.461510419845581,1.5632522106170654,0.9137935638427734
1702139025818829600,10.66582958984375,1.6621496677398682,1.5104210376739502,0.4418487548828125
1702139025835825200,10.6828251953125,1.6148030757904053,1.5284972190856934,0.17771434783935547
1702139025852822300,10.699822265625,1.423454761505127,1.4169108867645264,0.015411376953125
1702139025869809200,10.71680908203125,1.273821473121643,1.222489595413208,-0.34546947479248047
1702139025886801000,10.73380078125,1.0767407417297363,1.0277762413024902,-0.7015542984008789
1702139025903790600,10.75079052734375,1.0606164932250977,0.9811017513275146,-1.272507667541504
1702139025920782000,10.767781982421875,1.2823536396026611,0.8868594169616699,-1.7352972030639648
1702139025937771500,10.784771484375,1.4741077423095703,0.61920166015625,-1.901472568511963
1702139025954761000,10.801760986328125,1.2691214084625244,0.04729032516479492,-1.7041692733764648
1702139025971762200,10.81876220703125,0.9143471717834473,-0.46303510665893555,-1.4790372848510742
1702139025988735200,10.8357353515625,0.4382677674293518,-0.6499090194702148,-1.6319208145141602
1702139026005734700,10.852734619140625,0.3072977662086487,-0.5599620342254639,-2.0080575942993164
1702139026022726000,10.869725830078124,0.049891769886016846,-0.48625850677490234,-2.155879020690918
1702139026039705000,10.886705078125,-0.08820599317550659,-0.6021339893341064,-1.9985556602478027
1702139026056707300,10.903707275390625,-0.5835319757461548,-0.6876204013824463,-1.8002533912658691
1702139026073696800,10.92069677734375,-0.9274023175239563,-0.6024951934814453,-1.6786837577819824
1702139026090688300,10.937688232421875,-1.241923213005066,-0.490828275680542,-1.4894886016845703
1702139026107678200,10.95467822265625,-1.2600672245025635,-0.8402523994445801,-1.2391986846923828
1702139026124670000,10.971669921875,-0.8239490985870361,-1.2980024814605713,-1.4069995880126953
1702139026141659400,10.988659423828125,-0.4388042688369751,-1.8093512058258057,-2.0429229736328125
1702139026158651000,11.00565087890625,-0.07452893257141113,-2.059030055999756,-2.5929641723632812
1702139026175640600,11.022640625,-0.3504931926727295,-2.2362585067749023,-3.115307331085205
1702139026192631300,11.03963134765625,-1.1579121351242065,-2.276115894317627,-3.575927257537842
1702139026209622800,11.056622802734376,-1.7302608489990234,-2.7122116088867188,-3.765702247619629
1702139026226613800,11.07361376953125,-1.423696517944336,-2.9033238887786865,-3.9658403396606445
1702139026243600400,11.090600341796875,-0.41534698009490967,-2.8764350414276123,-3.4554333686828613
1702139026260595200,11.10759521484375,0.21964001655578613,-2.8144352436065674,-2.460526466369629
1702139026277586700,11.124586669921875,-0.06843072175979614,-3.4195163249969482,-1.2252616882324219
1702139026294573600,11.141573486328125,-0.7071973085403442,-4.4296746253967285,-0.940185546875
1702139026311568400,11.158568359375,-0.5532971620559692,-4.555717468261719,-1.7960405349731445
1702139026328557300,11.175557373046875,-0.3821234405040741,-4.443943977355957,-1.2742366790771484
1702139026345546800,11.192546630859376,-1.7863843441009521,-4.996279239654541,0.8222789764404297
1702139026362539000,11.2095390625,-3.0343408584594727,-6.143178462982178,1.9782915115356445
1702139026379518700,11.226518798828126,-2.973827838897705,-6.60495138168335,0.6721916198730469
1702139026396519700,11.243519775390626,-2.611259937286377,-6.336346626281738,-1.129476547241211
1702139026413510000,11.260510009765625,-2.3949737548828125,-6.4700703620910645,-1.8336591720581055
1702139026430499800,11.277499755859376,-1.7310901880264282,-7.464922904968262,-1.0021657943725586
1702139026447492600,11.29449267578125,-1.0985186100006104,-8.526239395141602,1.1151866912841797
1702139026464482600,11.311482666015625,-1.097860336303711,-8.152861595153809,2.744746208190918
1702139026481461500,11.32846142578125,-1.2384650707244873,-7.283265590667725,2.572053909301758
1702139026498455300,11.345455322265625,-1.050872564315796,-6.307812690734863,1.1173601150512695
1702139026515451000,11.362450927734375,-0.8464166522026062,-5.861922740936279,0.12089920043945312
1702139026532447700,11.37944775390625,-1.1680856943130493,-6.578823089599609,0.7008495330810547
1702139026549434400,11.396434326171875,-1.3912204504013062,-6.841346740722656,1.1801767349243164
1702139026566426600,11.413426513671874,-1.0317509174346924,-6.938086032867432,2.263838768005371
1702139026583416000,11.430416015625,-0.3554922938346863,-6.437007904052734,2.9133148193359375
1702139026600407800,11.44740771484375,-0.5302391052246094,-6.343087196350098,2.8237314224243164
1702139026617397000,11.46439697265625,-1.809356689453125,-6.037773132324219,2.084139823913574
1702139026634385700,11.4813857421875,-3.3927860260009766,-5.83375883102417,2.035252571105957
1702139026651382000,11.498382080078125,-4.433674335479736,-5.906454563140869,3.1093626022338867
1702139026668370400,11.515370361328126,-5.165600776672363,-6.247862815856934,3.9551639556884766
1702139026685350000,11.532349853515624,-4.348249912261963,-6.596494674682617,3.0830202102661133
1702139026702342100,11.549342041015626,-2.911245822906494,-6.635257720947266,1.3264894485473633
1702139026719330600,11.56633056640625,-1.280745506286621,-6.374658107757568,-0.008226394653320312
1702139026736322000,11.583322021484374,-0.47212913632392883,-6.1121368408203125,-0.27524852752685547
1702139026753314800,11.600314697265626,-0.9152216911315918,-6.0363922119140625,0.15570545196533203
1702139026770306800,11.617306884765625,-1.5843865871429443,-5.94899845123291,0.3236274719238281
1702139026787293000,11.63429296875,-1.6878106594085693,-5.753439426422119,-0.2795295715332031
1702139026804287200,11.651287353515626,-1.193302869796753,-5.569448947906494,-0.7164468765258789
1702139026821276700,11.668276611328125,-0.3138219714164734,-5.130397796630859,-0.6648693084716797
1702139026838258700,11.6852587890625,-0.2360152006149292,-4.403916358947754,-0.24855709075927734
1702139026855262200,11.70226220703125,-1.2619388103485107,-3.6446962356567383,-0.24795246124267578
1702139026872247800,11.719247802734374,-2.5506949424743652,-3.262147903442383,-0.47172069549560547
1702139026889243100,11.7362431640625,-2.9956507682800293,-2.846555709838867,-1.2533321380615234
1702139026906236400,11.753236328125,-2.34344220161438,-2.525533676147461,-1.9808721542358398
1702139026923219500,11.770219482421876,-0.7180806398391724,-2.0661017894744873,-2.2369675636291504
1702139026940222700,11.78722265625,0.408966600894928,-1.7869946956634521,-1.9174723625183105
1702139026957209000,11.804208984375,0.46094799041748047,-1.6197521686553955,-1.149129867553711
1702139026974202600,11.82120263671875,-0.017688900232315063,-1.4208767414093018,-0.6656150817871094
1702139026991191000,11.83819091796875,-0.2603050172328949,-0.95809006690979,-0.9080448150634766
1702139027008182800,11.855182861328124,0.6954091787338257,-0.3742365837097168,-1.3218412399291992
1702139027025172700,11.8721728515625,1.5264952182769775,0.645465612411499,-1.576202392578125
1702139027042164200,11.889164306640625,0.8608260154724121,1.1421468257904053,-1.1881494522094727
1702139027059154000,11.90615380859375,0.2142942249774933,0.9155914783477783,-1.205070972442627
1702139027076156000,11.923156005859376,-0.09700888395309448,0.9160099029541016,-1.7811031341552734
1702139027093132500,11.940132568359376,0.1534188985824585,0.9382243156433105,-1.9238886833190918
1702139027110129200,11.957129150390625,-0.1843409538269043,1.0954039096832275,-1.933598518371582
1702139027127119000,11.974119140625,-0.06885075569152832,0.9777157306671143,-2.13423490524292
1702139027144105200,11.991105224609376,0.34675633907318115,1.0193326473236084,-2.57080078125
1702139027161097700,12.00809765625,1.1919876337051392,1.064803123474121,-3.0395264625549316
1702139027178089500,12.02508935546875,1.988511562347412,1.312131404876709,-3.3567991256713867
1702139027195078700,12.04207861328125,2.1727054119110107,1.5874340534210205,-3.2361230850219727
1702139027212070700,12.059070556640625,1.6091862916946411,1.725579023361206,-2.5246829986572266
1702139027229059600,12.0760595703125,0.6996476650238037,1.6508522033691406,-1.8215718269348145
1702139027246051300,12.09305126953125,0.7727989554405212,1.2554295063018799,-1.5960383415222168
1702139027263042800,12.110042724609375,1.9914684295654297,1.0567235946655273,-1.5703206062316895
1702139027280033000,12.127032958984374,2.9823861122131348,1.2811737060546875,-1.4350013732910156
1702139027297023000,12.14402294921875,2.626209259033203,1.254190444946289,-0.11023235321044922
1702139027314014500,12.161014404296875,1.0702922344207764,0.847808837890625,1.03369140625
1702139027331011300,12.17801123046875,0.1988917589187622,0.9827523231506348,0.7206783294677734
1702139027347999000,12.1949990234375,0.8817771673202515,1.2502226829528809,0.28786468505859375
1702139027364985000,12.211985107421874,1.873337745666504,1.526343584060669,1.065351963043213
1702139027381976800,12.228976806640626,1.6715867519378662,1.3197550773620605,2.720447063446045
1702139027398964000,12.2459638671875,1.2694979906082153,1.3503446578979492,3.1418843269348145
1702139027415958300,12.262958251953124,1.2518764734268188,1.7013249397277832,2.8394107818603516
1702139027432948000,12.279947998046875,1.481300950050354,2.034299373626709,2.7363815307617188
1702139027449929200,12.29692919921875,1.8945486545562744,1.9690189361572266,2.9946465492248535
1702139027466929200,12.31392919921875,1.8158621788024902,1.6718864440917969,3.6069231033325195
1702139027483920600,12.330920654296875,1.1485809087753296,1.4135169982910156,4.5518479347229
1702139027500910300,12.347910400390624,0.22765016555786133,1.3279733657836914,4.406866550445557
1702139027517902300,12.36490234375,-0.12398910522460938,1.1074285507202148,3.865915298461914
1702139027534891800,12.381891845703125,0.018323659896850586,0.5946841239929199,3.779723644256592
1702139027551883300,12.39888330078125,0.14909005165100098,-0.10486936569213867,4.300244331359863
1702139027568873000,12.415873046875,-0.12418913841247559,-0.17409610748291016,4.6646575927734375
1702139027585864700,12.43286474609375,-1.1875264644622803,0.24318361282348633,5.099884510040283
1702139027602854400,12.4498544921875,-2.5540616512298584,0.5248236656188965,5.046058654785156
1702139027619846000,12.466845947265625,-2.1446597576141357,0.5948257446289062,4.219810962677002
1702139027636835300,12.48383544921875,-0.6336784362792969,0.6376562118530273,3.5996041297912598
1702139027653827000,12.5008271484375,0.9469538927078247,0.39536142349243164,3.3850207328796387
1702139027670816300,12.517816162109375,2.2157647609710693,0.2840304374694824,3.374063014984131
1702139027687808500,12.53480859375,2.525843620300293,0.5342321395874023,3.347433567047119
1702139027704797700,12.551797607421875,2.110701560974121,0.8991265296936035,3.1129050254821777
1702139027721789700,12.568789794921875,1.144887924194336,1.138038158416748,2.777207374572754
1702139027738768600,12.5857685546875,0.6112385988235474,1.4674534797668457,2.424931526184082
1702139027755771100,12.602771240234375,0.23698341846466064,1.7506394386291504,2.475489616394043
1702139027772760300,12.61976025390625,-0.04450416564941406,1.781179428100586,2.673774242401123
1702139027789761300,12.63676123046875,-0.24055218696594238,1.699556827545166,2.5693435668945312
1702139027806741800,12.65374169921875,-0.04134511947631836,1.6397318840026855,2.3544821739196777
1702139027823733500,12.6707333984375,0.3147472143173218,1.6334929466247559,2.3087615966796875
1702139027840723200,12.68772314453125,0.6298478841781616,1.5581507682800293,2.597909450531006
1702139027857714700,12.704714599609375,0.8512957692146301,1.641282558441162,2.7256431579589844
1702139027874704400,12.721704345703126,0.9291635155677795,1.831047534942627,2.3631820678710938
1702139027891696000,12.738696044921875,0.7655496597290039,1.9491255283355713,1.8371496200561523
1702139027908685600,12.755685546875,0.5672883987426758,2.1317555904388428,1.2621426582336426
1702139027925665500,12.77266552734375,0.3861280679702759,2.1950795650482178,0.8662033081054688
1702139027942667000,12.7896669921875,0.5701758861541748,2.168644666671753,0.8158278465270996
1702139027959645200,12.806645263671875,0.7969590425491333,2.1789722442626953,1.3692140579223633
1702139027976639500,12.823639404296875,0.9430039525032043,2.2216129302978516,1.667454719543457
1702139027993642800,12.840642822265625,1.030788779258728,2.1781046390533447,1.183579444885254
1702139028010629400,12.85762939453125,1.131851315498352,2.0836052894592285,0.3804769515991211
1702139028027620900,12.874620849609375,1.3568613529205322,2.0445241928100586,-0.2135324478149414
1702139028044608000,12.89160791015625,1.2838023900985718,1.8137035369873047,-0.12291240692138672
1702139028061590000,12.908590087890625,0.27932441234588623,1.6836588382720947,0.3743438720703125
1702139028078590200,12.925590087890624,-0.3969118595123291,1.2772982120513916,0.4617757797241211
1702139028095583700,12.942583740234374,0.11124283075332642,1.091413974761963,-0.2751283645629883
1702139028112571000,12.95957080078125,1.33040452003479,0.9707703590393066,-1.2557315826416016
1702139028129567500,12.9765673828125,2.0091376304626465,0.6875758171081543,-1.5178589820861816
1702139028146554400,12.993554443359375,1.7114192247390747,0.5030708312988281,-1.0379610061645508
1702139028163546400,13.01054638671875,0.9930627346038818,0.14632964134216309,-0.7254323959350586
1702139028180535800,13.027535888671874,0.6189185380935669,-0.24721074104309082,-1.1080398559570312
1702139028197527800,13.04452783203125,1.0457212924957275,-0.5134842395782471,-1.440225601196289
1702139028214514200,13.06151416015625,1.547010898590088,-0.8308911323547363,-1.2365837097167969
1702139028231511300,13.07851123046875,1.848026990890503,-1.3903260231018066,-1.0142269134521484
1702139028248498200,13.095498291015625,1.2731528282165527,-2.0309557914733887,-1.1955900192260742
1702139028265490200,13.112490234375,0.545559287071228,-2.404881000518799,-1.6808967590332031
1702139028282479900,13.12947998046875,-0.07006371021270752,-2.60227370262146,-2.312343120574951
1702139028299471400,13.146471435546875,-0.32202762365341187,-2.4934492111206055,-2.8572840690612793
1702139028316461000,13.1634609375,0.05351829528808594,-2.4020931720733643,-2.6055984497070312
1702139028333452500,13.18045263671875,0.1378873586654663,-2.7243261337280273,-1.9308114051818848
1702139028350442000,13.19744189453125,0.8509883880615234,-3.3483269214630127,-1.2376508712768555
1702139028367434200,13.214434326171874,-0.14008353650569916,-3.7930054664611816,-1.3558025360107422
1702139028384420900,13.2314208984375,0.40264207124710083,-3.912201404571533,-1.728719711303711
1702139028401417700,13.248417724609375,0.33168038725852966,-4.011435031890869,-1.6769180297851562
1702139028418404900,13.26540478515625,0.02094847708940506,-4.581717491149902,-1.2359733581542969
1702139028435395000,13.28239501953125,-0.7597973346710205,-5.49169921875,-0.9885902404785156
1702139028452367000,13.2993671875,-0.935717761516571,-5.89124059677124,-1.599287986755371
1702139028469380000,13.316380126953124,-0.753073513507843,-5.78460693359375,-1.9957709312438965
1702139028486367200,13.3333671875,-1.1373398303985596,-5.896144390106201,-1.0781869888305664
1702139028503359200,13.350359130859376,-2.0010039806365967,-6.3632683753967285,0.07467460632324219
1702139028520348700,13.3673486328125,-2.504239082336426,-6.74668025970459,0.5595483779907227
1702139028537340000,13.38433984375,-2.694856643676758,-6.831763744354248,0.45916271209716797
1702139028554329600,13.40132958984375,-2.614525318145752,-6.785717487335205,-0.3755044937133789
1702139028571321600,13.418321533203125,-2.4669337272644043,-6.564336776733398,-1.4494600296020508
1702139028588310800,13.435310791015626,-2.27661395072937,-6.481107711791992,-0.02923870086669922
1702139028605303000,13.452302978515625,-1.3337210416793823,-6.143547534942627,1.9511919021606445
1702139028622290000,13.4692900390625,-0.5705354809761047,-5.659643173217773,2.4507102966308594
1702139028639286300,13.486286376953124,-0.8039907217025757,-6.394148349761963,0.8117246627807617
1702139028656273700,13.503273681640625,-0.07674676179885864,-6.504452228546143,-1.5911979675292969
1702139028673265400,13.520265380859374,1.927976131439209,-7.140483379364014,-0.7602214813232422
1702139028690254800,13.5372548828125,1.689941167831421,-7.543619155883789,5.47855281829834
1702139028707246800,13.554246826171875,-0.7946312427520752,-7.023815155029297,7.310007095336914
1702139028724236000,13.571236083984376,-3.0069186687469482,-5.841298580169678,4.143738746643066
1702139028741227800,13.588227783203125,-4.119225978851318,-5.6181135177612305,2.2406558990478516
1702139028758206000,13.6052060546875,-2.939743757247925,-6.1256279945373535,1.6856842041015625
1702139028775209000,13.622208984375,-0.772524356842041,-6.715211868286133,2.0645151138305664
1702139028792198700,13.63919873046875,0.09042170643806458,-6.437683582305908,2.2767763137817383
1702139028809180700,13.6561806640625,-0.28777480125427246,-5.983911991119385,2.293850898742676
1702139028826169300,13.67316943359375,-0.8385956287384033,-5.716265678405762,2.1499147415161133
1702139028843171800,13.690171875,-0.9219866991043091,-5.7367730140686035,1.7374744415283203
1702139028860161300,13.707161376953126,-0.20572802424430847,-5.4612555503845215,1.1175928115844727
1702139028877153000,13.724153076171875,-0.7604822516441345,-5.919853687286377,1.2909669876098633
1702139028894142500,13.741142578125,-1.349846601486206,-6.691352844238281,-0.044467926025390625
1702139028911134200,13.75813427734375,-0.8127769827842712,-6.163403034210205,-2.764540195465088
1702139028928123600,13.77512353515625,0.2576662600040436,-5.465553283691406,-4.211457252502441
1702139028945115100,13.792115234375,0.8725165128707886,-4.849416732788086,-3.159707546234131
1702139028962105000,13.80910498046875,-0.11368914693593979,-4.381821632385254,-1.7321290969848633
1702139028979096600,13.8260966796875,-0.7026623487472534,-4.418354034423828,-1.3126325607299805
1702139028996083000,13.8430830078125,-0.9074068069458008,-3.8537116050720215,-2.118196487426758
1702139029013081600,13.86008154296875,-0.11240272969007492,-3.2123916149139404,-2.842402935028076
1702139029030067700,13.877067626953124,0.533580482006073,-2.7278523445129395,-2.8338661193847656
1702139029047059200,13.89405908203125,0.5781271457672119,-2.3711276054382324,-2.586155891418457
1702139029064048600,13.911048583984375,-0.1918746829032898,-2.074732780456543,-1.7532706260681152
1702139029081040400,13.928040283203124,-0.9030460119247437,-1.8020323514938354,-1.3203754425048828
1702139029098030000,13.945030029296875,-1.2973600625991821,-1.410265564918518,-1.879195213317871
1702139029115022000,13.96202197265625,-0.9959571361541748,-0.790645956993103,-2.5727133750915527
1702139029132011500,13.979011474609376,-0.9618164300918579,-0.507644772529602,-2.937338352203369
1702139029148999000,13.9959990234375,-0.6820801496505737,-0.46067047119140625,-2.9261045455932617
1702139029165997000,14.0129970703125,-0.44944390654563904,-0.4824509620666504,-1.985952377319336
1702139029182984400,14.029984375,-0.4834444522857666,-0.09485936164855957,-0.9440841674804688
1702139029199967700,14.0469677734375,-0.2684447169303894,0.31881237030029297,-0.7970333099365234
1702139029216957400,14.06395751953125,0.2683703899383545,0.5362060070037842,-1.357222557067871
1702139029233950700,14.08095068359375,1.2052363157272339,0.6693906784057617,-1.6893372535705566
1702139029250942500,14.0979423828125,2.505265712738037,0.8705713748931885,-1.2494449615478516
1702139029267925200,14.11492529296875,2.011568546295166,1.056783676147461,0.7008953094482422
1702139029284927700,14.131927734375,-0.3983262777328491,1.1423823833465576,1.6114006042480469
1702139029301910300,14.14891015625,-1.1456438302993774,0.9660220146179199,0.36914634704589844
1702139029318896400,14.165896484375,-1.1857744455337524,1.1089229583740234,-1.3735599517822266
1702139029335890000,14.182889892578125,-0.18612980842590332,0.9384534358978271,-1.5580458641052246
1702139029352889300,14.199889404296876,1.419103741645813,0.602363109588623,-0.8934564590454102
1702139029369872400,14.216872314453125,2.5363197326660156,0.3384532928466797,0.2880287170410156
1702139029386874400,14.233874267578125,3.33351993560791,0.5199713706970215,0.9796028137207031
1702139029403861000,14.250861083984375,3.7369742393493652,0.7171854972839355,0.49921321868896484
1702139029420853500,14.267853515625,3.4390006065368652,0.8782205581665039,-0.553349494934082
1702139029437842700,14.2848427734375,2.894164562225342,0.8976125717163086,-1.582350254058838
1702139029454837500,14.30183740234375,2.6150686740875244,0.3468966484069824,-1.5637640953063965
1702139029471820800,14.31882080078125,2.439793348312378,0.11853885650634766,-0.1320514678955078
1702139029488815600,14.335815673828124,2.5916614532470703,0.2800407409667969,1.952888011932373
1702139029505805600,14.3528056640625,2.906512498855591,0.28781843185424805,3.0738773345947266
1702139029522797000,14.369797119140625,3.592527151107788,0.473172664642334,2.3553900718688965
1702139029539776500,14.386776611328125,4.6050238609313965,0.37366294860839844,1.8266935348510742
1702139029556778500,14.403778564453125,4.825283527374268,0.41445350646972656,1.7721495628356934
1702139029573767700,14.420767578125,4.337400436401367,0.20668792724609375,2.3889307975769043
1702139029590759400,14.437759521484375,3.369144916534424,0.45706653594970703,3.3151063919067383
1702139029607733500,14.4547333984375,2.400876045227051,0.8799624443054199,4.36970329284668
1702139029624740900,14.471740966796874,1.7248119115829468,1.296957015991211,4.886988639831543
1702139029641729500,14.4887294921875,1.1510045528411865,0.9440822601318359,5.4954047203063965
1702139029658727700,14.505727783203126,1.1070153713226318,0.9080734252929688,5.39128303527832
1702139029675719700,14.5227197265625,0.9301190376281738,1.269683837890625,4.953983783721924
1702139029692703500,14.539703369140625,0.5382058620452881,1.6762080192565918,4.517903804779053
1702139029709690000,14.556690185546875,0.6678204536437988,1.8715124130249023,4.407125473022461
1702139029726687000,14.57368701171875,1.544808030128479,2.593075752258301,3.5731825828552246
1702139029743674400,14.59067431640625,2.391234874725342,2.8565685749053955,3.2623229026794434
1702139029760665900,14.607665771484376,2.152000665664673,2.6199018955230713,3.623814582824707
1702139029777659000,14.624658935546876,0.6992301940917969,2.4850854873657227,4.104763984680176
1702139029794643200,14.641643310546876,-1.0301990509033203,2.755859613418579,4.219195365905762
1702139029811637200,14.65863720703125,-1.9558019638061523,2.720442771911621,3.938788890838623
1702139029828628500,14.67562841796875,-2.012178897857666,2.3241658210754395,3.440990924835205
1702139029845628400,14.69262841796875,-1.2783586978912354,1.6193861961364746,3.0378494262695312
1702139029862609400,14.709609375,0.2530362606048584,1.3465824127197266,2.7435121536254883
1702139029879585800,14.726585693359375,1.2900810241699219,1.2697358131408691,3.0845775604248047
1702139029896594200,14.74359423828125,1.3847789764404297,1.1240334510803223,3.811394214630127
1702139029913580500,14.76058056640625,1.0548962354660034,1.075209617614746,3.6882123947143555
1702139029930572300,14.777572265625,0.5597776174545288,1.3416738510131836,2.7782235145568848
1702139029947561700,14.794561767578125,0.5635644197463989,1.4851188659667969,2.3864407539367676
1702139029964553200,14.81155322265625,0.8946969509124756,1.5580229759216309,2.6200952529907227
1702139029981543000,14.82854296875,1.1573103666305542,1.6153945922851562,3.2069573402404785
1702139029998526700,14.845526611328125,0.7501052618026733,1.5736846923828125,3.464812755584717
1702139030015521800,14.862521728515626,0.142059326171875,1.6784663200378418,3.1226086616516113
1702139030032519000,14.879518798828125,0.2860441207885742,1.846282720565796,2.271763801574707
1702139030049505500,14.896505615234375,0.6869544982910156,1.7988495826721191,1.6380033493041992
1702139030066494700,14.91349462890625,1.3142743110656738,1.792090654373169,1.4042210578918457
1702139030083489300,14.9304892578125,1.6497398614883423,1.7147610187530518,1.368523120880127
1702139030100487000,14.94748681640625,1.6777838468551636,1.7116200923919678,1.5959692001342773
1702139030117468000,14.964468017578126,1.4818884134292603,1.7124884128570557,1.6318683624267578
1702139030134459000,14.981458984375,1.3008983135223389,1.7133216857910156,1.221384048461914
1702139030151450000,14.9984501953125,1.5485087633132935,1.6934659481048584,0.48189830780029297
1702139030168437800,15.015437744140625,2.077341079711914,1.6455655097961426,0.35075950622558594
1702139030185428200,15.03242822265625,1.985267162322998,1.5066254138946533,0.5478887557983398
1702139030202412300,15.049412353515624,1.4380146265029907,1.203382968902588,0.32832813262939453
1702139030219412000,15.066411865234375,0.9776319861412048,1.1016814708709717,-0.30966949462890625
1702139030236395300,15.083395263671875,1.234736680984497,1.1226520538330078,-0.8494887351989746
1702139030253384000,15.100384033203126,2.049889087677002,0.9425299167633057,-0.8030095100402832
1702139030270377200,15.117377197265625,2.5073447227478027,0.7652945518493652,-0.3673362731933594
1702139030287367200,15.1343671875,1.8896753787994385,0.6022672653198242,-0.14365386962890625
1702139030304357400,15.151357421875,1.3821532726287842,0.3788871765136719,-0.9554338455200195
1702139030321345500,15.168345458984374,1.341614007949829,0.3053145408630371,-1.9276189804077148
1702139030338337800,15.185337890625,1.9443504810333252,0.1946849822998047,-2.218046188354492
1702139030355335700,15.202335693359375,2.178374767303467,-0.009243488311767578,-1.7653350830078125
1702139030372319000,15.219319091796875,1.4548040628433228,-0.3416299819946289,-1.2847633361816406
1702139030389313000,15.23631298828125,1.0405852794647217,-0.6906239986419678,-1.141911506652832
1702139030406304300,15.25330419921875,1.0902104377746582,-0.7751877307891846,-1.2845268249511719
1702139030423291000,15.270290771484374,1.5424730777740479,-0.9972536563873291,-1.1907434463500977
1702139030440278000,15.287278076171875,1.4418705701828003,-1.4176621437072754,-0.6198482513427734
1702139030457278700,15.30427880859375,0.8868699073791504,-1.8779511451721191,-0.4792947769165039
1702139030474263800,15.321263916015624,0.5671538710594177,-2.318983554840088,-0.7292108535766602
1702139030491253000,15.3382529296875,0.6964776515960693,-2.6921346187591553,-1.2867908477783203
1702139030508255500,15.35525537109375,1.2645066976547241,-3.075082778930664,-1.5326642990112305
1702139030525243100,15.3722431640625,1.423628568649292,-3.431842565536499,-1.719278335571289
1702139030542235000,15.38923486328125,1.3449195623397827,-4.080714225769043,-2.2422337532043457
1702139030559224600,15.406224609375,1.369816541671753,-4.737401962280273,-2.7514400482177734
1702139030576215300,15.42321533203125,1.6209683418273926,-4.99029016494751,-3.5438122749328613
1702139030593207000,15.44020703125,1.2802543640136719,-4.865121841430664,-3.0538010597229004
1702139030610197500,15.457197509765624,-0.25789517164230347,-4.652573585510254,-1.0620622634887695
1702139030627187000,15.47418701171875,-1.8823846578598022,-4.862330913543701,0.2008352279663086
1702139030644163600,15.49116357421875,-1.8602237701416016,-4.765981674194336,-0.1403942108154297
1702139030661168400,15.50816845703125,-1.1348447799682617,-4.684237957000732,0.041726112365722656
1702139030678160100,15.52516015625,-1.6319777965545654,-5.438858985900879,0.9143171310424805
1702139030695149600,15.542149658203124,-2.599601984024048,-7.109853744506836,1.7203798294067383
1702139030712141600,15.5591416015625,-2.7484138011932373,-7.209051609039307,0.35977745056152344
1702139030729131000,15.576131103515625,-2.6121115684509277,-6.471691131591797,-1.11846923828125
1702139030746122500,15.59312255859375,-2.194472551345825,-6.300353050231934,-0.7803459167480469
1702139030763112000,15.61011181640625,-1.4272295236587524,-6.160903453826904,0.7826347351074219
1702139030780103700,15.627103759765625,-1.018521785736084,-5.828693866729736,1.5513010025024414
1702139030797090800,15.6440908203125,-0.5969552397727966,-5.967132568359375,1.699223518371582
1702139030814085000,15.661085205078125,0.09481614828109741,-6.012889862060547,0.8523283004760742
1702139030831077400,15.678077392578125,-0.1138012558221817,-6.569677829742432,1.1412487030029297
1702139030848066600,15.695066650390626,-1.1188831329345703,-6.511357307434082,2.6543331146240234
1702139030865056000,15.712055908203125,-2.0940768718719482,-6.101841449737549,3.9848251342773438
1702139030882047700,15.7290478515625,-2.5154924392700195,-6.045568466186523,4.594583511352539
1702139030899027200,15.746027099609375,-2.0001182556152344,-5.713378429412842,3.840475082397461
1702139030916026400,15.7630263671875,-0.9287693500518799,-5.54212760925293,2.896988868713379
1702139030933021200,15.780021240234374,-0.9772771000862122,-5.721356391906738,2.339999198913574
1702139030950010400,15.79701025390625,-1.1893858909606934,-6.245891094207764,1.5696678161621094
1702139030966996500,15.81399658203125,-1.305221438407898,-6.178852081298828,0.7144231796264648
1702139030983995000,15.830994873046874,-1.0531259775161743,-5.728377819061279,-0.22704029083251953
1702139031000981000,15.84798095703125,-0.9987316131591797,-5.985932350158691,0.07375431060791016
1702139031017972500,15.864972412109376,-0.9132241010665894,-5.893582344055176,0.4528169631958008
1702139031034960000,15.8819599609375,-0.7325047254562378,-5.787132263183594,0.6002016067504883
1702139031051954000,15.898953857421875,-0.733985424041748,-5.39568567276001,0.13555145263671875
1702139031068943400,15.915943359375,-0.6495463848114014,-4.809360504150391,-0.6210689544677734
1702139031085935400,15.932935302734375,-0.8119571208953857,-4.315690040588379,-1.058150291442871
1702139031102924800,15.9499248046875,-1.1868782043457031,-4.325753211975098,-0.7751398086547852
1702139031119916500,15.96691650390625,-1.5086829662322998,-4.296197414398193,-0.9659557342529297
1702139031136895500,15.9838955078125,-1.070023536682129,-4.116691589355469,-1.5728654861450195
1702139031153885700,16.0008857421875,-0.2923926115036011,-3.6474769115448,-2.1803207397460938
1702139031170878700,16.017878662109375,0.1636323630809784,-3.1102142333984375,-2.528484344482422
1702139031187881500,16.034881591796875,-0.12361457198858261,-2.669949769973755,-2.4413223266601562
1702139031204868900,16.051868896484375,-0.9698679447174072,-2.655832529067993,-2.129049777984619
1702139031221860400,16.0688603515625,-1.064984679222107,-2.657301425933838,-1.8598222732543945
1702139031238839300,16.08583935546875,-0.6704556941986084,-2.282501697540283,-2.0834498405456543
1702139031255841500,16.102841552734375,-0.32795220613479614,-1.9548358917236328,-2.38847017288208
1702139031272831000,16.1198310546875,-0.14017733931541443,-1.6780803203582764,-2.6092567443847656
1702139031289823000,16.136822998046874,-0.03483685851097107,-1.4014352560043335,-2.722594738006592
1702139031306812200,16.153812255859375,0.29716789722442627,-1.0651569366455078,-2.5669331550598145
1702139031323804200,16.17080419921875,0.6294777393341064,-0.9159917831420898,-2.0477371215820312
1702139031340793600,16.187793701171874,0.40330106019973755,-0.7844758033752441,-1.4093408584594727
1702139031357785300,16.204785400390627,0.24052229523658752,-0.45844435691833496,-1.944127082824707
1702139031374778000,16.221778076171876,0.39568448066711426,-0.38007140159606934,-2.534548282623291
1702139031391763200,16.23876318359375,0.8189334273338318,-0.3780386447906494,-2.6191959381103516
1702139031408756000,16.255755859375,1.5534698963165283,-0.20770764350891113,-2.4091644287109375
1702139031425749000,16.2727490234375,1.9956809282302856,-0.14092063903808594,-1.5709071159362793
1702139031442737400,16.2897373046875,1.6743097305297852,0.05312299728393555,-0.3362140655517578
1702139031459718700,16.30671875,1.263970136642456,0.4678208827972412,-0.16225147247314453
1702139031476716300,16.32371630859375,1.4227157831192017,0.14708423614501953,-0.4141197204589844
1702139031493713000,16.340712890625,2.1455445289611816,0.46581220626831055,-0.8684506416320801
1702139031510700000,16.357699951171874,2.509228229522705,0.7583651542663574,-0.6881036758422852
1702139031527691500,16.37469140625,2.2647271156311035,0.9659733772277832,-0.3525228500366211
1702139031544681000,16.391680908203124,1.7165395021438599,1.37855863571167,0.16125011444091797
1702139031561673000,16.4086728515625,1.2539911270141602,1.6666903495788574,0.69976806640625
1702139031578660900,16.425660888671874,1.4292454719543457,1.5705037117004395,0.6472244262695312
1702139031595654100,16.442654052734376,1.8940355777740479,1.2781414985656738,-0.07781314849853516
1702139031612643000,16.45964306640625,2.7559263706207275,0.9506704807281494,-0.5888996124267578
1702139031629636400,16.47663623046875,3.335055351257324,1.0076539516448975,-0.20184040069580078
1702139031646625000,16.493625,3.6141374111175537,1.1751720905303955,1.1369223594665527
1702139031663616800,16.51061669921875,3.4335825443267822,1.6653599739074707,2.315598964691162
1702139031680603600,16.527603759765626,3.3526201248168945,1.6070172786712646,2.9230737686157227
1702139031697600800,16.544600830078124,3.6019287109375,1.3850457668304443,2.0870213508605957
1702139031714585000,16.561585205078124,4.342918395996094,1.7140717506408691,1.0192022323608398
1702139031731582000,16.57858203125,4.412793159484863,1.8327093124389648,1.405942440032959
1702139031748568800,16.59556884765625,3.402765989303589,1.7621445655822754,4.029716491699219
1702139031765560800,16.612560791015625,2.438030481338501,0.6778950691223145,6.763794422149658
1702139031782550000,16.629550048828126,3.114960193634033,0.2331686019897461,7.150406360626221
1702139031799529700,16.64652978515625,4.330258369445801,1.1021037101745605,5.325314998626709
1702139031816532700,16.66353271484375,4.580430507659912,1.5253260135650635,4.318418979644775
1702139031833522700,16.680522705078126,3.2480361461639404,1.6371641159057617,3.8913516998291016
1702139031850512600,16.6975126953125,1.632354974746704,1.7493231296539307,3.8769521713256836
1702139031867504000,16.714504150390624,0.6312170028686523,1.5621817111968994,4.242700099945068
1702139031884493800,16.731493896484373,1.0554180145263672,1.8487718105316162,3.9238195419311523
1702139031901485600,16.748485595703126,1.9476782083511353,1.9031996726989746,3.605803966522217
1702139031918488000,16.765488037109375,2.2114875316619873,1.7854020595550537,3.424206256866455
1702139031935462400,16.78246240234375,1.9951679706573486,1.831932783126831,3.0903491973876953
1702139031952460300,16.799460205078127,1.716673731803894,2.077146291732788,3.0277609825134277
1702139031969448200,16.8164482421875,1.542014241218567,2.20143723487854,3.395094394683838
1702139031986437600,16.833437744140625,1.9395257234573364,2.405879497528076,3.642397403717041
1702139032003426300,16.85042626953125,2.0201799869537354,2.262195587158203,3.7095022201538086
1702139032020419300,16.86741943359375,1.7943143844604492,1.9701457023620605,3.7242236137390137
1702139032037413000,16.8844130859375,1.590518593788147,1.660304307937622,3.814762592315674
1702139032054397700,16.901397705078125,1.5550246238708496,1.351137638092041,4.17717981338501
1702139032071393800,16.918393798828124,1.5038487911224365,1.1193947792053223,4.590335369110107
1702139032088379000,16.93537890625,1.3991835117340088,0.9302487373352051,4.8401408195495605
1702139032105375700,16.952375732421874,1.45369553565979,0.9137415885925293,4.765130996704102
1702139032122363000,16.96936279296875,1.5205892324447632,1.0187592506408691,4.24019718170166
1702139032139343600,16.986343505859374,1.2780430316925049,1.2172250747680664,3.761813163757324
1702139032156344000,17.003343994140625,0.8430397510528564,1.3327734470367432,3.4027585983276367
1702139032173335800,17.020335693359375,0.5548800230026245,1.3653485774993896,2.791459560394287
1702139032190325000,17.037324951171875,0.8290635347366333,1.512223482131958,2.082076072692871
1702139032207317000,17.05431689453125,1.2114450931549072,1.4133474826812744,1.6783447265625
1702139032224306400,17.071306396484374,1.5733819007873535,1.2671411037445068,1.5059375762939453
1702139032241298000,17.0882978515625,1.6420408487319946,1.1559703350067139,1.4206914901733398
1702139032258287900,17.105287841796876,1.5072572231292725,1.2279412746429443,0.931849479675293
1702139032275276800,17.12227685546875,1.4232783317565918,1.3544232845306396,0.015364646911621094
1702139032292271400,17.139271240234375,1.3148912191390991,1.4458835124969482,-0.6448125839233398
1702139032309260800,17.1562607421875,1.1593745946884155,1.4442522525787354,-0.8248124122619629
1702139032326250000,17.17325,1.2966150045394897,1.4583816528320312,-0.6518783569335938
1702139032343242000,17.190241943359375,1.24640691280365,1.3589797019958496,-0.5760183334350586
1702139032360231400,17.2072314453125,1.1588436365127563,1.0262479782104492,-0.7570896148681641
1702139032377223200,17.22422314453125,1.3573472499847412,0.7671926021575928,-1.1774797439575195
1702139032394212400,17.24121240234375,1.598052740097046,0.43194103240966797,-1.4039349555969238
1702139032411204900,17.258204833984376,1.7921351194381714,0.04926109313964844,-1.4160761833190918
1702139032428193800,17.27519384765625,1.7326154708862305,-0.21918845176696777,-1.3243703842163086
1702139032445185500,17.292185546875,1.0627565383911133,-0.3241307735443115,-1.4647469520568848
1702139032462165000,17.3091650390625,0.7630332112312317,-0.47098851203918457,-1.871812343597412
1702139032479156500,17.326156494140626,1.0816371440887451,-0.7856206893920898,-1.810922622680664
1702139032496167000,17.3431669921875,1.4424521923065186,-0.9993951320648193,-1.422348976135254
1702139032513145600,17.3601455078125,0.846010148525238,-1.0298550128936768,-0.9472131729125977
1702139032530140700,17.377140625,-0.44068777561187744,-1.0607954263687134,-1.5910215377807617
1702139032547129600,17.394129638671874,-1.1625852584838867,-1.1478757858276367,-2.0901689529418945
1702139032564130800,17.411130859375,-1.1675713062286377,-1.3458786010742188,-2.1139020919799805
1702139032581110500,17.428110595703124,-0.232263445854187,-1.4919565916061401,-1.7371420860290527
1702139032598100500,17.4451005859375,1.039925456047058,-1.4731839895248413,-0.6796426773071289
1702139032615092000,17.462092041015627,1.4098408222198486,-2.010690689086914,-0.23104381561279297
1702139032632081700,17.47908154296875,1.1982113122940063,-2.4257006645202637,-0.7506542205810547
1702139032649073400,17.496073486328125,0.267110675573349,-2.8721790313720703,-1.4008655548095703
1702139032666062800,17.513062744140626,-0.48352211713790894,-3.0729477405548096,-1.968553066253662
1702139032683054600,17.5300546875,-0.8552131056785583,-3.31209659576416,-1.6487512588500977
1702139032700031500,17.547031494140626,-0.6362498998641968,-3.5508337020874023,-0.6754751205444336
1702139032717025300,17.564025390625,-0.3968455493450165,-3.8189055919647217,0.19771099090576172
1702139032734017800,17.581017822265625,0.16405966877937317,-4.200168132781982,-0.19048023223876953
1702139032751010600,17.598010498046875,0.2910267412662506,-4.003817558288574,-0.9623870849609375
1702139032768000000,17.615,-0.37623047828674316,-4.057979106903076,-1.2381114959716797
1702139032784994600,17.63199462890625,-1.249394178390503,-3.8222544193267822,-1.634037971496582
1702139032801983200,17.648983154296875,-1.8477998971939087,-3.5860626697540283,-0.14199256896972656
1702139032818982100,17.665982177734374,-2.337472677230835,-4.498805522918701,0.6228094100952148
1702139032835969300,17.68296923828125,-1.5672142505645752,-4.362929821014404,-0.37389087677001953
1702139032852961300,17.699961181640624,-0.5456141233444214,-4.9001922607421875,-1.4025201797485352
1702139032869950500,17.716950439453125,0.032590121030807495,-5.255741596221924,-1.9595770835876465
1702139032886944000,17.733944091796875,0.3092707395553589,-5.648522853851318,-1.1486663818359375
1702139032903929300,17.750929443359375,-0.3650205135345459,-5.770718574523926,0.8268165588378906
1702139032920923600,17.767923583984373,-1.569126844406128,-4.952365398406982,2.163527488708496
1702139032937913000,17.7849130859375,-2.886895179748535,-4.890435695648193,3.3977556228637695
1702139032954904300,17.801904296875,-3.484261989593506,-5.859078884124756,4.187896728515625
1702139032971894000,17.81889404296875,-2.3156931400299072,-6.517271995544434,3.5558929443359375
1702139032988886000,17.835885986328126,-0.48925769329071045,-6.619071960449219,2.0993051528930664
1702139033005875500,17.85287548828125,0.2942749559879303,-6.643523693084717,1.9426765441894531
1702139033022856400,17.8698564453125,-1.597876787185669,-6.179196357727051,3.037240982055664
1702139033039856600,17.886856689453126,-4.136507034301758,-5.500760078430176,3.5161609649658203
1702139033056848400,17.903848388671875,-5.6127777099609375,-5.517627716064453,4.239863395690918
1702139033073837800,17.920837890625,-4.9283318519592285,-5.679418087005615,4.473757743835449
1702139033090829600,17.93782958984375,-2.6427910327911377,-5.942538738250732,3.2949790954589844
1702139033107819000,17.954819091796875,-0.6430655121803284,-6.343836784362793,1.6950502395629883
1702139033124811000,17.97181103515625,0.6262714266777039,-6.3414411544799805,0.31307411193847656
1702139033141800700,17.98880078125,1.1617467403411865,-5.9520955085754395,-0.62261962890625
1702139033158781700,18.00578173828125,0.02695370279252529,-5.720739841461182,-0.7154016494750977
1702139033175781600,18.02278173828125,-1.483349084854126,-5.622387409210205,-0.018332481384277344
1702139033192773400,18.0397734375,-2.3678770065307617,-5.302825927734375,-0.047748565673828125
1702139033209762800,18.0567626953125,-2.140923023223877,-4.873386859893799,-0.4097442626953125
1702139033226754600,18.073754638671875,-1.3301889896392822,-4.439877033233643,-0.9959373474121094
1702139033243736300,18.090736328125,-1.055222511291504,-4.160801410675049,-1.276219367980957
1702139033260735700,18.10773583984375,-1.1685199737548828,-3.9602184295654297,-1.4498844146728516
1702139033277725400,18.124725341796875,-1.3963254690170288,-3.737903118133545,-1.468937873840332
1702139033294717200,18.14171728515625,-1.1045727729797363,-3.5971436500549316,-1.2023773193359375
1702139033311707000,18.158706787109374,-0.7058976888656616,-3.3180830478668213,-0.5957918167114258
1702139033328698400,18.175698486328123,0.03530913591384888,-2.9367380142211914,-0.35482215881347656
1702139033345687800,18.192687744140624,0.757250964641571,-2.420881748199463,-0.7293119430541992
1702139033362679600,18.209679443359374,0.7847797870635986,-1.9562816619873047,-1.0468196868896484
1702139033379657200,18.2266572265625,0.48414531350135803,-1.68043053150177,-1.137237548828125
1702139033396662500,18.24366259765625,0.22389554977416992,-1.429298758506775,-1.1385984420776367
1702139033413650700,18.260650634765625,0.12265264987945557,-1.2251358032226562,-1.225266456604004
1702139033430641700,18.2776416015625,0.42814648151397705,-0.9819581508636475,-1.1001176834106445
1702139033447632100,18.294632080078124,1.2783927917480469,-0.770409107208252,-0.7375593185424805
1702139033464621000,18.31162109375,2.1231155395507812,-0.40775489807128906,-0.29856395721435547
1702139033481615400,18.328615478515626,2.27354097366333,-0.014780521392822266,0.18138408660888672
1702139033498604500,18.3456044921875,1.3302607536315918,0.24959349632263184,0.42835521697998047
1702139033515594500,18.362594482421876,0.20930266380310059,0.44160938262939453,0.8066911697387695
1702139033532586000,18.3795859375,-0.4311453104019165,0.4947214126586914,0.7136878967285156
1702139033549569500,18.396569580078125,-0.2869069576263428,0.6565313339233398,0.08474254608154297
1702139033566567200,18.413567138671876,0.40493321418762207,0.831719160079956,-0.41835975646972656
1702139033583556900,18.430556884765625,1.241079568862915,1.0746283531188965,-0.4155006408691406
1702139033600548400,18.44754833984375,1.517561435699463,1.1091318130493164,0.754119873046875
1702139033617538000,18.4645380859375,1.8934670686721802,1.1074671745300293,1.686798095703125
1702139033634527200,18.48152734375,2.798527240753174,1.3742649555206299,1.1167840957641602
1702139033651522000,18.49852197265625,3.250767469406128,1.7385926246643066,0.16833114624023438
1702139033668511000,18.515510986328124,3.042661428451538,1.9281175136566162,0.00138092041015625
1702139033685500700,18.532500732421877,2.4048845767974854,1.9297921657562256,0.46454572677612305
1702139033710978300,18.557978271484377,2.313225030899048,2.3665688037872314,1.804356575012207
1702139033727970000,18.574969970703126,2.717519998550415,2.1939215660095215,1.6716294288635254
1702139033744963600,18.591963623046876,3.2282447814941406,2.086958169937134,0.7353639602661133
1702139033761947600,18.60894775390625,3.198942184448242,2.068976640701294,0.14381694793701172
1702139033778938400,18.6259384765625,2.7463631629943848,2.1867144107818604,0.45290660858154297
1702139033795928800,18.6429287109375,1.9590754508972168,2.399487018585205,1.8314008712768555
1702139033812922000,18.659922119140624,1.1736096143722534,2.3224692344665527,3.224806785583496
1702139033829914000,18.6769140625,0.9172103404998779,2.0248429775238037,3.3416295051574707
1702139033846902000,18.693902099609375,1.4184573888778687,1.6514687538146973,2.1687564849853516
1702139033863892700,18.710892822265624,2.8168420791625977,1.4854516983032227,1.0311732292175293
1702139033880882400,18.72788232421875,3.980405569076538,1.5631990432739258,1.1303625106811523
1702139033897877500,18.74487744140625,4.229369163513184,1.8033454418182373,2.4169845581054688
1702139033914863600,18.761863525390623,3.481175422668457,2.020386219024658,3.8745193481445312
1702139033931854800,18.778854736328125,2.5079002380371094,1.5749411582946777,4.538015365600586
1702139033948847900,18.795847900390626,2.048025369644165,1.3062477111816406,4.069462776184082
1702139033965848600,18.8128486328125,2.2346792221069336,1.1196050643920898,3.5389270782470703
1702139033982836700,18.829836669921875,2.1447582244873047,1.148240566253662,3.30709171295166
1702139033999827500,18.846827392578124,1.5998317003250122,1.0317015647888184,3.5881834030151367
1702139034016817400,18.8638173828125,1.0426950454711914,0.6640353202819824,4.155284881591797
1702139034033808400,18.880808349609374,0.2736992835998535,0.5929751396179199,4.5779500007629395
1702139034050798000,18.897798095703124,0.08999752998352051,0.9954953193664551,4.131850242614746
1702139034067791000,18.914791015625,0.6222705841064453,1.3951187133789062,3.488281726837158
1702139034084780000,18.931780029296874,1.1790517568588257,1.4833736419677734,3.2038450241088867
1702139034101771000,18.94877099609375,1.4734865427017212,1.471785545349121,3.111020565032959
1702139034118751000,18.9657509765625,1.6705296039581299,1.3818612098693848,3.018524646759033
1702139034135752200,18.982752197265626,1.6587878465652466,1.4003205299377441,2.928773880004883
1702139034152736500,18.999736572265626,1.5549548864364624,1.3977952003479004,3.0700020790100098
1702139034169733400,19.0167333984375,1.4711335897445679,1.2764840126037598,3.0364952087402344
1702139034186724400,19.033724365234374,1.3720849752426147,1.0286388397216797,2.948523998260498
1702139034203714800,19.05071484375,1.0484416484832764,0.841893196105957,2.8872480392456055
1702139034220705000,19.067705078125,0.9132940769195557,1.0070114135742188,2.718090057373047
1702139034237696300,19.0846962890625,0.8367750644683838,1.162736415863037,2.661275863647461
1702139034254686500,19.1016865234375,1.0248807668685913,1.33978271484375,2.608293056488037
1702139034271677400,19.118677490234376,1.3655391931533813,1.5499815940856934,2.7462944984436035
1702139034288667400,19.13566748046875,1.567796230316162,1.7382311820983887,2.9324493408203125
1702139034305650200,19.152650146484376,1.7377573251724243,1.9486048221588135,2.7466611862182617
1702139034322649000,19.169649169921875,1.7806789875030518,1.9738783836364746,2.373795986175537
1702139034339621400,19.186621337890625,1.8312726020812988,1.837148666381836,1.923316478729248
1702139034356621000,19.20362109375,1.8471406698226929,1.717975378036499,1.6189370155334473
1702139034373623300,19.220623291015624,1.922522783279419,1.682114601135254,1.4813919067382812
1702139034390611500,19.237611572265624,2.039071559906006,1.7862868309020996,1.3022122383117676
1702139034407602200,19.254602294921874,2.2315313816070557,1.818812370300293,1.1624369621276855
1702139034424590300,19.27159033203125,2.2793304920196533,1.6007697582244873,1.1100225448608398
1702139034441586000,19.2885859375,2.581498861312866,1.3603074550628662,0.7269735336303711
1702139034458574000,19.305573974609374,2.8406333923339844,1.2296462059020996,0.10565948486328125
1702139034475551700,19.3225517578125,2.9460349082946777,1.1085803508758545,-0.4644761085510254
1702139034492557800,19.339557861328124,2.7537755966186523,0.9519426822662354,-0.5801644325256348
1702139034509546000,19.3565458984375,2.729203224182129,0.8011796474456787,-0.5523300170898438
1702139034526536700,19.37353662109375,2.7850568294525146,0.7527704238891602,-0.6530895233154297
1702139034543527700,19.390527587890624,2.839526653289795,0.6669812202453613,-1.1658525466918945
1702139034560517600,19.407517578125,2.352658748626709,0.5523626804351807,-1.5296835899353027
1702139034577508400,19.42450830078125,1.3873876333236694,0.3402750492095947,-1.8452649116516113
1702139034594499300,19.441499267578124,0.27122431993484497,0.2122809886932373,-2.0124621391296387
1702139034611490000,19.458489990234376,-0.6859561204910278,0.12856507301330566,-1.9284133911132812
1702139034628469800,19.4754697265625,-0.9550855159759521,0.11394786834716797,-1.6312255859375
1702139034645471200,19.49247119140625,-0.642806351184845,-0.005422353744506836,-1.0680780410766602
1702139034662461700,19.509461669921876,0.11536598205566406,-0.37662172317504883,-0.844355583190918
1702139034679452400,19.526452392578125,0.5416926145553589,-0.8407268524169922,-1.044321060180664
1702139034696425500,19.543425537109375,0.7185883522033691,-1.2286159992218018,-1.477205753326416
1702139034713433300,19.560433349609376,0.16714054346084595,-1.330580711364746,-1.7858448028564453
1702139034730422500,19.577422607421877,-0.3923149108886719,-1.455782413482666,-1.626957893371582
1702139034747416600,19.59441650390625,-0.3155696988105774,-1.4515471458435059,-0.8976621627807617
1702139034764405000,19.611405029296876,0.21577584743499756,-1.6848046779632568,-0.2254934310913086
1702139034781396200,19.628396240234373,0.8083229660987854,-2.124267578125,-0.0023412704467773438
1702139034798385400,19.645385498046874,1.076818585395813,-2.4070825576782227,-0.2689218521118164
1702139034815376000,19.6623759765625,0.9909965395927429,-2.2800440788269043,-1.1529417037963867
1702139034832370200,19.6793701171875,0.7435150146484375,-2.477107524871826,-1.7845640182495117
1702139034849358600,19.696358642578126,1.192061424255371,-3.1926686763763428,-1.6177253723144531
1702139034866349000,19.71334912109375,1.7432055473327637,-3.802551507949829,-1.275557518005371
1702139034883340300,19.73034033203125,1.5641565322875977,-4.307214736938477,-1.2899866104125977
1702139034900330200,19.747330322265626,1.0847678184509277,-4.332032203674316,-1.730189323425293
1702139034917321000,19.764321044921875,0.6146124601364136,-3.998267412185669,-2.016770362854004
1702139034934311700,19.781311767578124,-0.4291667938232422,-3.9596781730651855,-1.2326879501342773
1702139034951302700,19.798302734375,-1.223976969718933,-4.367657661437988,-0.12827205657958984
1702139034968292900,19.81529296875,-1.7802515029907227,-4.493034362792969,0.2401437759399414
1702139034985283600,19.83228369140625,-1.7939027547836304,-4.9778618812561035,0.2249155044555664
1702139035002274300,19.8492744140625,-0.7923697233200073,-4.9798102378845215,-0.5152616500854492
1702139035019265000,19.86626513671875,0.21234774589538574,-5.03620719909668,-1.0216283798217773
1702139035036255200,19.883255126953124,0.2820580005645752,-5.69639253616333,-0.48736572265625
1702139035053235500,19.9002353515625,-0.32918012142181396,-6.248222351074219,-0.4826383590698242
1702139035070240500,19.917240478515627,-0.7651076316833496,-6.380892276763916,-2.1659560203552246
1702139035087216400,19.93421630859375,-0.3085169792175293,-5.3290486335754395,-1.7206778526306152
1702139035104217900,19.9512177734375,-0.4808497428894043,-4.968374729156494,1.553147315979004
1702139035121206300,19.968206298828125,-1.5562658309936523,-5.657846927642822,5.457206726074219
1702139035138197800,19.98519775390625,-1.5158467292785645,-5.753108024597168,7.112112998962402
1702139035155179500,20.002179443359374,-0.8283562660217285,-6.072325229644775,6.659794807434082
1702139035172180200,20.01918017578125,0.05500602722167969,-5.8489837646484375,4.775489807128906
1702139035189167400,20.03616748046875,0.1533360481262207,-6.150506973266602,2.5624828338623047
1702139035206162000,20.053161865234376,0.005491971969604492,-6.347848892211914,0.8886270523071289
1702139035223156000,20.070156005859374,0.07984375953674316,-6.043201446533203,0.3577098846435547
1702139035240139300,20.08713916015625,-0.2931644916534424,-6.032358646392822,0.9979410171508789
1702139035257133800,20.1041337890625,-0.4946873188018799,-5.870850086212158,1.6769418716430664
1702139035274124300,20.121124267578125,-0.20177888870239258,-5.469161510467529,1.667445182800293
1702139035291115000,20.138114990234374,-0.0715479850769043,-5.2752203941345215,0.9160556793212891
1702139035308102400,20.155102294921875,0.3541668653488159,-4.997673511505127,-0.30636024475097656
1702139035325098200,20.17209814453125,0.6020487546920776,-5.205897808074951,-0.7189292907714844
1702139035342087400,20.18908740234375,1.2647686004638672,-5.2436347007751465,-0.793757438659668
1702139035359061800,20.206061767578124,1.8638012409210205,-5.152791976928711,-0.34247684478759766
1702139035376067800,20.22306787109375,1.8034571409225464,-4.769857406616211,-0.15965652465820312
1702139035393058800,20.240058837890626,1.2079291343688965,-4.186235427856445,-0.7607526779174805
1702139035410049300,20.25704931640625,0.1716916561126709,-3.7098021507263184,-1.4515571594238281
1702139035427040300,20.274040283203124,-0.43453681468963623,-3.4881198406219482,-1.9119462966918945
1702139035444030000,20.291030029296873,-0.28504300117492676,-3.1316421031951904,-1.8962044715881348
1702139035461021200,20.308021240234375,0.3763677477836609,-2.6668753623962402,-1.6532258987426758
1702139035478012000,20.325011962890624,0.49597692489624023,-2.325409412384033,-0.9741640090942383
1702139035495002600,20.342002685546873,0.38243281841278076,-2.0593371391296387,-0.921025276184082
1702139035511991800,20.35899169921875,0.1339314579963684,-1.8837240934371948,-1.3072423934936523
1702139035528984800,20.37598486328125,0.2015618085861206,-1.7030619382858276,-1.4217033386230469
1702139035545970700,20.392970703125,0.5500562191009521,-1.4040496349334717,-1.4170570373535156
1702139035562969000,20.409968994140623,0.8802201151847839,-1.0962285995483398,-1.1489133834838867
1702139035579962400,20.42696240234375,0.5666073560714722,-0.8194985389709473,-0.5763130187988281
1702139035596946400,20.443946533203125,0.05584383010864258,-0.477644681930542,-0.8139562606811523
1702139035613936600,20.4609365234375,-0.06085479259490967,-0.29592227935791016,-1.4650425910949707
1702139035630928000,20.477927978515623,0.32562255859375,-0.26369476318359375,-1.787994384765625
1702139035647917600,20.49491748046875,1.2492681741714478,-0.37126946449279785,-1.775228500366211
1702139035664908500,20.511908447265625,1.8311803340911865,-0.21725082397460938,-1.7137799263000488
1702139035681888800,20.528888671875,1.5741631984710693,0.13027071952819824,-1.4256525039672852
1702139035698880800,20.545880859375,0.918450653553009,0.46863675117492676,-1.3912415504455566
1702139035715877600,20.562877685546876,0.6767743229866028,0.6982705593109131,-1.70786714553833
1702139035732874000,20.5798740234375,0.883733332157135,0.8283710479736328,-1.9633660316467285
1702139035749862000,20.59686181640625,1.5786207914352417,0.8212776184082031,-2.2939062118530273
1702139035766851000,20.61385107421875,1.6551233530044556,1.0428898334503174,-2.172097682952881
1702139035783844400,20.63084423828125,1.023236870765686,0.926398754119873,-0.9938688278198242
1702139035800833800,20.647833740234375,0.6315315961837769,0.9894721508026123,0.3952484130859375
1702139035817805800,20.664805908203125,1.2160848379135132,1.080935001373291,1.0698528289794922
1702139035834815200,20.681815185546874,2.3191885948181152,1.1068637371063232,1.2057042121887207
1702139035851805400,20.698805419921875,3.344613552093506,1.3078463077545166,1.095743179321289
1702139035868796200,20.715796142578125,3.590120553970337,1.526902675628662,1.3532557487487793
1702139035885786600,20.73278662109375,3.171513557434082,1.4749689102172852,2.180549144744873
1702139035902777600,20.749777587890627,3.148782730102539,1.6089942455291748,2.4156370162963867
1702139035919757300,20.76675732421875,3.621126413345337,1.9470868110656738,2.1082706451416016
1702139035936758800,20.7837587890625,3.8755974769592285,2.0808844566345215,2.236687183380127
1702139035953746700,20.80074658203125,3.448425769805908,1.9985761642456055,3.0493202209472656
1702139035970741000,20.817740966796876,3.344700336456299,1.6692285537719727,4.0212907791137695
1702139035987730400,20.83473046875,4.144351005554199,1.365969181060791,4.593677997589111
1702139036004718600,20.851718505859374,4.699732780456543,1.4444470405578613,4.683346748352051
1702139036021714700,20.868714599609376,3.9482808113098145,1.6918458938598633,4.745889663696289
1702139036038684200,20.88568408203125,2.324906826019287,1.4677891731262207,4.938956260681152
1702139036055692800,20.90269287109375,0.7416191101074219,1.048532485961914,5.130354404449463
1702139036072683500,20.91968359375,0.32964253425598145,0.7753686904907227,4.854819297790527
1702139036089674500,20.936674560546876,0.63785719871521,0.7872114181518555,4.9285759925842285
1702139036106665200,20.953665283203126,0.6922762393951416,0.7789692878723145,5.207327842712402
1702139036123655400,20.970655517578123,0.5653471946716309,0.8494806289672852,5.026491641998291
1702139036140646100,20.987646240234376,0.7480652332305908,1.262596607208252,3.9777278900146484
1702139036157636900,21.004636962890626,0.7814385890960693,1.7986478805541992,3.1419677734375
1702139036174625000,21.021625,0.5218861103057861,1.9053850173950195,3.0934181213378906
1702139036191615500,21.038615478515624,0.04668712615966797,1.2555961608886719,3.595369815826416
1702139036208604200,21.055604248046876,-0.09842252731323242,0.9003796577453613,3.9093189239501953
1702139036225587000,21.0725869140625,0.662691593170166,1.149280071258545,2.973733425140381
1702139036242584000,21.089583984375,1.613865852355957,1.725412368774414,1.9482831954956055
1702139036259570000,21.10656982421875,1.9942129850387573,1.8229761123657227,1.2444581985473633
1702139036276562400,21.1235625,1.8332327604293823,1.4380159378051758,1.2028827667236328
1702139036293561600,21.1405615234375,0.9976427555084229,1.099456787109375,1.5699987411499023
1702139036310555600,21.1575556640625,0.17955970764160156,0.8197460174560547,2.0561203956604004
1702139036327542800,21.174542724609374,-0.20951175689697266,0.7780108451843262,2.132967948913574
1702139036344533500,21.191533447265623,0.20037174224853516,1.0089921951293945,1.8283624649047852
1702139036361524500,21.2085244140625,0.8244571685791016,1.2611174583435059,1.753413200378418
1702139036378505700,21.225505615234376,1.181534767150879,1.3514556884765625,2.2581067085266113
1702139036395502600,21.242502685546874,1.2463881969451904,1.407712459564209,3.0830488204956055
1702139036412498700,21.259498779296877,1.5740482807159424,1.3989572525024414,3.4897241592407227
1702139036429486600,21.276486572265625,2.060081958770752,1.363302230834961,3.7750649452209473
1702139036446477800,21.293477783203127,2.59971284866333,1.4927821159362793,3.7540440559387207
1702139036463465200,21.31046533203125,2.7843542098999023,1.4529728889465332,3.8835229873657227
1702139036480461300,21.32746142578125,2.883800983428955,1.395345687866211,4.015522480010986
1702139036497439000,21.34443896484375,2.676316261291504,1.4915046691894531,3.84248685836792
1702139036514438700,21.361438720703124,2.3697550296783447,1.6471567153930664,3.4536194801330566
1702139036531432200,21.37843212890625,2.323153018951416,1.839024305343628,2.740475654602051
1702139036548420900,21.3954208984375,2.31961727142334,1.8562018871307373,2.1302971839904785
1702139036565412400,21.412412353515624,2.39924693107605,1.81508207321167,1.5891733169555664
1702139036582404900,21.42940478515625,2.3189477920532227,1.7104403972625732,1.3285346031188965
1702139036599388400,21.446388427734377,1.890788197517395,1.7369422912597656,0.814091682434082
1702139036616383500,21.463383544921875,1.270656704902649,1.656303882598877,0.3840055465698242
1702139036633374200,21.480374267578124,0.8461105823516846,1.421351432800293,0.05784416198730469
1702139036650365000,21.497364990234374,1.3239684104919434,1.2663958072662354,-0.1360912322998047
