time,seconds_elapsed,z,y,x
1702063345743359500,0.163359375,-4.610342979431152,-2.2651560306549072,-0.8212490081787109
1702063345760354000,0.18035400390625,-6.0618696212768555,-2.2198030948638916,-0.37567591667175293
1702063345777348900,0.197348876953125,-7.362760543823242,-2.1159796714782715,0.7877030372619629
1702063345794342100,0.214342041015625,-7.1079421043396,-2.1104087829589844,1.8146185874938965
1702063345811335400,0.23133544921875,-5.013209342956543,-2.2141311168670654,2.0654945373535156
1702063345828324400,0.248324462890625,-2.7515387535095215,-1.988059639930725,1.636948585510254
1702063345845322000,0.265322021484375,-1.6034493446350098,-1.726897120475769,1.6012625694274902
1702063345862314200,0.282314208984375,-1.8003764152526855,-1.6095945835113525,1.6689257621765137
1702063345879309800,0.299309814453125,-1.660019874572754,-1.3194377422332764,1.236034870147705
1702063345896299000,0.316299072265625,-1.3670682907104492,-0.9177549481391907,0.8576507568359375
1702063345913298000,0.3332978515625,-1.425827980041504,-1.0247619152069092,0.7137913703918457
1702063345930287900,0.350287841796875,-1.6596379280090332,-1.2846242189407349,0.8716526031494141
1702063345947280400,0.3672802734375,-1.4437713623046875,-1.5081775188446045,0.9298615455627441
1702063345964276000,0.38427587890625,-1.0540738105773926,-1.9546759128570557,0.8393239974975586
1702063345981271800,0.401271728515625,-0.6201105117797852,-2.17413330078125,0.17866086959838867
1702063345998260700,0.4182607421875,-0.7321696281433105,-2.1771509647369385,-0.5537056922912598
1702063346015258000,0.435258056640625,-1.1932311058044434,-3.0851869583129883,-0.15169954299926758
1702063346032250600,0.452250732421875,-1.2110071182250977,-3.975315809249878,1.3048725128173828
1702063346049246500,0.46924658203125,-0.8342676162719727,-4.329525470733643,2.6813225746154785
1702063346066235100,0.486235107421875,-0.1111001968383789,-4.332484722137451,3.55133056640625
1702063346083232500,0.503232421875,0.12064170837402344,-3.9850125312805176,3.1877012252807617
1702063346100237000,0.520237060546875,-0.4887125492095947,-4.340479850769043,2.425877571105957
1702063346117219000,0.537218994140625,-0.9388675689697266,-4.855837821960449,1.5416698455810547
1702063346134212600,0.554212646484375,-1.2460174560546875,-5.133864402770996,1.143366813659668
1702063346151205600,0.57120556640625,-2.0324792861938477,-5.591905117034912,2.0000715255737305
1702063346168197400,0.588197265625,-3.73268985748291,-5.232463359832764,3.0078697204589844
1702063346185196500,0.605196533203125,-5.247328758239746,-4.014266490936279,2.869889259338379
1702063346202186800,0.622186767578125,-5.831388473510742,-3.3592007160186768,2.096245765686035
1702063346219182600,0.6391826171875,-5.460628032684326,-4.430270195007324,1.9832115173339844
1702063346236171800,0.656171875,-4.719911098480225,-6.0557332038879395,1.9464588165283203
1702063346253168400,0.67316845703125,-3.8734211921691895,-6.97492790222168,1.1964530944824219
1702063346270163000,0.690162841796875,-3.117466449737549,-7.249945640563965,0.20559120178222656
1702063346287150300,0.707150390625,-2.6135151386260986,-7.902196884155273,0.2464313507080078
1702063346304141000,0.72414111328125,-2.4902000427246094,-9.109175682067871,1.2239084243774414
1702063346321145000,0.74114501953125,-2.9889943599700928,-10.406614303588867,1.7325124740600586
1702063346338133500,0.758133544921875,-3.6352651119232178,-10.99611759185791,0.6708755493164062
1702063346355131000,0.775130859375,-3.5192668437957764,-10.899497032165527,-0.8790102005004883
1702063346372112600,0.792112548828125,-3.587383985519409,-11.156161308288574,-1.1909818649291992
1702063346389120800,0.809120849609375,-3.776881694793701,-11.652421951293945,-0.6688518524169922
1702063346406105000,0.82610498046875,-3.620272636413574,-11.678680419921875,-0.8566608428955078
1702063346423112000,0.84311181640625,-2.794490098953247,-10.95076847076416,-1.494250774383545
1702063346440113200,0.860113037109375,-1.8588639497756958,-10.687740325927734,-1.063511848449707
1702063346457087500,0.87708740234375,-2.167479991912842,-11.90319538116455,1.1268587112426758
1702063346474084000,0.894083984375,-3.5636911392211914,-13.269376754760742,3.603814125061035
1702063346491080400,0.91108056640625,-3.9193191528320312,-13.199138641357422,4.140107154846191
1702063346508073500,0.928073486328125,-3.8177926540374756,-12.618003845214844,3.1861934661865234
1702063346525060900,0.945060791015625,-3.782614231109619,-12.241798400878906,2.070331573486328
1702063346542060500,0.962060546875,-4.3184709548950195,-12.274300575256348,1.1860036849975586
1702063346559052800,0.979052734375,-4.873499870300293,-12.232268333435059,0.6642665863037109
1702063346576041000,0.996041015625,-5.388063907623291,-12.360876083374023,0.6087865829467773
1702063346593040100,1.0130400390625,-5.759212017059326,-12.396005630493164,1.0692167282104492
1702063346610036500,1.030036376953125,-5.822235107421875,-12.004562377929688,1.4309911727905273
1702063346627026000,1.04702587890625,-5.386956214904785,-11.401789665222168,1.1885347366333008
1702063346644021200,1.064021240234375,-4.549083709716797,-10.718791961669922,0.736572265625
1702063346661017000,1.08101708984375,-3.864053964614868,-10.302240371704102,0.44801998138427734
1702063346678006300,1.09800634765625,-3.551038980484009,-10.201311111450195,0.39299488067626953
1702063346695009000,1.115009033203125,-3.5262436866760254,-10.141212463378906,-0.036457061767578125
1702063346711996000,1.131995849609375,-3.674999237060547,-9.967774391174316,-0.6112403869628906
1702063346728991500,1.148991455078125,-3.7731213569641113,-9.52854061126709,-1.0173463821411133
1702063346745985300,1.1659853515625,-3.659998893737793,-8.86559009552002,-1.2235441207885742
1702063346762978000,1.18297802734375,-3.689509391784668,-8.13976001739502,-1.142716407775879
1702063346779973600,1.1999736328125,-4.117331504821777,-7.605403900146484,-1.123234748840332
1702063346796962300,1.21696240234375,-4.551432132720947,-7.226229667663574,-1.3725924491882324
1702063346813957400,1.233957275390625,-4.659454345703125,-6.775028705596924,-1.7580881118774414
1702063346830953500,1.250953369140625,-4.307164669036865,-6.340277194976807,-1.9652576446533203
1702063346847942700,1.267942626953125,-3.709059476852417,-5.866142272949219,-2.02280330657959
1702063346864939800,1.284939697265625,-3.212608814239502,-5.461092948913574,-1.7584147453308105
1702063346881932300,1.301932373046875,-2.997297763824463,-5.063425064086914,-1.2938432693481445
1702063346898928000,1.31892822265625,-3.339447021484375,-4.553310394287109,-0.9539775848388672
1702063346915917000,1.3359169921875,-3.5673537254333496,-3.8507306575775146,-1.208993911743164
1702063346932913700,1.35291357421875,-3.6364364624023438,-3.231414318084717,-1.5280828475952148
1702063346949908500,1.369908447265625,-3.9033899307250977,-2.9217123985290527,-1.7792367935180664
1702063346966895900,1.386895751953125,-3.993978261947632,-2.8335888385772705,-2.040328025817871
1702063346983896300,1.403896240234375,-3.6573190689086914,-2.8014373779296875,-2.3201189041137695
1702063347000889900,1.420889892578125,-3.3238072395324707,-2.7396721839904785,-2.379671096801758
1702063347017878800,1.437878662109375,-3.101555824279785,-2.6027190685272217,-2.2597103118896484
1702063347034876400,1.45487646484375,-2.9902188777923584,-2.398163080215454,-2.1649370193481445
1702063347051868400,1.471868408203125,-3.083895683288574,-2.1028940677642822,-2.012916088104248
1702063347068864300,1.4888642578125,-2.9608659744262695,-1.6847901344299316,-1.7703971862792969
1702063347085856500,1.5058564453125,-2.7550313472747803,-1.5985045433044434,-1.292403221130371
1702063347102851000,1.52285107421875,-2.4647409915924072,-1.416968822479248,-0.660883903503418
1702063347119840500,1.539840576171875,-2.245495319366455,-1.06955885887146,0.20553016662597656
1702063347136836000,1.556836181640625,-2.1008734703063965,-0.7734055519104004,0.6078977584838867
1702063347153821000,1.573821044921875,-1.903611421585083,-0.6293771266937256,0.2362041473388672
1702063347170825700,1.59082568359375,-1.646726131439209,-0.49909448623657227,-0.36900901794433594
1702063347187814000,1.60781396484375,-1.6006361246109009,-0.48824453353881836,-0.6929721832275391
1702063347204814300,1.624814453125,-1.5429542064666748,-0.4266204833984375,-0.6456069946289062
1702063347221809000,1.641808837890625,-1.3579624891281128,-0.15442562103271484,-0.19447803497314453
1702063347238795500,1.65879541015625,-1.2955048084259033,0.07168769836425781,0.43259239196777344
1702063347255793200,1.675793212890625,-1.360107183456421,0.14300966262817383,0.6705617904663086
1702063347272784100,1.6927841796875,-1.4492462873458862,0.2681136131286621,0.4519538879394531
1702063347289775900,1.70977587890625,-1.558083176612854,0.44395971298217773,0.10018634796142578
1702063347306767400,1.726767333984375,-1.585752248764038,0.41106271743774414,0.028578758239746094
1702063347323764700,1.7437646484375,-1.5400962829589844,0.18677663803100586,0.5177526473999023
1702063347340765200,1.76076513671875,-1.5543725490570068,-0.20607852935791016,1.489675521850586
1702063347357752800,1.7777529296875,-1.785945177078247,-0.5335679054260254,2.1547584533691406
1702063347374750000,1.79475,-2.21577787399292,-0.4559969902038574,1.9893074035644531
1702063347391741700,1.81174169921875,-2.659867763519287,-0.47437429428100586,1.5118303298950195
1702063347408730400,1.82873046875,-3.1734066009521484,-0.5752348899841309,1.1204099655151367
1702063347425733400,1.8457333984375,-3.9084694385528564,-1.3500237464904785,1.3049430847167969
1702063347442722800,1.862722900390625,-4.216596603393555,-1.9854297637939453,1.3010978698730469
1702063347459714800,1.87971484375,-3.999044895172119,-1.9610214233398438,1.1674919128417969
1702063347476710100,1.896710205078125,-3.3999722003936768,-1.6010141372680664,1.4434022903442383
1702063347493703000,1.913702880859375,-2.505119800567627,-1.3397445678710938,1.5539369583129883
1702063347510699000,1.930698974609375,-1.4570817947387695,-0.9675636291503906,1.2639656066894531
1702063347527688000,1.94768798828125,-0.09805093705654144,-0.631556510925293,0.7283906936645508
1702063347544685300,1.964685302734375,1.1324348449707031,-0.06415081024169922,0.3338279724121094
1702063347561677800,1.981677734375,1.9610493183135986,0.6451869010925293,0.4097414016723633
1702063347578667500,1.99866748046875,2.207688093185425,1.2272257804870605,0.7731075286865234
1702063347595668500,2.01566845703125,2.1205968856811523,1.6069023609161377,1.260481834411621
1702063347612659000,2.032658935546875,1.4893358945846558,1.7370750904083252,1.4518766403198242
1702063347629651200,2.049651123046875,0.6191834211349487,1.6334471702575684,1.3140554428100586
1702063347646646300,2.066646240234375,0.04227215051651001,1.49774169921875,0.938868522644043
1702063347663639800,2.083639892578125,-0.32825326919555664,1.4273114204406738,0.5649271011352539
1702063347680635100,2.10063525390625,-0.8528078198432922,1.436966896057129,0.3698444366455078
1702063347697624000,2.1176240234375,-1.4175763130187988,1.2289881706237793,0.4386148452758789
1702063347714621700,2.13462158203125,-1.7108402252197266,0.8510792255401611,0.6280145645141602
1702063347731614200,2.1516142578125,-1.9010467529296875,0.4632301330566406,0.5991621017456055
1702063347748606200,2.168606201171875,-2.4054675102233887,-0.3720107078552246,1.6079044342041016
1702063347765602300,2.185602294921875,-2.8974127769470215,-0.7879314422607422,3.034748077392578
1702063347782593500,2.202593505859375,-2.101836681365967,-0.9072422981262207,3.0602359771728516
1702063347799582700,2.219582763671875,-1.3436893224716187,-0.6366736888885498,1.5933609008789062
1702063347816579000,2.2365791015625,-1.215285301208496,-0.6683967113494873,0.19681739807128906
1702063347833589800,2.25358984375,-1.1893664598464966,-0.8330843448638916,-0.48348236083984375
1702063347850571500,2.270571533203125,-1.523164987564087,-0.9427344799041748,-0.5852317810058594
1702063347867555600,2.2875556640625,-2.1108055114746094,-0.9154140949249268,-0.5716686248779297
1702063347884557300,2.304557373046875,-2.730156898498535,-1.0797746181488037,-0.3599700927734375
1702063347901550800,2.32155078125,-3.4906845092773438,-1.287950038909912,-0.24720191955566406
1702063347918542600,2.33854248046875,-3.729688882827759,-1.484755039215088,-0.09316253662109375
1702063347935538400,2.355538330078125,-3.744997024536133,-1.5656886100769043,0.10850715637207031
1702063347952532200,2.3725322265625,-3.738842248916626,-1.7479965686798096,0.3604612350463867
1702063347969526000,2.389526123046875,-3.883612632751465,-2.0271928310394287,0.3210744857788086
1702063347986516700,2.406516845703125,-3.884070873260498,-2.464266777038574,-0.1036062240600586
1702063348003499300,2.423499267578125,-3.7660303115844727,-3.243910551071167,-0.3730144500732422
1702063348020510000,2.440510009765625,-4.177592754364014,-3.381840467453003,-0.0914754867553711
1702063348037496600,2.45749658203125,-4.458709716796875,-4.0945539474487305,0.1775350570678711
1702063348054493400,2.474493408203125,-4.282463073730469,-4.4343743324279785,-0.06227588653564453
1702063348071488500,2.491488525390625,-4.071606636047363,-4.799415588378906,-0.4368724822998047
1702063348088478200,2.508478271484375,-3.8357994556427,-5.05302095413208,-0.8337039947509766
1702063348105464300,2.52546435546875,-3.9795150756835938,-5.485306739807129,-1.5269908905029297
1702063348122468000,2.542468017578125,-4.190073013305664,-5.913907527923584,-2.43709659576416
1702063348139463000,2.559462890625,-4.065093994140625,-6.107666015625,-3.0960893630981445
1702063348156452900,2.576452880859375,-3.755474328994751,-6.221752166748047,-3.0020618438720703
1702063348173448400,2.593448486328125,-3.1701865196228027,-6.408196449279785,-2.161224365234375
1702063348190433800,2.610433837890625,-2.6470627784729004,-6.688807487487793,-1.4297218322753906
1702063348207433500,2.62743359375,-2.3021256923675537,-6.999617576599121,-1.2080974578857422
1702063348224430000,2.64443017578125,-2.5323634147644043,-7.314685344696045,-0.7819929122924805
1702063348241414400,2.661414306640625,-3.6168570518493652,-7.788842678070068,0.152862548828125
1702063348258414800,2.678414794921875,-4.629223823547363,-8.468698501586914,0.9455633163452148
1702063348275411000,2.695410888671875,-4.5214667320251465,-8.856760025024414,0.9994144439697266
1702063348292404500,2.712404541015625,-3.7485251426696777,-8.789324760437012,0.7615537643432617
1702063348309402000,2.729402099609375,-3.426788330078125,-8.477692604064941,1.1459636688232422
1702063348326386700,2.74638671875,-3.822535514831543,-8.793936729431152,1.5545644760131836
1702063348343387400,2.763387451171875,-3.889084815979004,-9.243263244628906,1.3227272033691406
1702063348360380700,2.780380615234375,-3.6549160480499268,-9.292901039123535,1.0423831939697266
1702063348377369600,2.79736962890625,-3.839433193206787,-9.165536880493164,1.2945709228515625
1702063348394366200,2.8143662109375,-4.589117050170898,-9.101340293884277,2.229825973510742
1702063348411361000,2.831361083984375,-4.575271129608154,-9.154308319091797,1.5126256942749023
1702063348428351200,2.848351318359375,-3.360034942626953,-9.213236808776855,0.018126487731933594
1702063348445337000,2.865337158203125,-1.7613065242767334,-9.54366683959961,0.35854530334472656
1702063348462340600,2.882340576171875,-2.3379480838775635,-10.196159362792969,3.0044193267822266
1702063348479335400,2.89933544921875,-4.422171592712402,-11.192571640014648,4.131002426147461
1702063348496326000,2.916325927734375,-6.101515769958496,-11.222702026367188,2.3935117721557617
1702063348513321500,2.933321533203125,-7.482223033905029,-11.312555313110352,3.01724910736084
1702063348530317000,2.950317138671875,-6.959713459014893,-10.492793083190918,4.026724815368652
1702063348547306000,2.967305908203125,-5.523660659790039,-9.606932640075684,5.8257598876953125
1702063348564302800,2.984302734375,-4.3152546882629395,-9.7579345703125,6.872163772583008
1702063348581282800,3.00128271484375,-3.2815141677856445,-10.08010482788086,6.31635856628418
1702063348598287600,3.01828759765625,-2.6015872955322266,-10.15020751953125,4.628340721130371
1702063348615271700,3.035271728515625,-2.5830955505371094,-10.242773056030273,2.6473283767700195
1702063348632275200,3.052275146484375,-3.039492130279541,-9.931029319763184,1.0975418090820312
1702063348649273900,3.06927392578125,-4.398773670196533,-10.181608200073242,0.8079261779785156
1702063348666262000,3.086261962890625,-5.762714862823486,-10.32876968383789,1.2007312774658203
1702063348683257600,3.103257568359375,-6.676487922668457,-10.33626651763916,1.430741310119629
1702063348700251000,3.1202509765625,-6.603714942932129,-10.106924057006836,0.8282022476196289
1702063348717238000,3.137238037109375,-5.785617351531982,-9.696447372436523,-0.16251182556152344
1702063348734240000,3.154239990234375,-4.508237361907959,-9.327559471130371,-0.770421028137207
1702063348751233000,3.17123291015625,-3.5599019527435303,-9.258959770202637,-0.5535964965820312
1702063348768227000,3.18822705078125,-3.2066688537597656,-9.2431640625,-0.1352529525756836
1702063348785220400,3.205220458984375,-3.611835479736328,-8.943320274353027,-0.08101654052734375
1702063348802214700,3.222214599609375,-4.291463851928711,-8.521591186523438,-0.5222892761230469
1702063348819207400,3.23920751953125,-4.445761203765869,-8.149907112121582,-0.9211406707763672
1702063348836201700,3.25620166015625,-4.190308094024658,-7.827826976776123,-1.1150808334350586
1702063348853192700,3.273192626953125,-3.8044042587280273,-7.651271343231201,-1.2375373840332031
1702063348870190800,3.29019091796875,-3.6860485076904297,-7.331825256347656,-1.3116912841796875
1702063348887182000,3.30718212890625,-3.702662944793701,-6.972115516662598,-1.1731834411621094
1702063348904179200,3.32417919921875,-3.568693161010742,-6.573775291442871,-1.154749870300293
1702063348921166300,3.341166259765625,-3.163466691970825,-6.274965763092041,-1.044198989868164
1702063348938163700,3.358163818359375,-2.8582091331481934,-5.835866928100586,-1.0493698120117188
1702063348955156500,3.375156494140625,-2.694563150405884,-5.232304573059082,-1.3467693328857422
1702063348972143600,3.3921435546875,-2.7536895275115967,-4.661458492279053,-1.8853683471679688
1702063348989133800,3.4091337890625,-2.9910988807678223,-4.240697383880615,-2.363381862640381
1702063349006138000,3.42613818359375,-3.1784920692443848,-3.876878499984741,-2.536850929260254
1702063349023131100,3.443131103515625,-3.244938611984253,-3.5186638832092285,-2.093751907348633
1702063349040125400,3.46012548828125,-3.069528579711914,-3.0481653213500977,-1.2822799682617188
1702063349057118500,3.477118408203125,-2.5947680473327637,-2.608396530151367,-1.125248908996582
1702063349074112800,3.49411279296875,-1.7394717931747437,-2.265540361404419,-1.6697134971618652
1702063349091103000,3.51110302734375,-1.0539048910140991,-2.0543010234832764,-1.9941291809082031
1702063349108104000,3.52810400390625,-0.7391688823699951,-1.809983253479004,-1.7141437530517578
1702063349125091600,3.545091552734375,-0.8661229610443115,-1.3543775081634521,-1.214982032775879
1702063349142081500,3.56208154296875,-1.4773327112197876,-0.8486461639404297,-0.737213134765625
1702063349159080200,3.579080078125,-1.9253772497177124,-0.5670883655548096,-0.36353015899658203
1702063349176074500,3.596074462890625,-1.9148716926574707,-0.678455114364624,-0.01587677001953125
1702063349193067500,3.613067626953125,-1.624953269958496,-0.510087251663208,0.08670806884765625
1702063349210061600,3.6300615234375,-1.2434165477752686,-0.2746458053588867,-0.06332778930664062
1702063349227054800,3.647054931640625,-0.646966814994812,-0.3627476692199707,-0.3655118942260742
1702063349244049000,3.664048828125,0.2914246916770935,-0.30988192558288574,-0.7012786865234375
1702063349261042200,3.681042236328125,1.0156550407409668,0.4644796848297119,-0.6609554290771484
1702063349278036200,3.6980361328125,0.8712397217750549,1.421098232269287,-0.30226993560791016
1702063349295027000,3.71502685546875,0.004403531551361084,1.7496840953826904,0.28208255767822266
1702063349312026000,3.732026123046875,-0.6040456295013428,1.577988624572754,1.2580585479736328
1702063349329016600,3.7490166015625,-0.2307453155517578,1.3899869918823242,2.404362678527832
1702063349346011000,3.766010986328125,0.40471410751342773,1.1318047046661377,3.52377986907959
1702063349362997200,3.782997314453125,0.3592107892036438,1.1187033653259277,3.591080665588379
1702063349379998000,3.799998046875,-0.16188955307006836,0.9826269149780273,2.8819589614868164
1702063349396992000,3.816991943359375,-1.0682388544082642,0.6575031280517578,2.255814552307129
1702063349413984500,3.833984619140625,-1.8685246706008911,0.48784875869750977,2.2786598205566406
1702063349430978300,3.850978271484375,-2.0570926666259766,0.5998411178588867,2.506892204284668
1702063349447972600,3.86797265625,-1.7921894788742065,0.41396045684814453,1.8629522323608398
1702063349464955100,3.884955078125,-0.9641185998916626,0.1897280216217041,2.031646728515625
1702063349481960000,3.9019599609375,-0.24456024169921875,0.21858692169189453,2.260462760925293
1702063349498953000,3.918952880859375,-0.5512133836746216,0.13848304748535156,1.5997343063354492
1702063349515947300,3.935947265625,-1.6135591268539429,0.29914236068725586,0.7614803314208984
1702063349532940300,3.952940185546875,-2.766213893890381,0.533423900604248,0.4025297164916992
1702063349549934300,3.969934326171875,-3.3694934844970703,0.3838376998901367,0.0380859375
1702063349566927600,3.986927734375,-3.032352924346924,0.30680060386657715,-0.5693960189819336
1702063349583922000,4.003921875,-2.941291093826294,0.3614821434020996,-0.4544677734375
1702063349600910800,4.020910888671875,-2.9207162857055664,0.46657562255859375,0.06350135803222656
1702063349617909000,4.037908935546875,-2.8775157928466797,0.729827880859375,0.6597347259521484
1702063349634902000,4.054902099609375,-2.600851535797119,0.9737868309020996,1.0037689208984375
1702063349651896000,4.07189599609375,-2.075590133666992,1.0501832962036133,1.1356191635131836
1702063349668889300,4.088889404296875,-1.4288955926895142,1.0057823657989502,1.0345191955566406
1702063349685880800,4.105880859375,-0.8925682306289673,0.8889412879943848,0.9226102828979492
1702063349702879200,4.122879150390625,-0.4146120548248291,0.8473410606384277,1.0897388458251953
1702063349719868200,4.1398681640625,-0.40989959239959717,0.8096232414245605,1.4347639083862305
1702063349736856000,4.15685595703125,-0.5798183679580688,0.7708044052124023,1.2982349395751953
1702063349753858000,4.173858154296875,-0.9521808624267578,0.7960965633392334,0.7431869506835938
1702063349770851000,4.19085107421875,-1.2921078205108643,0.7562053203582764,0.5809965133666992
1702063349787842800,4.2078427734375,-1.007593035697937,0.44536447525024414,0.9968748092651367
1702063349804841200,4.22484130859375,-0.343123197555542,0.42521190643310547,1.083613395690918
1702063349821832400,4.24183251953125,-0.2872294783592224,0.30440235137939453,0.4544486999511719
1702063349838825700,4.25882568359375,-0.5139642357826233,0.08188343048095703,-0.49369049072265625
1702063349855819800,4.27581982421875,-0.7140723466873169,0.10060381889343262,-1.2435235977172852
1702063349872813000,4.29281298828125,-1.281258463859558,0.2662782669067383,-1.3231201171875
1702063349889807000,4.30980712890625,-1.8164141178131104,0.21330881118774414,-0.9867668151855469
1702063349906800400,4.32680029296875,-1.750080943107605,-0.04504036903381348,-0.23866844177246094
1702063349923794400,4.34379443359375,-1.358737826347351,-0.3938288688659668,0.4228782653808594
1702063349940787500,4.360787353515625,-0.7696041464805603,-0.7562706470489502,0.2624216079711914
1702063349957781800,4.37778173828125,-0.35715383291244507,-1.126678466796875,-0.4369316101074219
1702063349974774800,4.39477490234375,-0.602324366569519,-1.509347915649414,-0.8921489715576172
1702063349991768800,4.411768798828125,-1.0565766096115112,-1.771932601928711,-0.8031845092773438
1702063350008752000,4.428752197265625,-1.7728403806686401,-2.1352736949920654,0.046878814697265625
1702063350025756200,4.445756103515625,-2.566218852996826,-2.6613810062408447,0.8674945831298828
1702063350042749200,4.462749267578125,-3.248929500579834,-3.1825003623962402,0.9033889770507812
1702063350059743500,4.479743408203125,-3.264662265777588,-3.4320993423461914,0.4698047637939453
1702063350076735700,4.49673583984375,-3.157109260559082,-3.4731509685516357,0.42772769927978516
1702063350093731600,4.513731689453125,-3.3196001052856445,-3.7411415576934814,0.8683671951293945
1702063350110723800,4.530723876953125,-3.678284168243408,-4.247319221496582,1.2625865936279297
1702063350127718100,4.54771826171875,-3.771254539489746,-4.832792282104492,1.259561538696289
1702063350144711200,4.564711181640625,-3.6398561000823975,-5.256734371185303,0.6936883926391602
1702063350161708800,4.581708740234375,-3.494533061981201,-5.447352409362793,-0.4471292495727539
1702063350178695000,4.59869482421875,-3.3859009742736816,-5.839534282684326,-1.49169921875
1702063350195692500,4.615692626953125,-3.3494749069213867,-6.216313362121582,-2.219289779663086
1702063350212685800,4.632685791015625,-2.9087419509887695,-6.702924728393555,-2.651784896850586
1702063350229678000,4.649677978515625,-2.319411039352417,-6.865381240844727,-2.660202980041504
1702063350246674700,4.6666748046875,-2.3091983795166016,-7.076351165771484,-2.3862180709838867
1702063350263656700,4.68365673828125,-2.7037394046783447,-7.27243709564209,-2.4212284088134766
1702063350280660200,4.70066015625,-2.9289231300354004,-7.375222206115723,-2.523829460144043
1702063350297654300,4.717654296875,-3.334965944290161,-7.355578899383545,-2.9817075729370117
1702063350314647300,4.734647216796875,-3.7522287368774414,-7.3948974609375,-3.3510231971740723
1702063350331641600,4.7516416015625,-4.211429119110107,-7.838072299957275,-2.7560067176818848
1702063350348634600,4.768634521484375,-4.468190670013428,-8.681391716003418,-1.5064105987548828
1702063350365629000,4.78562890625,-4.152126312255859,-9.079560279846191,-0.36139965057373047
1702063350382622000,4.8026220703125,-4.043645858764648,-8.688840866088867,-0.5406179428100586
1702063350399616000,4.819615966796875,-4.103146553039551,-8.11585521697998,-1.0613164901733398
1702063350416609500,4.836609619140625,-4.558796405792236,-7.588747024536133,-1.1581344604492188
1702063350433601000,4.85360107421875,-4.36958122253418,-7.310199737548828,-0.5683364868164062
1702063350450596400,4.870596435546875,-3.876447916030884,-7.567391395568848,0.07199478149414062
1702063350467576000,4.887576171875,-3.123725414276123,-7.8334879875183105,-0.3827238082885742
1702063350484587800,4.904587890625,-2.5853490829467773,-8.036402702331543,-1.314497947692871
1702063350501578000,4.921577880859375,-2.4987733364105225,-8.01889419555664,-1.7088565826416016
1702063350518568400,4.938568359375,-4.057223320007324,-7.679475784301758,-0.4223299026489258
1702063350535568000,4.95556787109375,-5.611931800842285,-7.6253814697265625,1.1056108474731445
1702063350552558300,4.972558349609375,-5.98081111907959,-7.5666913986206055,1.7884187698364258
1702063350569553000,4.989552978515625,-3.9905214309692383,-7.86861515045166,2.612603187561035
1702063350586535200,5.00653515625,-2.7268247604370117,-7.679523944854736,2.959113121032715
1702063350603538000,5.023537841796875,-2.922790050506592,-7.66331672668457,1.9110231399536133
1702063350620534800,5.04053466796875,-3.695930242538452,-8.052358627319336,0.9889421463012695
1702063350637527000,5.057527099609375,-4.567900657653809,-8.431150436401367,0.9953098297119141
1702063350654510000,5.074510009765625,-4.557703971862793,-8.562607765197754,1.9579658508300781
1702063350671511600,5.091511474609375,-4.843613624572754,-8.282331466674805,3.234992027282715
1702063350688510000,5.108510009765625,-5.549963474273682,-8.141555786132812,4.406878471374512
1702063350705491200,5.1254912109375,-5.7836222648620605,-8.073857307434082,4.322885513305664
1702063350722494700,5.14249462890625,-5.51185417175293,-8.17495346069336,3.414891242980957
1702063350739488800,5.15948876953125,-4.949163436889648,-8.376953125,2.4583778381347656
1702063350756482000,5.17648193359375,-4.632042407989502,-8.75867748260498,1.7815275192260742
1702063350773476000,5.19347607421875,-4.691646575927734,-8.956526756286621,1.1224775314331055
1702063350790469000,5.21046923828125,-5.188594341278076,-8.980316162109375,0.3537931442260742
1702063350807463400,5.22746337890625,-5.574329376220703,-8.932305335998535,-0.4193449020385742
1702063350824456400,5.24445654296875,-5.8827128410339355,-8.85622787475586,-0.9508705139160156
1702063350841450800,5.26145068359375,-5.9469404220581055,-8.727372169494629,-1.2212762832641602
1702063350858433500,5.27843359375,-5.677896499633789,-8.510165214538574,-1.5963525772094727
1702063350875437800,5.295437744140625,-5.229814052581787,-8.228723526000977,-1.9588704109191895
1702063350892429300,5.31242919921875,-4.566143035888672,-8.039569854736328,-2.031330108642578
1702063350909426700,5.3294267578125,-4.1002349853515625,-7.724298000335693,-2.0822601318359375
1702063350926408000,5.346407958984375,-3.9307050704956055,-7.383677005767822,-2.1194849014282227
1702063350943412500,5.36341259765625,-4.03359317779541,-7.038992881774902,-2.3060035705566406
1702063350960405500,5.380405517578125,-4.021193504333496,-6.742976665496826,-2.379110336303711
1702063350977399800,5.39739990234375,-3.757659912109375,-6.529413223266602,-2.4041824340820312
1702063350994392800,5.414392822265625,-3.337355852127075,-6.165781021118164,-2.3301639556884766
1702063351011387100,5.43138720703125,-3.0099756717681885,-5.755172252655029,-2.1131949424743652
1702063351028381400,5.44838134765625,-2.867621898651123,-5.370174407958984,-1.861161231994629
1702063351045373000,5.465373046875,-2.7624263763427734,-4.941697597503662,-1.8046789169311523
1702063351062365400,5.482365478515625,-2.7100234031677246,-4.418667793273926,-2.023183822631836
1702063351079363300,5.49936328125,-2.508148431777954,-3.8830864429473877,-2.258864402770996
1702063351096344000,5.516343994140625,-2.1092300415039062,-3.4612550735473633,-2.277195453643799
1702063351113348900,5.533348876953125,-1.6053603887557983,-3.008326530456543,-1.9908347129821777
1702063351130342000,5.550341796875,-1.6699082851409912,-2.703345775604248,-1.0740318298339844
1702063351147336200,5.567336181640625,-1.9933992624282837,-2.5412943363189697,-0.8535928726196289
1702063351164329200,5.5843291015625,-2.071584701538086,-2.5508663654327393,-1.117605209350586
1702063351181323300,5.6013232421875,-1.722055435180664,-2.436577320098877,-1.500432014465332
1702063351198316300,5.61831640625,-1.2345672845840454,-2.3297512531280518,-1.6170806884765625
1702063351215310600,5.635310546875,-1.0084750652313232,-2.3115174770355225,-1.3901948928833008
1702063351232303900,5.652303955078125,-0.9919432401657104,-2.3514981269836426,-1.0438737869262695
1702063351249298000,5.6692978515625,-0.7183837890625,-2.3273046016693115,-0.9080753326416016
1702063351266290700,5.686290771484375,-0.4746561348438263,-1.9327123165130615,-1.1910953521728516
1702063351283285000,5.703284912109375,-0.7197349071502686,-1.4149343967437744,-1.577134609222412
1702063351300277500,5.720277587890625,-1.344916820526123,-1.6558260917663574,-1.4538373947143555
1702063351317264600,5.7372646484375,-1.2957274913787842,-2.1904237270355225,-1.5335445404052734
1702063351334265600,5.754265625,0.14550185203552246,-2.0904688835144043,-1.4972472190856934
1702063351351259600,5.771259765625,1.1477513313293457,-1.223921537399292,-1.0286941528320312
1702063351368252700,5.788252685546875,1.4883532524108887,-0.24735212326049805,-0.6689863204956055
1702063351385247200,5.805247314453125,0.8632876873016357,-0.432952880859375,0.31467151641845703
1702063351402240300,5.822240234375,0.4033331871032715,-0.7166428565979004,0.6627464294433594
1702063351419234000,5.839234130859375,0.6601529121398926,-0.4725837707519531,0.3768501281738281
1702063351436227300,5.856227294921875,1.229383111000061,-0.040178775787353516,0.6546993255615234
1702063351453221400,5.873221435546875,0.9109907150268555,0.5615928173065186,1.5579090118408203
1702063351470213600,5.890213623046875,-0.36658430099487305,0.345125675201416,2.7370033264160156
1702063351487209700,5.907209716796875,-0.9201004505157471,0.050208091735839844,2.8657965660095215
1702063351504201700,5.92420166015625,-0.7651188373565674,0.3078150749206543,2.5050272941589355
1702063351521196000,5.941196044921875,-0.006373405456542969,0.24459314346313477,2.3445916175842285
1702063351538189000,5.95818896484375,0.7349090576171875,0.028005599975585938,2.0596556663513184
1702063351555185700,5.975185546875,0.871614933013916,0.06431436538696289,1.6305031776428223
1702063351572174000,5.992174072265625,0.332949161529541,0.22400236129760742,1.1452150344848633
1702063351589170700,6.009170654296875,-0.5938410758972168,0.1531682014465332,0.5682172775268555
1702063351606163700,6.026163818359375,-1.3859596252441406,0.2341599464416504,-0.21619462966918945
1702063351623157800,6.04315771484375,-1.9285962581634521,0.2439560890197754,-0.49816465377807617
1702063351640151000,6.060151123046875,-2.1411144733428955,0.0948648452758789,0.16086578369140625
1702063351657145000,6.07714501953125,-2.4463443756103516,-0.04386186599731445,1.664473056793213
1702063351674138000,6.09413818359375,-2.7082724571228027,0.6439342498779297,2.274132251739502
1702063351691122200,6.1111220703125,-2.2953274250030518,1.2079031467437744,1.408280849456787
1702063351708115000,6.128114990234375,-1.812664270401001,1.3981366157531738,-0.18584489822387695
1702063351725107700,6.145107666015625,-2.2181646823883057,1.1527152061462402,-0.7751169204711914
1702063351742112800,6.16211279296875,-2.562376022338867,0.9419384002685547,0.04447793960571289
1702063351759106800,6.17910693359375,-2.899327516555786,1.1081104278564453,2.155972480773926
1702063351776100000,6.19610009765625,-2.570995330810547,1.2660105228424072,3.667961597442627
1702063351793094100,6.21309423828125,-1.315782070159912,1.5688962936401367,3.271819591522217
1702063351810087200,6.230087158203125,-0.13741350173950195,1.7838211059570312,2.1761159896850586
1702063351827081700,6.247081787109375,0.3219151496887207,1.8177309036254883,1.4832167625427246
1702063351844074800,6.26407470703125,-0.2649252414703369,1.4626092910766602,1.3470649719238281
1702063351861068500,6.281068603515625,-1.4334609508514404,1.1669926643371582,1.0599784851074219
1702063351878063400,6.2980634765625,-2.3137147426605225,1.086719036102295,0.714747428894043
1702063351895054300,6.315054443359375,-2.783724784851074,1.2471275329589844,0.537449836730957
1702063351912049000,6.332048828125,-2.523442029953003,1.4291458129882812,0.32419681549072266
1702063351929043200,6.349043212890625,-1.8103137016296387,1.5366606712341309,0.0034999847412109375
1702063351946036200,6.3660361328125,-0.962848424911499,1.5191679000854492,-0.32483530044555664
1702063351963028700,6.38302880859375,-0.458141565322876,1.2903146743774414,-0.3194856643676758
1702063351980025300,6.400025390625,-0.2523467540740967,1.0298802852630615,0.10078811645507812
1702063351997017900,6.417017822265625,0.05917477607727051,0.8109157085418701,0.7835359573364258
1702063352014010600,6.4340107421875,0.4182305335998535,0.5902700424194336,1.0208263397216797
1702063352030993400,6.450993408203125,0.49134278297424316,0.29878854751586914,1.0711288452148438
1702063352047991000,6.467990966796875,0.18781065940856934,-0.14129638671875,0.73968505859375
1702063352064992000,6.484991943359375,-0.18633127212524414,-0.4529101848602295,0.03970050811767578
1702063352081974800,6.501974853515625,-0.4402121305465698,-0.6375861167907715,-0.7071504592895508
1702063352098968800,6.51896875,-0.9141631126403809,-0.6040399074554443,-1.2010016441345215
1702063352115972600,6.53597265625,-1.5364866256713867,-0.7012224197387695,-1.2547101974487305
1702063352132966700,6.552966552734375,-2.2390735149383545,-1.0696558952331543,-0.9487810134887695
1702063352149960000,6.5699599609375,-2.7282533645629883,-1.4924795627593994,-1.0016908645629883
1702063352166954000,6.5869541015625,-2.927279472351074,-1.7976229190826416,-1.6385078430175781
1702063352183947300,6.603947265625,-2.7397549152374268,-1.975797414779663,-2.4283595085144043
1702063352200941300,6.62094140625,-2.511018753051758,-2.085573434829712,-2.7270822525024414
1702063352217934300,6.637934326171875,-2.124523639678955,-2.2687928676605225,-2.6270904541015625
1702063352234928600,6.6549287109375,-1.6866722106933594,-2.6071577072143555,-2.4900083541870117
1702063352251921700,6.671921630859375,-1.4847958087921143,-2.8231818675994873,-2.582972526550293
1702063352268915700,6.688915771484375,-1.3373982906341553,-3.002027988433838,-3.026183605194092
1702063352285909000,6.705908935546875,-0.9804425239562988,-3.1945338249206543,-3.312410831451416
1702063352302903000,6.722903076171875,-0.5670785307884216,-3.3028438091278076,-3.167795181274414
1702063352319897300,6.7398974609375,-0.32147324085235596,-3.4847981929779053,-2.60205078125
1702063352336890000,6.75689013671875,-0.6778228878974915,-3.746936082839966,-2.0891146659851074
1702063352353883400,6.77388330078125,-1.4119853973388672,-4.070736885070801,-1.8775806427001953
1702063352370877700,6.790877685546875,-1.8750485181808472,-4.619661808013916,-2.2792463302612305
1702063352387870700,6.80787060546875,-1.715338110923767,-4.975945472717285,-2.8218278884887695
1702063352404863500,6.824863525390625,-1.4165900945663452,-5.291458606719971,-2.7905426025390625
1702063352421858000,6.841858154296875,-1.1374009847640991,-5.674111843109131,-2.5176162719726562
1702063352438849500,6.858849609375,-1.2515692710876465,-6.330193519592285,-2.0756235122680664
1702063352455856600,6.875856689453125,-1.645310878753662,-6.521617412567139,-1.8212485313415527
1702063352472837400,6.89283740234375,-1.9369175434112549,-6.236387252807617,-1.425328254699707
1702063352489836800,6.9098369140625,-1.934107780456543,-5.903395652770996,-0.6700553894042969
1702063352506827000,6.926826904296875,-1.9788835048675537,-6.013767719268799,0.29529666900634766
1702063352523819800,6.94381982421875,-1.6941837072372437,-6.691892623901367,0.7253303527832031
1702063352540813800,6.960813720703125,-1.2987490892410278,-7.132091522216797,0.5078392028808594
1702063352557810000,6.977809814453125,-1.3946332931518555,-6.998296737670898,0.1642465591430664
1702063352574798300,6.99479833984375,-1.5606037378311157,-6.6701459884643555,-0.31275463104248047
1702063352591794200,7.011794189453125,-2.1348624229431152,-6.3207197189331055,-0.5086956024169922
1702063352608788700,7.028788818359375,-2.930873155593872,-6.628624439239502,-0.043476104736328125
1702063352625781500,7.045781494140625,-3.842050552368164,-8.026026725769043,0.4309806823730469
1702063352642775800,7.06277587890625,-4.498000144958496,-9.121790885925293,-0.45845985412597656
1702063352659768800,7.079768798828125,-4.327195167541504,-9.109851837158203,-1.9103736877441406
1702063352676763000,7.096762939453125,-3.045809268951416,-8.27584457397461,-1.587874412536621
1702063352693756200,7.113756103515625,-2.140793800354004,-8.123924255371094,1.485743522644043
1702063352710750500,7.13075048828125,-1.4723836183547974,-8.469470977783203,4.5613813400268555
1702063352727743500,7.147743408203125,-1.0291582345962524,-8.60105037689209,5.3600263595581055
1702063352744737500,7.164737548828125,-0.6082296371459961,-8.663589477539062,3.779073715209961
1702063352761730600,7.18173046875,-1.333296537399292,-8.660950660705566,1.9757671356201172
1702063352778722300,7.198722412109375,-2.3587005138397217,-8.808308601379395,0.5852537155151367
1702063352795720400,7.215720458984375,-3.9421157836914062,-8.970608711242676,1.224900245666504
1702063352812712000,7.2327119140625,-5.763372898101807,-8.637795448303223,3.3967409133911133
1702063352829699000,7.249698974609375,-6.519063949584961,-7.016956329345703,4.089713096618652
1702063352846702000,7.2667021484375,-6.149870872497559,-6.108968734741211,3.986846923828125
1702063352863682600,7.2836826171875,-5.609302043914795,-6.571864128112793,4.216408729553223
1702063352880677000,7.300677001953125,-5.433191299438477,-7.371096611022949,4.284293174743652
1702063352897679600,7.3176796875,-5.300478935241699,-8.225115776062012,2.9883604049682617
1702063352914674000,7.334673828125,-4.896014213562012,-8.713860511779785,1.534524917602539
1702063352931667000,7.3516669921875,-4.375246047973633,-8.627936363220215,0.6829538345336914
1702063352948661000,7.368660888671875,-4.061748504638672,-8.418301582336426,0.41076183319091797
1702063352965654300,7.385654296875,-3.630220890045166,-8.198676109313965,0.1361846923828125
1702063352982648300,7.4026484375,-3.244737148284912,-8.241373062133789,-0.2600431442260742
1702063352999641300,7.419641357421875,-2.8061370849609375,-8.199892044067383,-0.6465110778808594
1702063353016635600,7.4366357421875,-2.4458913803100586,-8.070478439331055,-0.8696699142456055
1702063353033628700,7.453628662109375,-2.4200217723846436,-7.793951034545898,-0.9235553741455078
1702063353050622700,7.470622802734375,-2.509749412536621,-7.265161514282227,-0.9909181594848633
1702063353067616000,7.487615966796875,-2.9668221473693848,-6.901465892791748,-0.8073549270629883
1702063353084610000,7.504610107421875,-3.207688331604004,-6.77388334274292,-0.8620758056640625
1702063353101603300,7.521603271484375,-2.826861619949341,-6.719179153442383,-1.1930875778198242
1702063353118597000,7.53859716796875,-2.2314648628234863,-6.585994720458984,-1.415395736694336
1702063353135590400,7.55559033203125,-1.8634816408157349,-6.164453029632568,-1.5842504501342773
1702063353152589800,7.57258984375,-1.7501206398010254,-5.7183403968811035,-1.3419313430786133
1702063353169577700,7.58957763671875,-1.9937012195587158,-5.298257350921631,-0.944183349609375
1702063353186572000,7.606572021484375,-2.4446377754211426,-4.962474346160889,-0.7942104339599609
1702063353203565000,7.62356494140625,-2.415393829345703,-4.559264183044434,-1.1687259674072266
1702063353220559000,7.64055908203125,-1.8530858755111694,-4.245353698730469,-1.3226099014282227
1702063353237552000,7.65755224609375,-1.1604981422424316,-3.821377754211426,-1.1905813217163086
1702063353254536000,7.674535888671875,-0.610209584236145,-3.471597909927368,-1.132272720336914
1702063353271537000,7.691536865234375,-0.4061316251754761,-3.1485276222229004,-1.2256221771240234
1702063353288536300,7.708536376953125,-0.5863065719604492,-2.8444693088531494,-1.504812240600586
1702063353305516300,7.725516357421875,-0.6671331524848938,-2.4974770545959473,-1.8800859451293945
1702063353322502100,7.742502197265625,-0.6037752628326416,-2.12740421295166,-2.1566543579101562
1702063353339511300,7.75951123046875,-0.6746855974197388,-1.7558194398880005,-2.121002197265625
1702063353356510700,7.7765107421875,-0.6754428744316101,-1.5708374977111816,-1.7780780792236328
1702063353373501200,7.793501220703125,-0.8733334541320801,-1.3045499324798584,-1.5606260299682617
1702063353390495500,7.81049560546875,-1.0995725393295288,-0.9589242935180664,-1.7032928466796875
1702063353407486000,7.82748583984375,-1.1466995477676392,-0.6923213005065918,-1.9283709526062012
1702063353424482800,7.84448291015625,-0.8965029716491699,-0.5920991897583008,-1.8468513488769531
1702063353441478400,7.861478515625,-0.3526919186115265,-0.5711104869842529,-1.5436921119689941
1702063353458469600,7.8784697265625,-0.0068791210651397705,-0.5556149482727051,-0.9956417083740234
1702063353475460600,7.895460693359375,0.28458428382873535,-0.3918447494506836,-0.8228683471679688
1702063353492459800,7.912459716796875,0.611940860748291,-0.42284417152404785,-1.0292892456054688
1702063353509450500,7.929450439453125,0.9935964345932007,-0.3084235191345215,-1.133955955505371
1702063353526440700,7.946440673828125,0.8365503549575806,-0.33188772201538086,-1.0714397430419922
1702063353543441400,7.96344140625,0.7955328226089478,-0.3511035442352295,-1.3613624572753906
1702063353560431600,7.980431640625,0.7916464805603027,-0.21485352516174316,-1.3350181579589844
1702063353577425000,7.9974248046875,0.8299887180328369,0.13314127922058105,-0.5345611572265625
1702063353594419200,8.014419189453125,0.7507167458534241,0.4969465732574463,0.35587596893310547
1702063353611412200,8.031412109375,0.9436334371566772,0.7430627346038818,0.5954599380493164
1702063353628406300,8.04840625,1.0662884712219238,0.8377423286437988,0.4766197204589844
1702063353645399300,8.0653994140625,1.099909782409668,0.7252237796783447,0.4126148223876953
1702063353662393600,8.0823935546875,0.9910656213760376,0.8653500080108643,0.329864501953125
1702063353679376600,8.099376708984375,0.4309269189834595,0.8930797576904297,1.001913070678711
1702063353696380700,8.116380615234375,-0.5870416164398193,0.6428258419036865,1.6424903869628906
1702063353713374000,8.1333740234375,-1.0771429538726807,0.6485757827758789,1.6098546981811523
1702063353730368000,8.150367919921875,-1.044675588607788,0.5580387115478516,1.7733707427978516
1702063353747361300,8.167361328125,-0.9470999240875244,0.8519415855407715,1.6857728958129883
1702063353764355300,8.184355224609375,-0.8513805866241455,1.301245927810669,1.4356365203857422
1702063353781348400,8.201348388671875,-0.9255938529968262,1.2293248176574707,1.6784639358520508
1702063353798342400,8.21834228515625,-1.180363655090332,1.148158311843872,3.23745059967041
1702063353815335700,8.235335693359374,-1.1563811302185059,1.480628252029419,5.400670051574707
1702063353832330000,8.252330078125,-1.1157896518707275,1.7689518928527832,5.308403015136719
1702063353849323000,8.269322998046874,-1.0356123447418213,1.953380823135376,3.5461864471435547
1702063353866317000,8.286317138671874,-1.7449800968170166,1.73466157913208,1.955190658569336
1702063353883310300,8.303310302734374,-2.4098060131073,1.158243179321289,0.8915271759033203
1702063353900304100,8.32030419921875,-2.579925537109375,0.6799852848052979,0.0024547576904296875
1702063353917297400,8.33729736328125,-2.2894232273101807,0.4270343780517578,-0.5650615692138672
1702063353934291500,8.35429150390625,-2.019829511642456,0.263657808303833,-0.5991315841674805
1702063353951284500,8.371284423828126,-2.233069658279419,0.1327831745147705,-0.31052207946777344
1702063353968268000,8.38826806640625,-2.3434832096099854,0.17081880569458008,-0.09169960021972656
1702063353985271800,8.405271728515626,-2.7833151817321777,0.38459014892578125,0.1846914291381836
1702063354002266000,8.42226611328125,-2.680795431137085,0.8069906234741211,0.15167999267578125
1702063354019249400,8.43924951171875,-2.198131561279297,1.0060832500457764,0.27808094024658203
1702063354036253400,8.45625341796875,-1.202888011932373,1.0487489700317383,0.5535612106323242
1702063354053241000,8.473240966796874,-0.28522610664367676,0.8264200687408447,0.8143043518066406
1702063354070240500,8.490240478515625,0.37930750846862793,0.4477255344390869,0.9655570983886719
1702063354087233800,8.50723388671875,0.7898240089416504,0.33431220054626465,1.0985536575317383
1702063354104227800,8.524227783203125,0.6455874443054199,0.4207267761230469,1.3385725021362305
1702063354121220900,8.541220947265625,0.10622525215148926,0.4683074951171875,1.5722436904907227
1702063354138215000,8.55821484375,-0.5422096252441406,0.34480857849121094,1.606654167175293
1702063354155208200,8.575208251953125,-1.0958771705627441,0.13971853256225586,1.4749393463134766
1702063354172202200,8.5922021484375,-1.4109537601470947,0.08648157119750977,0.9477767944335938
1702063354189195500,8.609195556640625,-1.2336266040802002,0.22663354873657227,0.2575540542602539
1702063354206189800,8.62618994140625,-1.015311360359192,0.4677588939666748,-0.0250244140625
1702063354223183000,8.64318310546875,-0.8697652816772461,0.8199138641357422,0.14620590209960938
1702063354240175900,8.66017578125,-0.8398517370223999,1.007096290588379,0.3963785171508789
1702063354257168000,8.67716796875,-0.8528105020523071,0.980471134185791,0.42804813385009766
1702063354274156000,8.694156005859375,-0.6033943891525269,0.9317846298217773,0.04156494140625
1702063354291141000,8.71114111328125,-0.2837260961532593,0.8624851703643799,-0.34481048583984375
1702063354308151300,8.7281513671875,0.16031241416931152,0.7306973934173584,-0.5215072631835938
1702063354325141800,8.745141845703126,0.34579408168792725,0.5090343952178955,-0.4917621612548828
1702063354342132500,8.762132568359375,0.4170800447463989,0.24388885498046875,-0.5389575958251953
1702063354359131600,8.779131591796874,0.3559345602989197,-0.05159330368041992,-0.5836000442504883
1702063354376126000,8.7961259765625,0.14851194620132446,-0.23729610443115234,-0.6576786041259766
1702063354393119000,8.813118896484376,0.32302629947662354,-0.37534666061401367,-0.9520120620727539
1702063354410110500,8.8301103515625,0.41465461254119873,-0.5568115711212158,-1.4128713607788086
1702063354427108900,8.84710888671875,0.6392297744750977,-0.865680456161499,-1.6396102905273438
1702063354444100400,8.864100341796876,0.8133217096328735,-1.3521504402160645,-1.6094379425048828
1702063354461093400,8.88109326171875,0.8976361155509949,-1.9151828289031982,-1.5410528182983398
1702063354478087700,8.898087646484376,0.664242148399353,-2.263439416885376,-1.2261381149291992
1702063354495080200,8.915080078125,0.2330465316772461,-2.2817020416259766,-1.2080459594726562
1702063354512075500,8.932075439453126,-0.43740177154541016,-2.357830286026001,-1.4948863983154297
1702063354529071400,8.9490712890625,-1.0894341468811035,-2.606578826904297,-1.6958541870117188
1702063354546059800,8.966059814453125,-1.4277498722076416,-2.943983554840088,-1.5372142791748047
1702063354563057700,8.9830576171875,-1.4381439685821533,-3.2777516841888428,-1.262908935546875
1702063354580049400,9.00004931640625,-1.6653614044189453,-3.648686170578003,-0.8832597732543945
1702063354597042400,9.01704248046875,-2.062121868133545,-3.827423572540283,-0.862706184387207
1702063354614036500,9.034036376953125,-2.39042329788208,-3.92850399017334,-1.1367435455322266
1702063354631022000,9.05102197265625,-2.6015706062316895,-4.192378997802734,-1.3124732971191406
1702063354648026600,9.068026611328126,-2.6370913982391357,-4.428216457366943,-1.3177728652954102
1702063354665016800,9.085016845703125,-2.4103658199310303,-4.688681125640869,-1.0801563262939453
1702063354682011100,9.10201123046875,-2.205780267715454,-4.760379791259766,-1.0649356842041016
1702063354699004200,9.119004150390625,-1.727208137512207,-4.6909685134887695,-1.3935747146606445
1702063354715991600,9.135991455078125,-1.3406267166137695,-4.741278171539307,-1.6649055480957031
1702063354732991500,9.152991455078125,-0.566966712474823,-4.879673957824707,-1.737884521484375
1702063354749985500,9.169985595703125,0.5656260848045349,-5.0501813888549805,-1.6222286224365234
1702063354766978600,9.186978515625,1.3063803911209106,-5.435700416564941,-1.1890296936035156
1702063354783972900,9.203972900390625,1.1661001443862915,-6.1765241622924805,-0.8852224349975586
1702063354800966000,9.2209658203125,0.9065437316894531,-7.127364158630371,-1.2332429885864258
1702063354817960200,9.237960205078124,0.12937995791435242,-7.741554260253906,-1.6828231811523438
1702063354834953200,9.254953125,-1.5621049404144287,-7.951258659362793,-1.545166015625
1702063354851947800,9.27194775390625,-2.903095006942749,-7.871869087219238,-0.8301210403442383
1702063354868940500,9.2889404296875,-3.537670850753784,-7.367738723754883,-0.06573104858398438
1702063354885934600,9.3059345703125,-3.6298389434814453,-6.785584926605225,0.24921321868896484
1702063354902928000,9.322927978515626,-3.0570359230041504,-6.298954010009766,0.4166860580444336
1702063354919922000,9.339921875,-2.2680230140686035,-6.027509689331055,0.9557390213012695
1702063354936915000,9.3569150390625,-1.8828853368759155,-6.034771919250488,2.228074073791504
1702063354953910300,9.37391015625,-2.0909130573272705,-6.170083045959473,2.9121713638305664
1702063354970901000,9.39090087890625,-1.7528672218322754,-6.634134769439697,2.0556764602661133
1702063354987882800,9.4078828125,-0.649358868598938,-6.850516319274902,0.6066188812255859
1702063355004889600,9.4248896484375,0.047864705324172974,-6.833423614501953,-0.03603172302246094
1702063355021880800,9.441880859375,0.03363734483718872,-7.002306938171387,-0.4714021682739258
1702063355038879200,9.458879150390626,0.07817155122756958,-7.52792501449585,-0.5921010971069336
1702063355055871000,9.47587109375,-0.16273373365402222,-8.117355346679688,0.6708917617797852
1702063355072864000,9.492864013671875,-1.3223475217819214,-8.012237548828125,2.2371740341186523
1702063355089847800,9.509847900390625,-1.9704594612121582,-7.724895477294922,3.21909236907959
1702063355106851300,9.526851318359375,-1.9145489931106567,-7.174588203430176,3.7099609375
1702063355123845400,9.543845458984375,-1.9199323654174805,-6.732550621032715,4.3733110427856445
1702063355140838400,9.56083837890625,-1.8199868202209473,-6.428487300872803,4.8947553634643555
1702063355157832700,9.577832763671875,-2.1526689529418945,-6.501057147979736,5.421140670776367
1702063355174825700,9.59482568359375,-2.4339637756347656,-6.793557643890381,5.204999923706055
1702063355191809800,9.611809814453125,-2.462019681930542,-7.12583065032959,4.1932525634765625
1702063355208813300,9.628813232421875,-2.6480767726898193,-7.6666998863220215,2.879596710205078
1702063355225797600,9.645797607421875,-2.540393114089966,-7.931034088134766,1.3730945587158203
1702063355242803200,9.66280322265625,-2.0458803176879883,-7.939971446990967,0.44770050048828125
1702063355259794200,9.679794189453125,-1.486952781677246,-7.6429548263549805,0.14953136444091797
1702063355276787500,9.696787353515624,-1.1211645603179932,-7.267477035522461,0.2367238998413086
1702063355293781500,9.713781494140624,-0.9742119312286377,-7.188047409057617,0.5567598342895508
1702063355310774800,9.73077490234375,-1.3456151485443115,-7.472972869873047,0.5668220520019531
1702063355327768800,9.747768798828124,-1.71407151222229,-7.499240875244141,0.1026296615600586
1702063355344761900,9.764761962890624,-1.99080228805542,-7.125306129455566,-0.36124420166015625
1702063355361756200,9.781756103515624,-1.8739277124404907,-6.515396595001221,-0.45827388763427734
1702063355378749200,9.798749267578126,-1.3829426765441895,-6.012076377868652,-0.42368125915527344
1702063355395745000,9.8157451171875,-0.7775471806526184,-5.868302345275879,-0.48604297637939453
1702063355412733000,9.83273291015625,-0.500988781452179,-5.375476837158203,-0.9401311874389648
1702063355429732400,9.849732421875,-0.8464229106903076,-4.943967342376709,-1.8372316360473633
1702063355446723600,9.8667236328125,-1.4125406742095947,-4.758296966552734,-2.3637313842773438
1702063355463725300,9.883725341796875,-2.2904398441314697,-4.636205673217773,-2.0765480995178223
1702063355480711000,9.9007109375,-2.843266725540161,-4.463315963745117,-1.597020149230957
1702063355497705200,9.917705322265626,-2.1549901962280273,-4.315899848937988,-1.3185758590698242
1702063355514698200,9.9346982421875,-1.1264686584472656,-4.011920928955078,-1.171372413635254
1702063355531692300,9.9516923828125,-0.30713796615600586,-3.726189374923706,-1.101058006286621
1702063355548685300,9.968685302734375,-0.040725916624069214,-3.4097132682800293,-0.8411884307861328
1702063355565679600,9.9856796875,-0.12229333817958832,-2.847191333770752,-0.9531764984130859
1702063355582672600,10.002672607421875,0.15623682737350464,-2.67276668548584,-1.354074478149414
1702063355599667000,10.0196669921875,0.5749258399009705,-2.8667829036712646,-1.6208515167236328
1702063355616659700,10.03665966796875,1.1990561485290527,-2.898080825805664,-1.9618339538574219
1702063355633654300,10.053654296875,1.8299999237060547,-2.456915855407715,-1.9596281051635742
1702063355650647000,10.07064697265625,1.7003483772277832,-1.8442437648773193,-1.5276498794555664
1702063355667641600,10.0876416015625,1.466780662536621,-1.4092354774475098,-1.3707656860351562
1702063355684634400,10.10463427734375,0.9475430250167847,-1.3065999746322632,-1.5816307067871094
1702063355701628700,10.121628662109375,0.5870193839073181,-1.1798529624938965,-1.9000215530395508
1702063355718621700,10.13862158203125,0.18484824895858765,-1.0199590921401978,-2.038088798522949
1702063355735615700,10.15561572265625,0.034467071294784546,-0.831458330154419,-1.8145465850830078
1702063355752608800,10.17260888671875,0.13796359300613403,-0.6584115028381348,-0.7846307754516602
1702063355769603000,10.18960302734375,0.05554485321044922,-0.39203643798828125,0.4881143569946289
1702063355786596000,10.20659619140625,0.42485368251800537,-0.2678046226501465,0.7046680450439453
1702063355803587300,10.22358740234375,1.0717113018035889,-0.05513572692871094,-0.09051895141601562
1702063355820583200,10.240583251953124,1.2887547016143799,0.20275092124938965,-0.8796205520629883
1702063355837577500,10.257577392578124,1.2544296979904175,0.4358696937561035,-0.9895906448364258
1702063355854570800,10.27457080078125,0.8030469417572021,0.683847188949585,-0.3657054901123047
1702063355871564800,10.291564697265626,0.025164484977722168,0.9053182601928711,0.3884439468383789
1702063355888557800,10.308557861328126,-0.6555205583572388,0.8375961780548096,0.37700843811035156
1702063355905541400,10.325541259765625,-0.909546971321106,0.671966552734375,-0.4814453125
1702063355922545400,10.34254541015625,-0.5422134399414062,0.49609947204589844,-1.1428017616271973
1702063355939539500,10.35953955078125,-0.11326146125793457,0.36986660957336426,-1.0218219757080078
1702063355956532200,10.3765322265625,0.5097121000289917,0.535973072052002,-0.24798965454101562
1702063355973526500,10.393526611328125,0.5396096706390381,0.645026683807373,0.9481945037841797
1702063355990519600,10.41051953125,0.10046923160552979,0.4078531265258789,1.6033868789672852
1702063356007513900,10.427513916015625,-0.3213202953338623,0.26972126960754395,1.355478286743164
1702063356024507000,10.4445068359375,-0.516406774520874,0.40508484840393066,1.1898422241210938
1702063356041501200,10.461501220703125,-0.366039514541626,0.4875495433807373,1.5543642044067383
1702063356058494000,10.478493896484375,0.3455996513366699,0.5835299491882324,2.164522171020508
1702063356075478300,10.495478271484375,0.8006081581115723,0.19362902641296387,3.31174373626709
1702063356092481500,10.5124814453125,0.5891101360321045,-0.18774151802062988,3.5986852645874023
1702063356109487400,10.5294873046875,0.12353110313415527,0.2582566738128662,2.366525650024414
1702063356126468600,10.546468505859375,-0.7364096641540527,0.6232950687408447,1.1710176467895508
1702063356143463000,10.563462890625,-1.2515969276428223,0.7626762390136719,0.9055099487304688
1702063356160455700,10.58045556640625,-1.011061668395996,0.7151076793670654,1.7116689682006836
1702063356177450000,10.597449951171875,-0.03191661834716797,0.2771756649017334,2.701406478881836
1702063356194443000,10.614443115234375,0.9688539505004883,0.9534392356872559,2.3308544158935547
1702063356211435800,10.631435791015624,0.7023820877075195,1.964003086090088,1.3728551864624023
1702063356228430300,10.648430419921874,-0.28618884086608887,2.127917528152466,0.49643611907958984
1702063356245416400,10.66541650390625,-1.0634655952453613,1.63320791721344,0.3371419906616211
1702063356262417700,10.682417724609374,-0.8588168621063232,1.287142276763916,1.0304069519042969
1702063356279412000,10.699411865234374,0.03213930130004883,1.1910474300384521,1.7143926620483398
1702063356296404700,10.71640478515625,0.9727258682250977,1.138432502746582,1.905644416809082
1702063356313398800,10.733398681640624,1.9114816188812256,1.071404218673706,1.8791217803955078
1702063356330390800,10.750390869140626,2.4942002296447754,1.001094102859497,1.8292016983032227
1702063356347387600,10.7673876953125,2.618849277496338,0.9961643218994141,1.739974021911621
1702063356364379100,10.784379150390626,2.2583510875701904,0.9983413219451904,1.5191755294799805
1702063356381373400,10.80137353515625,1.466956615447998,0.7813091278076172,1.5892667770385742
1702063356398366500,10.818366455078126,0.6355348825454712,0.698153018951416,1.750349998474121
1702063356415360500,10.835360595703126,0.3859274387359619,0.8417582511901855,1.8811969757080078
1702063356432336000,10.8523359375,0.516731858253479,1.0870027542114258,1.821333885192871
1702063356449347800,10.869347900390625,0.8670358657836914,1.2616665363311768,1.6119165420532227
1702063356466341000,10.886341064453125,0.9222631454467773,1.3610267639160156,1.3741483688354492
1702063356483337000,10.9033369140625,0.616713285446167,1.3199987411499023,1.6416234970092773
1702063356500326700,10.92032666015625,0.0457080602645874,1.0344133377075195,1.7565670013427734
1702063356517313800,10.937313720703125,-0.8456193208694458,0.9228096008300781,1.3180103302001953
1702063356534315500,10.9543154296875,-0.8250333070755005,0.742523193359375,0.9113235473632812
1702063356551309600,10.9713095703125,-0.45154500007629395,0.5859284400939941,0.5894565582275391
1702063356568302600,10.988302490234375,0.11191725730895996,0.3653404712677002,0.2603635787963867
1702063356585297000,11.005296875,0.4211372137069702,0.08357548713684082,0.06409263610839844
1702063356602290000,11.0222900390625,0.42501121759414673,-0.1292409896850586,0.010054588317871094
1702063356619284000,11.039283935546875,0.12762373685836792,-0.2867391109466553,0.15241050720214844
1702063356636274400,11.0562744140625,-0.29348617792129517,-0.48233795166015625,0.1798095703125
1702063356653276200,11.073276123046876,-0.5209128856658936,-0.6602656841278076,-0.1475839614868164
1702063356670267600,11.090267578125,-0.09635394811630249,-0.7484896183013916,-0.4598245620727539
1702063356687259000,11.1072587890625,0.07727375626564026,-0.8136115074157715,-0.7763891220092773
1702063356704238600,11.124238525390625,-0.16761210560798645,-1.030418872833252,-0.9115104675292969
1702063356721248500,11.14124853515625,-0.5569589734077454,-1.265116572380066,-0.8898067474365234
1702063356738239000,11.158239013671874,-0.9971593022346497,-1.5324510335922241,-0.9375419616699219
1702063356755233000,11.17523291015625,-1.3107763528823853,-1.8665618896484375,-1.1277189254760742
1702063356772226000,11.19222607421875,-1.388584017753601,-2.1311726570129395,-1.2721939086914062
1702063356789220400,11.209220458984374,-1.521914005279541,-2.179286479949951,-1.5209665298461914
1702063356806213600,11.226213623046876,-1.4138981103897095,-2.2207114696502686,-1.7362470626831055
1702063356823207400,11.24320751953125,-1.1913684606552124,-2.408890724182129,-1.7172489166259766
1702063356840200700,11.26020068359375,-1.0600420236587524,-2.628513813018799,-1.5191926956176758
1702063356857194800,11.27719482421875,-0.9485958814620972,-2.9680447578430176,-1.4398155212402344
1702063356874188000,11.29418798828125,-0.7701305150985718,-3.102978467941284,-1.9737462997436523
1702063356891182000,11.31118212890625,-0.5290446281433105,-3.073171377182007,-2.443450927734375
1702063356908175000,11.328175048828125,-0.36427974700927734,-3.0285162925720215,-2.4766693115234375
1702063356925169200,11.345169189453125,-0.26258283853530884,-3.218836784362793,-2.306525230407715
1702063356942162400,11.362162353515625,0.02727377414703369,-3.5895965099334717,-2.0792160034179688
1702063356959156500,11.379156494140625,0.15038633346557617,-3.7570085525512695,-2.2916173934936523
1702063356976149500,11.3961494140625,0.02944660186767578,-4.225213527679443,-2.336369514465332
1702063356993143800,11.413143798828125,-0.2681926488876343,-4.7059855461120605,-2.1041736602783203
1702063357010136800,11.43013671875,-0.8066596984863281,-5.138625144958496,-1.7907438278198242
1702063357027120600,11.44712060546875,-1.1057647466659546,-5.551855564117432,-1.653325080871582
1702063357044113200,11.464113037109374,-1.3428651094436646,-5.832797050476074,-1.6227712631225586
1702063357061118200,11.4811181640625,-1.7767963409423828,-6.056521415710449,-1.3204717636108398
1702063357078101000,11.49810107421875,-1.6043508052825928,-5.941022872924805,-1.1203336715698242
1702063357095105300,11.515105224609375,-1.3773813247680664,-5.547637939453125,-1.066915512084961
1702063357112098600,11.5320986328125,-1.2110188007354736,-5.153242111206055,-0.7762594223022461
1702063357129092600,11.549092529296875,-1.4353430271148682,-4.972315788269043,-0.6572284698486328
1702063357146086000,11.5660859375,-1.6662182807922363,-5.2387895584106445,-0.9435234069824219
1702063357163080000,11.583079833984375,-1.8287557363510132,-5.560693740844727,-1.184946060180664
1702063357180073000,11.600072998046874,-2.2524871826171875,-5.653975963592529,-0.6101980209350586
1702063357197067300,11.6170673828125,-2.3282456398010254,-5.9121856689453125,0.10934638977050781
1702063357214060300,11.634060302734374,-1.8567042350769043,-6.942778587341309,0.8259477615356445
1702063357231054300,11.651054443359374,-0.5775448083877563,-7.602294921875,0.5747156143188477
1702063357248047600,11.668047607421874,-0.29313933849334717,-7.051116466522217,-0.6461391448974609
1702063357265041400,11.68504150390625,-0.5132333636283875,-6.307591438293457,-1.5968084335327148
1702063357282035200,11.70203515625,-1.0566755533218384,-6.728442192077637,-0.9291744232177734
1702063357299018800,11.719018798828126,-1.1598416566848755,-6.979659080505371,0.5231075286865234
1702063357316022000,11.73602197265625,-0.7263345122337341,-6.743927478790283,2.0958080291748047
1702063357333013500,11.753013427734375,-0.619207501411438,-6.288273334503174,4.032187461853027
1702063357350012000,11.770011962890624,-1.466125726699829,-5.997927665710449,6.127265930175781
1702063357367003400,11.78700341796875,-2.0293943881988525,-6.174173355102539,6.853305816650391
1702063357383993900,11.803993896484375,-2.755129337310791,-6.189118385314941,6.251918792724609
1702063357400993300,11.8209931640625,-2.669584035873413,-6.161855220794678,5.147156715393066
1702063357417983500,11.8379833984375,-2.3734381198883057,-6.408882141113281,4.152298927307129
1702063357434967300,11.85496728515625,-1.7195603847503662,-6.6977081298828125,3.2978458404541016
1702063357451970800,11.871970703125,-1.1644043922424316,-6.9285688400268555,2.3473873138427734
1702063357468965000,11.888965087890625,-0.5695960521697998,-7.062363624572754,1.7961320877075195
1702063357485957400,11.905957275390625,-0.9342991709709167,-6.935894012451172,1.6622638702392578
1702063357502953200,11.922953125,-1.9458928108215332,-6.518955230712891,1.0618963241577148
1702063357519952000,11.939951904296874,-2.9813618659973145,-6.238400936126709,0.20921707153320312
1702063357536939500,11.956939453125,-3.9050097465515137,-6.16898250579834,-0.5547542572021484
1702063357553932500,11.9739326171875,-3.6361756324768066,-6.140786647796631,-0.9984617233276367
1702063357570926800,11.9909267578125,-2.8311657905578613,-6.069022178649902,-1.094482421875
1702063357587920000,12.007919921875,-2.324833869934082,-5.878689765930176,-1.5652399063110352
1702063357604914200,12.0249140625,-2.2020559310913086,-5.866587162017822,-2.1962227821350098
1702063357621907000,12.041906982421875,-1.96577787399292,-5.7842936515808105,-3.028055191040039
1702063357638901200,12.0589013671875,-1.477600336074829,-5.715498924255371,-3.2378129959106445
1702063357655894300,12.075894287109374,-1.2192424535751343,-5.277671813964844,-2.646270751953125
1702063357672888300,12.092888427734374,-1.3764206171035767,-4.670269966125488,-1.7921562194824219
1702063357689881600,12.109881591796874,-1.2506400346755981,-4.327011585235596,-1.1500654220581055
1702063357706865700,12.12686572265625,-0.915364682674408,-4.185218811035156,-0.9160690307617188
1702063357723868700,12.14386865234375,-0.4700339436531067,-3.9511992931365967,-0.957575798034668
1702063357740860200,12.160860107421875,-0.25460994243621826,-3.572981357574463,-1.2112770080566406
1702063357757856000,12.17785595703125,-0.15769743919372559,-3.0495996475219727,-1.5430631637573242
1702063357774842000,12.194842041015624,-0.27437812089920044,-2.785055160522461,-1.3243961334228516
1702063357791843000,12.211843017578126,-0.8573082685470581,-2.4134581089019775,-0.718358039855957
1702063357808837400,12.22883740234375,-1.3815538883209229,-2.0193333625793457,-0.34137630462646484
1702063357825826300,12.245826416015625,-1.71848726272583,-1.69660484790802,-0.4067087173461914
1702063357842828500,12.26282861328125,-1.7280197143554688,-1.4176301956176758,-0.9052581787109375
1702063357859817500,12.2798173828125,-1.213618516921997,-1.3111850023269653,-1.3288679122924805
1702063357876811800,12.296811767578125,-0.48185357451438904,-1.2583134174346924,-1.4280204772949219
1702063357893805000,12.31380517578125,-0.09360933303833008,-1.3048584461212158,-0.9971837997436523
1702063357910800400,12.33080029296875,-0.1400253176689148,-1.2259907722473145,-0.6216230392456055
1702063357927790800,12.347790771484375,-0.3701555132865906,-1.2034797668457031,-0.693634033203125
1702063357944786400,12.364786376953125,-0.48865699768066406,-1.129948616027832,-1.1805543899536133
1702063357961779500,12.381779541015625,-0.3302983045578003,-0.9525737762451172,-1.5518465042114258
1702063357978771500,12.398771484375,0.04064077138900757,-0.8037858009338379,-1.5763068199157715
1702063357995768800,12.415768798828125,0.5346519947052002,-0.7130985260009766,-1.3198537826538086
1702063358012760800,12.4327607421875,1.1117465496063232,-0.6688284873962402,-0.8472709655761719
1702063358029753900,12.44975390625,1.424790620803833,-0.5107166767120361,-0.35555076599121094
1702063358046748200,12.466748046875,1.443365216255188,-0.17513465881347656,-0.39365482330322266
1702063358063741000,12.483740966796875,1.1939964294433594,0.04208660125732422,-0.6571435928344727
1702063358080735200,12.5007353515625,0.8908608555793762,0.07613444328308105,-0.9837102890014648
1702063358097728300,12.517728271484375,0.7546191215515137,0.1935415267944336,-1.2696905136108398
1702063358114722600,12.53472265625,0.8269937038421631,0.05424356460571289,-1.0342531204223633
1702063358131715600,12.551715576171874,1.0983788967132568,-0.023409605026245117,-0.4338836669921875
1702063358148707000,12.56870703125,1.3146183490753174,-0.0032029151916503906,0.04746437072753906
1702063358165705500,12.58570556640625,1.4857614040374756,0.031350135803222656,0.33490657806396484
1702063358182697000,12.602697021484374,1.3638900518417358,0.06184864044189453,0.16042137145996094
1702063358199690000,12.61968994140625,1.3213791847229004,-0.0654149055480957,-0.09070205688476562
1702063358216671200,12.636671142578125,1.4638110399246216,-0.2295379638671875,-0.18065261840820312
1702063358233674800,12.6536748046875,1.7264955043792725,-0.20304036140441895,0.06714439392089844
1702063358250669800,12.670669921875,1.9033184051513672,-0.015554189682006836,0.5899896621704102
1702063358267666000,12.687666015625,1.901448369026184,0.20474457740783691,0.7552175521850586
1702063358284661500,12.70466162109375,2.0069191455841064,0.5013365745544434,0.6071004867553711
1702063358301651700,12.721651611328125,1.9859784841537476,0.6262698173522949,0.5764036178588867
1702063358318645800,12.738645751953126,2.0268707275390625,0.5200071334838867,0.5204544067382812
1702063358335638800,12.755638671875,1.7386329174041748,0.25054264068603516,1.3230609893798828
1702063358352633000,12.772633056640625,1.3417234420776367,0.3182833194732666,2.0956811904907227
1702063358369625300,12.789625244140625,0.8723056316375732,0.40174436569213867,2.4058380126953125
1702063358386610400,12.8066103515625,0.7316324710845947,0.679603099822998,1.9235858917236328
1702063358403600600,12.8236005859375,0.9184589385986328,0.7912545204162598,1.389021873474121
1702063358420601900,12.840601806640626,1.0196399688720703,0.5719494819641113,1.3431577682495117
1702063358437600800,12.857600830078125,0.9268271923065186,0.404695987701416,1.8130159378051758
1702063358454592300,12.87459228515625,0.43869495391845703,0.33092188835144043,2.3085880279541016
1702063358471590400,12.89159033203125,-0.018364906311035156,0.48401570320129395,2.224453926086426
1702063358488582400,12.90858251953125,-0.22311758995056152,0.658210277557373,1.9086313247680664
1702063358505565000,12.92556494140625,-0.09072041511535645,0.795579195022583,1.7621879577636719
1702063358522569500,12.942569580078125,0.6523373126983643,1.1996979713439941,1.7993793487548828
1702063358539559700,12.9595595703125,1.2747325897216797,1.5860624313354492,2.3866748809814453
1702063358556565800,12.976565673828125,1.4645673036575317,2.089517593383789,2.674428939819336
1702063358573536800,12.993536865234375,1.3196959495544434,2.3111698627471924,2.6252431869506836
1702063358590546200,13.010546142578125,0.8668718338012695,2.3362460136413574,2.4922266006469727
1702063358607537000,13.027536865234374,0.5576375722885132,2.230299949645996,2.531773567199707
1702063358624531000,13.044531005859374,0.8294627666473389,2.048689603805542,2.5991125106811523
1702063358641524000,13.06152392578125,1.114638090133667,1.806469440460205,2.868924140930176
1702063358658518000,13.07851806640625,1.5028656721115112,1.697373390197754,2.895549774169922
1702063358675511300,13.09551123046875,1.5692718029022217,1.7996032238006592,2.8078746795654297
1702063358692503300,13.11250341796875,1.2324796915054321,1.8774871826171875,2.876659393310547
1702063358709490200,13.129490234375,0.9127705097198486,1.9687442779541016,2.7897377014160156
1702063358726492400,13.146492431640626,0.6723383665084839,1.9533228874206543,2.641402244567871
1702063358743485700,13.163485595703126,0.5550446510314941,1.8245670795440674,2.3796491622924805
1702063358760479700,13.180479736328126,0.768268346786499,1.6196069717407227,1.9116830825805664
1702063358777473000,13.19747314453125,0.9611120820045471,1.3595008850097656,1.2806501388549805
1702063358794464500,13.214464599609375,1.4043582677841187,1.1464486122131348,0.7634382247924805
1702063358811462400,13.23146240234375,2.0046536922454834,0.9933276176452637,0.3878927230834961
1702063358828446500,13.248446533203126,2.4084396362304688,0.8963453769683838,0.5628681182861328
1702063358845447400,13.265447509765625,1.9717073440551758,0.45626068115234375,1.2074575424194336
1702063358862441500,13.28244140625,1.1286259889602661,-0.17339372634887695,1.0781478881835938
1702063358879434500,13.2994345703125,0.4875936806201935,-0.45019102096557617,0.19302845001220703
1702063358896428500,13.316428466796875,-0.03576630353927612,-0.5667469501495361,-0.5565786361694336
1702063358913421800,13.333421875,-0.21928608417510986,-0.5217692852020264,-0.8202552795410156
1702063358930413300,13.350413330078124,-0.41570791602134705,-0.5392007827758789,-0.702906608581543
1702063358947411700,13.36741162109375,-0.5969258546829224,-0.6441564559936523,-0.6515159606933594
1702063358964403000,13.38440283203125,-0.6335150003433228,-0.6691474914550781,-0.6944284439086914
1702063358981396200,13.401396240234375,-0.5046526193618774,-0.7830760478973389,-0.8224458694458008
1702063358998390500,13.418390625,-0.3771509826183319,-0.8629114627838135,-0.9370059967041016
1702063359015383300,13.43538330078125,-0.5700869560241699,-1.058011531829834,-1.0431909561157227
1702063359032377600,13.452377685546875,-0.8064637780189514,-1.305345058441162,-1.2524604797363281
1702063359049370600,13.46937060546875,-0.7198883295059204,-1.4851884841918945,-1.4607429504394531
1702063359066365000,13.486364990234375,-0.18599474430084229,-1.7893147468566895,-1.612649917602539
1702063359083358000,13.50335791015625,0.7449115514755249,-2.105682134628296,-1.7216029167175293
1702063359100352000,13.52035205078125,1.297666072845459,-2.358783483505249,-1.9070663452148438
1702063359117345000,13.537344970703124,1.2796416282653809,-2.7876498699188232,-2.113801956176758
1702063359134339300,13.55433935546875,0.6942116022109985,-3.2262256145477295,-2.380250930786133
1702063359151332400,13.571332275390626,-0.06186103820800781,-3.494351625442505,-2.5960464477539062
1702063359168326400,13.588326416015626,-0.4323236346244812,-3.4447460174560547,-3.0061025619506836
1702063359185319700,13.605319580078126,-0.529489278793335,-3.1700048446655273,-3.4846763610839844
1702063359202313700,13.622313720703126,-0.6111099720001221,-3.0064191818237305,-3.6552577018737793
1702063359219318800,13.63931884765625,-0.907443642616272,-2.999152421951294,-3.5733723640441895
1702063359236290300,13.656290283203125,-1.0542457103729248,-3.0563244819641113,-3.109750747680664
1702063359253294000,13.673294189453125,-1.464430570602417,-3.0575530529022217,-2.749937057495117
1702063359270288100,13.6902880859375,-1.951073408126831,-3.201035499572754,-2.414976119995117
1702063359287281200,13.70728125,-2.2230331897735596,-3.39894437789917,-2.3516688346862793
1702063359304275700,13.724275634765625,-2.2870497703552246,-3.687011957168579,-2.1519031524658203
1702063359321268700,13.741268798828125,-1.8962985277175903,-3.8752593994140625,-1.8155722618103027
1702063359338262300,13.75826220703125,-1.5454401969909668,-3.9348108768463135,-1.4453859329223633
1702063359355255600,13.775255615234375,-1.3286993503570557,-4.400453090667725,-0.6860074996948242
1702063359372249900,13.792249755859375,-1.5301456451416016,-4.696345806121826,0.2605476379394531
1702063359389243000,13.809242919921875,-1.6973600387573242,-4.651906490325928,1.055008888244629
1702063359406237200,13.8262373046875,-1.9815359115600586,-4.5189104080200195,1.0526037216186523
1702063359423230000,13.84322998046875,-1.9575003385543823,-4.834216117858887,0.47641754150390625
1702063359440224300,13.860224365234375,-1.5174869298934937,-5.096335411071777,-0.08339405059814453
1702063359457217300,13.87721728515625,-0.6531748175621033,-5.6854753494262695,-0.38864994049072266
1702063359474211600,13.894211669921875,0.3177514672279358,-6.070649147033691,-0.7484951019287109
1702063359491204600,13.91120458984375,0.3457593321800232,-6.111900806427002,-0.7156295776367188
1702063359508198700,13.92819873046875,-0.7763911485671997,-6.147902488708496,-0.06722164154052734
1702063359525191700,13.945191650390624,-2.3472115993499756,-6.0259809494018555,0.2044515609741211
1702063359542186000,13.96218603515625,-2.666046380996704,-5.69908332824707,-0.1888895034790039
1702063359559179000,13.979178955078124,-2.015716314315796,-5.530877113342285,-0.19619369506835938
1702063359576173000,13.996173095703124,-1.0670350790023804,-5.593634128570557,1.3566217422485352
1702063359593155800,14.01315576171875,-1.042832851409912,-5.588715553283691,4.234582901000977
1702063359610160400,14.030160400390624,-1.6114089488983154,-5.165371417999268,5.702228546142578
1702063359627151000,14.047151123046875,-2.7936010360717773,-4.862354278564453,4.376364707946777
1702063359644150000,14.06414990234375,-3.058073043823242,-4.962132930755615,1.9743232727050781
1702063359661140700,14.081140625,-1.5825848579406738,-5.578645706176758,0.6823759078979492
1702063359678134800,14.098134765625,0.2997373938560486,-5.940802097320557,1.258697509765625
1702063359695128000,14.115128173828126,0.579778254032135,-5.673076629638672,2.6642894744873047
1702063359712119600,14.13211962890625,-0.5343352556228638,-5.552517890930176,3.3317432403564453
1702063359729117700,14.14911767578125,-2.3778719902038574,-5.695095062255859,3.075394630432129
1702063359746109400,14.166109375,-3.3946571350097656,-5.8058061599731445,2.5060014724731445
1702063359763102200,14.183102294921875,-3.4235401153564453,-5.787257671356201,1.587834358215332
1702063359780096500,14.200096435546875,-2.5006351470947266,-5.7153000831604,0.5799026489257812
1702063359797089500,14.217089599609375,-1.4474350214004517,-5.7093825340271,0.10014629364013672
1702063359814083600,14.23408349609375,-0.9843912720680237,-5.735647201538086,0.2598590850830078
1702063359831076900,14.251076904296875,-1.099003791809082,-5.937882423400879,0.7041912078857422
1702063359848071000,14.26807080078125,-1.4416993856430054,-5.853522777557373,0.7757682800292969
1702063359865064000,14.28506396484375,-1.8053971529006958,-5.481059551239014,0.2487163543701172
1702063359882058000,14.30205810546875,-1.883634328842163,-5.280426979064941,-0.5189609527587891
1702063359899051300,14.31905126953125,-1.5991325378417969,-5.085465431213379,-1.1263017654418945
1702063359916045300,14.33604541015625,-0.9622565507888794,-5.040027141571045,-1.2744159698486328
1702063359933038300,14.353038330078125,-0.8079139590263367,-4.933496475219727,-1.1980648040771484
1702063359950032600,14.37003271484375,-1.1631965637207031,-4.636964797973633,-1.1480350494384766
1702063359967025700,14.387025634765624,-1.6088908910751343,-4.165522575378418,-1.0548009872436523
1702063359984019700,14.404019775390625,-1.9646233320236206,-3.840823173522949,-1.1841516494750977
1702063360001013000,14.421012939453124,-1.981107234954834,-3.6601943969726562,-1.5094528198242188
1702063360018007000,14.438007080078124,-1.4445350170135498,-3.4518537521362305,-1.7372732162475586
1702063360035000000,14.455,-0.5849913358688354,-3.095405101776123,-1.8906002044677734
1702063360051994400,14.471994384765624,-0.09579840302467346,-2.7856452465057373,-1.8855113983154297
1702063360068987000,14.48898681640625,0.07501931488513947,-2.5936288833618164,-1.731027603149414
1702063360085985000,14.505985107421875,0.0007844865322113037,-2.4626598358154297,-1.4974288940429688
1702063360102971600,14.5229716796875,-0.06437161564826965,-2.3138985633850098,-1.5389060974121094
1702063360119968800,14.53996875,0.1818975806236267,-2.2052910327911377,-1.7725563049316406
1702063360136961500,14.55696142578125,0.48404714465141296,-2.0336110591888428,-2.078650951385498
1702063360153955800,14.573955810546876,0.756140947341919,-1.8115932941436768,-2.1915998458862305
1702063360170956800,14.590956787109375,0.7428848147392273,-1.4999303817749023,-1.96077299118042
1702063360187943200,14.607943115234375,0.4690711498260498,-1.186373233795166,-1.784672737121582
1702063360204936200,14.624936279296875,0.2852058410644531,-1.0891718864440918,-1.5688228607177734
1702063360221930200,14.64193017578125,0.08059394359588623,-1.147496223449707,-1.3011159896850586
1702063360238923500,14.658923583984375,0.1924062967300415,-1.1159298419952393,-1.0450611114501953
1702063360255917600,14.67591748046875,0.1335737705230713,-0.9534289836883545,-0.7248172760009766
1702063360272910600,14.69291064453125,-0.2832765579223633,-0.5877931118011475,-0.5379180908203125
1702063360289904600,14.709904541015625,-0.7676656246185303,-0.3889470100402832,-0.5272808074951172
1702063360306898000,14.72689794921875,-0.7496943473815918,-0.4652879238128662,-0.46310901641845703
1702063360323892000,14.74389208984375,-0.28684091567993164,-0.6080503463745117,-0.3603811264038086
1702063360340885000,14.760885009765625,0.703250527381897,-0.7618327140808105,-0.18730926513671875
1702063360357879300,14.77787939453125,1.7643139362335205,-1.0706748962402344,0.566777229309082
1702063360374872000,14.7948720703125,2.8803939819335938,-0.8482794761657715,1.3400812149047852
1702063360391867600,14.81186767578125,3.61745023727417,-0.3135800361633301,1.1368446350097656
1702063360408859400,14.828859375,3.9275295734405518,0.1269664764404297,0.5908060073852539
1702063360425853400,14.845853515625,3.94521164894104,0.2883415222167969,0.17205810546875
1702063360442846700,14.8628466796875,4.494658946990967,0.3698735237121582,0.1725625991821289
1702063360459840800,14.8798408203125,5.067388534545898,0.9260554313659668,0.7648706436157227
1702063360476833800,14.896833740234374,4.538848876953125,1.709437370300293,1.3514080047607422
1702063360493828000,14.913828125,3.122425079345703,1.8459231853485107,1.7843031883239746
1702063360510821000,14.930821044921874,1.7206981182098389,1.6783523559570312,1.6652326583862305
1702063360527815200,14.947815185546874,1.1360602378845215,1.5665488243103027,1.5421338081359863
1702063360544808200,14.96480810546875,1.2141871452331543,1.4321832656860352,1.9514250755310059
1702063360561784800,14.981784912109376,1.5909395217895508,1.5324375629425049,2.637491226196289
1702063360578795500,14.99879541015625,1.7996635437011719,1.68961763381958,3.0575308799743652
1702063360595789600,15.01578955078125,1.8417119979858398,1.8470547199249268,3.1221747398376465
1702063360612782800,15.032782958984376,1.5782103538513184,2.0212879180908203,3.2603440284729004
1702063360629777000,15.04977685546875,1.3028771877288818,1.9195706844329834,3.4505720138549805
1702063360646770000,15.06677001953125,0.6679821014404297,1.767869234085083,3.572889804840088
1702063360663764200,15.08376416015625,0.34557056427001953,1.5196843147277832,3.5907816886901855
1702063360680757200,15.10075732421875,0.5633754730224609,1.2893667221069336,3.62117338180542
1702063360697754000,15.117754150390626,1.0387146472930908,1.267432689666748,3.2914109230041504
1702063360714744300,15.134744384765625,1.099487543106079,1.259596347808838,2.56005859375
1702063360731736000,15.151736083984375,0.9674391746520996,1.1790132522583008,1.7206597328186035
1702063360748734000,15.16873388671875,0.7120270729064941,1.0408778190612793,1.4299559593200684
1702063360765723100,15.18572314453125,0.4668583869934082,0.8073387145996094,1.5984430313110352
1702063360782721300,15.20272119140625,0.4358675479888916,0.5406599044799805,1.7283687591552734
1702063360799713300,15.21971337890625,0.4096839427947998,0.2591056823730469,1.9375052452087402
1702063360816706000,15.2367060546875,0.4181356430053711,0.03262805938720703,2.046949863433838
1702063360833700000,15.2537001953125,0.5765249729156494,0.12296199798583984,2.062558650970459
1702063360850693000,15.270693115234375,0.3456883430480957,0.475311279296875,2.3439369201660156
1702063360867687200,15.287687255859375,-0.27121901512145996,0.8340516090393066,2.8371033668518066
1702063360884680400,15.304680419921874,-0.7850792407989502,1.0856022834777832,3.048264980316162
1702063360901674500,15.321674560546874,-0.7143979072570801,1.263319730758667,2.9838199615478516
1702063360918667500,15.33866748046875,-0.2232985496520996,1.384167194366455,3.0439915657043457
1702063360935660300,15.355660400390626,0.4953029155731201,1.5012001991271973,3.0948729515075684
1702063360952646100,15.372646240234374,1.036374807357788,1.5814085006713867,3.1688079833984375
1702063360969649200,15.389649169921874,1.0066752433776855,1.5949153900146484,3.079096794128418
1702063360986642200,15.40664208984375,0.5218348503112793,1.5806193351745605,2.8003334999084473
1702063361003636200,15.42363623046875,-0.05997014045715332,1.6294541358947754,2.342607021331787
1702063361020629200,15.440629150390626,-0.4335050582885742,1.7466073036193848,1.7238855361938477
1702063361037623600,15.45762353515625,-0.4017636775970459,1.781214714050293,1.137639045715332
1702063361054616600,15.474616455078126,0.06175708770751953,1.714325189590454,0.747532844543457
1702063361071610600,15.491610595703126,0.4071617126464844,1.491422176361084,0.5220737457275391
1702063361088603600,15.508603759765625,0.7542773485183716,1.2099511623382568,0.21426963806152344
1702063361105593300,15.52559326171875,1.0955473184585571,0.897444486618042,-0.10242557525634766
1702063361122591000,15.542591064453125,1.548093557357788,0.8000421524047852,-0.48607778549194336
1702063361139585000,15.5595849609375,1.7477366924285889,0.6477642059326172,-0.7483644485473633
1702063361156578000,15.576578125,1.494985580444336,0.5230221748352051,-0.5535449981689453
1702063361173572400,15.593572265625,1.351381540298462,0.277789831161499,-0.4191751480102539
1702063361190565400,15.6105654296875,1.5415481328964233,0.06035041809082031,-0.6677627563476562
1702063361207559400,15.627559326171875,1.392052412033081,-0.08016586303710938,-0.8356027603149414
1702063361224552700,15.644552734375,0.9818291664123535,-0.3316640853881836,-1.1791796684265137
1702063361241546800,15.661546630859375,0.8304587006568909,-0.5958995819091797,-1.4729876518249512
1702063361258539800,15.678539794921875,0.7551597356796265,-0.7139334678649902,-1.6505002975463867
1702063361275533800,15.695533935546875,0.8099575638771057,-0.9447731971740723,-1.5474424362182617
1702063361292527000,15.712527099609375,0.5768168568611145,-1.276853322982788,-1.255965232849121
1702063361309521400,15.729521484375,0.20652282238006592,-1.475402593612671,-1.0790300369262695
1702063361326514200,15.74651416015625,-0.10173910856246948,-1.5618805885314941,-1.2225103378295898
1702063361343502000,15.763502197265625,-0.4881816506385803,-1.5753509998321533,-1.493208885192871
1702063361360501200,15.780501220703124,-0.7839797735214233,-1.56113862991333,-1.6216096878051758
1702063361377488600,15.797488525390625,-0.9710164666175842,-1.529428243637085,-1.7049546241760254
1702063361394488600,15.814488525390624,-1.0970677137374878,-1.5165810585021973,-2.027284622192383
1702063361411482600,15.831482666015624,-1.2137502431869507,-1.6528921127319336,-2.4450998306274414
1702063361428476000,15.848475830078126,-0.9709082841873169,-1.7540901899337769,-2.595667839050293
1702063361445470000,15.865469970703124,-0.6944094896316528,-1.8743704557418823,-2.1870412826538086
1702063361462463000,15.882462890625,-0.839226245880127,-2.2600584030151367,-1.6505613327026367
1702063361479457300,15.899457275390626,-1.2898417711257935,-2.9775800704956055,-1.4726629257202148
1702063361496439800,15.916439697265625,-1.4464162588119507,-3.507307529449463,-1.7972469329833984
1702063361513444400,15.9334443359375,-1.3161742687225342,-3.8985562324523926,-1.9745020866394043
1702063361530437400,15.950437255859375,-1.0178086757659912,-4.1038031578063965,-1.5265674591064453
1702063361547431700,15.967431640625,-0.88051438331604,-4.114743232727051,-0.90313720703125
1702063361564424700,15.9844248046875,-0.8600891828536987,-4.245414733886719,-0.7757339477539062
1702063361581419800,16.001419677734376,-0.6159586906433105,-4.120000839233398,-1.1741085052490234
1702063361598399200,16.018399169921874,-0.7037525773048401,-4.034916400909424,-0.8318052291870117
1702063361615407900,16.035407958984376,-1.0772705078125,-4.134154319763184,-0.3665580749511719
1702063361632399400,16.0523994140625,-1.8403816223144531,-4.348287105560303,-0.017472267150878906
1702063361649393200,16.06939306640625,-2.0695581436157227,-4.862743854522705,0.09236431121826172
1702063361666386200,16.08638623046875,-1.466314673423767,-5.024843692779541,-0.11090946197509766
1702063361683380500,16.10338037109375,-0.7934183478355408,-4.713762283325195,-0.49130725860595703
1702063361700371200,16.12037109375,-0.5657628774642944,-4.370334148406982,-0.8125267028808594
1702063361717369900,16.137369873046875,-0.8545896410942078,-4.566228866577148,-0.28355979919433594
1702063361734343200,16.15434326171875,-0.9652591943740845,-5.352893352508545,0.6371231079101562
1702063361751355000,16.17135498046875,-0.8269563317298889,-5.5384087562561035,1.2511844635009766
1702063361768348000,16.188347900390625,-1.1458358764648438,-5.386275291442871,1.4630889892578125
1702063361785335300,16.205335205078125,-1.8212858438491821,-5.278870582580566,1.0486116409301758
1702063361802325200,16.2223251953125,-1.896192193031311,-5.574127674102783,0.5615119934082031
1702063361819329300,16.239329345703126,-1.670701503753662,-6.045957088470459,1.0939531326293945
1702063361836322300,16.256322265625,-1.6488125324249268,-6.125395774841309,2.3643178939819336
1702063361853316400,16.27331640625,-1.3364853858947754,-6.4817657470703125,4.24639892578125
1702063361870309400,16.290309326171876,-0.2575545310974121,-6.702924728393555,6.4298858642578125
1702063361887303700,16.3073037109375,-0.09670042991638184,-6.286790370941162,7.003298759460449
1702063361904292600,16.324292724609375,-0.9393912553787231,-6.092327117919922,5.837372779846191
1702063361921290800,16.341290771484374,-2.122847318649292,-6.372074604034424,3.729938507080078
1702063361938283800,16.35828369140625,-3.25616455078125,-7.177379131317139,1.7056961059570312
1702063361955278000,16.375278076171874,-3.778984308242798,-7.485942363739014,-0.03390693664550781
1702063361972271000,16.39227099609375,-3.1307549476623535,-7.121567249298096,-1.021697998046875
1702063361989265400,16.409265380859374,-2.375079870223999,-6.744528293609619,-0.8309097290039062
1702063362006256400,16.42625634765625,-1.925897479057312,-6.215251445770264,0.06033802032470703
1702063362023254300,16.443254150390626,-1.6344788074493408,-5.719829559326172,0.6864595413208008
1702063362040227600,16.4602275390625,-1.512508511543274,-5.300134658813477,0.45850658416748047
1702063362057239600,16.477239501953125,-1.2458374500274658,-5.022999286651611,-0.22902870178222656
1702063362074232800,16.49423291015625,-0.9365848302841187,-4.784553527832031,-0.7813854217529297
1702063362091225900,16.511225830078125,-0.7134515047073364,-4.562657833099365,-1.053238868713379
1702063362108221200,16.52822119140625,-0.5469611883163452,-4.270545959472656,-0.878474235534668
1702063362125213700,16.545213623046877,-0.7779045104980469,-4.0732011795043945,-0.3015413284301758
1702063362142207200,16.562207275390627,-1.33808171749115,-3.9611523151397705,-0.12918567657470703
1702063362159201500,16.579201416015625,-1.413366675376892,-3.842780113220215,-0.7681884765625
1702063362176194300,16.5961943359375,-0.7492424249649048,-3.4993886947631836,-1.6998119354248047
1702063362193188600,16.613188720703125,-0.17571979761123657,-3.018991470336914,-2.2854256629943848
1702063362210181600,16.630181640625,-0.509829044342041,-2.639465093612671,-2.467249870300293
1702063362227165400,16.64716552734375,-1.026234745979309,-2.5758743286132812,-2.3625545501708984
1702063362244168700,16.664168701171874,-1.2751193046569824,-2.4398388862609863,-2.146909713745117
1702063362261162800,16.681162841796876,-1.070221185684204,-2.3314881324768066,-1.9919281005859375
1702063362278153200,16.6981533203125,-0.6680728197097778,-2.3348329067230225,-2.020915985107422
1702063362295152600,16.715152587890625,-0.02954239770770073,-2.2110562324523926,-1.7566967010498047
1702063362312143000,16.73214306640625,-0.030294343829154968,-1.893721342086792,-1.3735933303833008
1702063362329127000,16.749126953125,-0.24240633845329285,-1.7134144306182861,-0.8082752227783203
1702063362346130400,16.76613037109375,0.02642318606376648,-1.5176734924316406,-0.5526847839355469
1702063362363124500,16.78312451171875,0.6653326153755188,-1.1441004276275635,-0.7508087158203125
1702063362380117500,16.800117431640626,1.1589370965957642,-0.7017781734466553,-0.9569206237792969
1702063362397111800,16.81711181640625,1.3095289468765259,-0.5222811698913574,-0.8500909805297852
1702063362414104800,16.834104736328126,1.1718130111694336,-0.3923931121826172,-0.43623828887939453
1702063362431099000,16.851098876953124,1.0480910539627075,-0.33229494094848633,-0.15258026123046875
1702063362448092200,16.868092041015625,1.2804973125457764,-0.3909945487976074,-0.14449691772460938
1702063362465086200,16.885086181640624,1.8468748331069946,-0.299774169921875,-0.18059730529785156
1702063362482079500,16.90207958984375,2.252392053604126,-0.06546163558959961,-0.08876991271972656
1702063362499073300,16.9190732421875,2.132162570953369,0.11259174346923828,-0.07161903381347656
1702063362516066300,16.93606640625,1.7593467235565186,0.23764371871948242,-0.21729564666748047
1702063362533060400,16.953060302734375,1.2938064336776733,0.3400130271911621,-0.40506839752197266
1702063362550053600,16.9700537109375,1.2563810348510742,0.4125685691833496,-0.7314376831054688
1702063362567048000,16.9870478515625,1.5968894958496094,0.4394264221191406,-1.045440673828125
1702063362584040700,17.004040771484377,2.2657108306884766,0.4776787757873535,-1.1960124969482422
1702063362601046800,17.021046875,2.7643697261810303,0.5801286697387695,-1.0355281829833984
1702063362618028000,17.038028076171877,2.7498321533203125,0.5541744232177734,-0.5563993453979492
1702063362635022000,17.05502197265625,2.4264273643493652,0.5870428085327148,-0.33027172088623047
1702063362652015400,17.072015380859376,2.207021713256836,0.6177830696105957,-0.12074756622314453
1702063362669009200,17.089009033203126,2.0661792755126953,0.8256478309631348,0.013576984405517578
1702063362686010000,17.106010009765626,2.0924794673919678,1.1728739738464355,0.400662899017334
1702063362702996700,17.122996826171875,1.8435373306274414,0.9724810123443604,1.3137121200561523
1702063362719989500,17.139989501953124,1.5900115966796875,0.4658360481262207,2.158938407897949
1702063362736983600,17.156983642578126,1.8359014987945557,0.28908634185791016,2.458364486694336
1702063362753976800,17.173976806640624,2.368980646133423,0.7602720260620117,2.5103797912597656
1702063362770971000,17.190970947265626,2.639755964279175,1.2591333389282227,2.5889205932617188
1702063362787964000,17.2079638671875,2.239893913269043,1.2375986576080322,3.202510356903076
1702063362804958200,17.224958251953126,1.6305322647094727,0.5985465049743652,3.6200056076049805
1702063362821951200,17.241951171875,1.5420076847076416,0.1680288314819336,3.464252471923828
1702063362838945300,17.2589453125,1.9278364181518555,0.19951868057250977,3.111560344696045
1702063362855938800,17.275938720703124,2.1589515209198,0.2096724510192871,3.205615997314453
1702063362872932600,17.2929326171875,1.8130924701690674,0.0943751335144043,3.1878018379211426
1702063362889925600,17.309925537109375,1.4448046684265137,0.4329094886779785,2.767498016357422
1702063362906909200,17.3269091796875,0.8765392303466797,0.4119272232055664,2.0885210037231445
1702063362923912700,17.34391259765625,0.7199525833129883,0.457439661026001,1.1751551628112793
1702063362940907500,17.360907470703125,1.1315131187438965,0.8930630683898926,0.676145076751709
1702063362957899300,17.377899169921875,1.7528762817382812,1.2530980110168457,1.4734063148498535
1702063362974889200,17.39488916015625,2.2991483211517334,1.354546070098877,2.793240547180176
1702063362991887400,17.411887451171875,2.55317759513855,1.5041732788085938,3.684858798980713
1702063363008881200,17.428881103515625,2.5287110805511475,1.726550579071045,3.6450634002685547
1702063363025874400,17.44587451171875,2.3098161220550537,1.8114063739776611,3.139362335205078
1702063363042868500,17.462868408203125,1.8065967559814453,1.6864476203918457,2.9734458923339844
1702063363059861800,17.47986181640625,1.6233525276184082,1.6731674671173096,3.2827563285827637
1702063363076855800,17.496855712890625,1.4419493675231934,1.6476199626922607,3.8698978424072266
1702063363093848800,17.513848876953126,1.5148916244506836,1.7416877746582031,4.37864351272583
1702063363110843000,17.5308427734375,1.2978346347808838,1.698732852935791,4.460290908813477
1702063363127836000,17.5478359375,1.0894479751586914,1.7326536178588867,3.866781234741211
1702063363144830200,17.564830322265625,0.8757243156433105,1.796811819076538,3.0859923362731934
1702063363161823200,17.5818232421875,0.8177034854888916,1.7946109771728516,2.6418304443359375
1702063363178817300,17.5988173828125,0.9509060382843018,1.680729866027832,2.6410465240478516
1702063363195810300,17.615810302734374,1.4147772789001465,1.559737205505371,2.7739815711975098
1702063363212804400,17.632804443359376,1.9785027503967285,1.3944778442382812,2.87687349319458
1702063363229797600,17.649797607421874,2.5116119384765625,1.4134938716888428,2.5284056663513184
1702063363246791700,17.666791748046876,2.7691640853881836,1.4210128784179688,1.6054954528808594
1702063363263784700,17.68378466796875,3.0269875526428223,1.1369895935058594,0.7427434921264648
1702063363280779300,17.700779296875,3.370262861251831,0.7248008251190186,0.19371509552001953
1702063363297769500,17.71776953125,4.0453290939331055,0.39272212982177734,0.13557147979736328
1702063363314768600,17.7347685546875,4.356621265411377,0.19288969039916992,1.1279497146606445
1702063363331759000,17.751759033203125,3.5065770149230957,-0.26396703720092773,2.2400636672973633
1702063363348739000,17.768739013671876,2.3851399421691895,-0.8116841316223145,1.777444839477539
1702063363365746400,17.785746337890625,1.4556080102920532,-0.8907837867736816,0.02568531036376953
1702063363382740500,17.802740478515624,0.7279597520828247,-0.9023087024688721,-1.590179443359375
1702063363399731000,17.81973095703125,0.3339211940765381,-0.6627192497253418,-2.3533101081848145
1702063363416730400,17.83673046875,0.22526657581329346,-0.5486118793487549,-2.027052879333496
1702063363433720800,17.853720947265625,0.14232313632965088,-0.6975698471069336,-1.3398866653442383
1702063363450715000,17.87071484375,0.23022019863128662,-0.9747262001037598,-0.8636436462402344
1702063363467708200,17.887708251953125,0.3145338296890259,-1.1905806064605713,-0.8492326736450195
1702063363484704300,17.904704345703124,0.4196547269821167,-1.3707563877105713,-1.319880485534668
1702063363501684700,17.921684814453126,0.6213559508323669,-1.4949917793273926,-1.743703842163086
1702063363518689300,17.938689208984375,0.7315600514411926,-1.7242276668548584,-1.6452760696411133
1702063363535682300,17.955682373046876,0.46201348304748535,-2.047480344772339,-1.3435907363891602
1702063363552676400,17.97267626953125,-0.02069413661956787,-2.3067786693573,-1.0403528213500977
1702063363569670000,17.989669921875,-0.6761206388473511,-2.5131869316101074,-0.9925107955932617
1702063363586661000,18.0066611328125,-0.8536298274993896,-2.579360008239746,-1.2380847930908203
1702063363603659500,18.023659423828125,-0.8626165390014648,-2.515784740447998,-1.600581169128418
1702063363620651000,18.040651123046874,-0.8113247156143188,-2.582657814025879,-1.9453301429748535
1702063363637644000,18.05764404296875,-0.7330278158187866,-2.7419991493225098,-2.281981945037842
1702063363654638000,18.07463818359375,-0.7041437029838562,-2.825751543045044,-2.5913877487182617
1702063363671631000,18.091631103515624,-0.8216598629951477,-3.04060697555542,-2.422194480895996
1702063363688625700,18.108625732421874,-0.9123637676239014,-3.3477585315704346,-2.1011857986450195
1702063363705618200,18.1256181640625,-0.7940869927406311,-3.5827434062957764,-1.9768190383911133
1702063363722602000,18.14260205078125,-0.741766095161438,-3.869600534439087,-1.9991512298583984
1702063363739605500,18.15960546875,-0.6888372898101807,-4.095892906188965,-1.8975448608398438
1702063363756599600,18.176599609375,-0.8034892082214355,-4.337673664093018,-1.644984245300293
1702063363773592800,18.1935927734375,-0.8884353637695312,-4.457082748413086,-1.4266786575317383
1702063363790587000,18.2105869140625,-1.2875850200653076,-4.388193130493164,-1.5703487396240234
1702063363807580000,18.227579833984375,-1.285079836845398,-4.084208011627197,-1.7457818984985352
1702063363824574000,18.244573974609374,-0.9297741651535034,-3.7159950733184814,-1.0676040649414062
1702063363841567000,18.26156689453125,-1.226921558380127,-3.369783878326416,0.037014007568359375
1702063363858561300,18.278561279296873,-1.8576548099517822,-3.012906551361084,0.6589326858520508
1702063363875551700,18.2955517578125,-2.6665380001068115,-3.236166477203369,0.9584255218505859
1702063363892551000,18.312551025390626,-3.0752243995666504,-3.9055655002593994,0.9389972686767578
1702063363909541600,18.329541748046875,-2.6423239707946777,-4.634236812591553,0.5299749374389648
1702063363926535700,18.34653564453125,-1.1133501529693604,-5.2010722160339355,0.7247037887573242
1702063363943525000,18.363525146484374,-0.16355854272842407,-5.315079689025879,0.5660295486450195
1702063363960522800,18.380522705078125,0.38153135776519775,-4.793055534362793,-0.776123046875
1702063363977515800,18.397515869140626,-0.42334824800491333,-4.340966701507568,-1.9048948287963867
1702063363994510000,18.414510009765625,-1.6391698122024536,-4.261528015136719,-1.5270967483520508
1702063364011492600,18.43149267578125,-2.3442068099975586,-4.5743913650512695,0.3961925506591797
1702063364028497400,18.448497314453125,-2.897836685180664,-5.2226972579956055,3.3889293670654297
1702063364045490200,18.465490234375,-3.024946928024292,-5.57792329788208,5.004905700683594
1702063364062484700,18.482484619140624,-2.2269771099090576,-5.258245944976807,4.473232269287109
1702063364079477500,18.4994775390625,-1.4959794282913208,-5.11087703704834,3.68740177154541
1702063364096471600,18.516471435546876,-0.8156418800354004,-5.224085807800293,3.475226402282715
1702063364113464600,18.533464599609374,-0.440443754196167,-5.532360076904297,3.7223949432373047
1702063364130458600,18.550458740234376,-0.15984463691711426,-5.817607879638672,4.118959426879883
1702063364147452000,18.567451904296874,-0.2370622158050537,-5.935092926025391,4.42854118347168
1702063364164446200,18.5844462890625,-1.211928129196167,-5.997801780700684,4.241106986999512
1702063364181439000,18.60143896484375,-2.283748149871826,-5.937932014465332,3.1563615798950195
1702063364198435800,18.618435791015624,-2.7904577255249023,-5.737462043762207,1.6369361877441406
1702063364215421400,18.63542138671875,-2.7218427658081055,-5.554230690002441,0.40056705474853516
1702063364232422400,18.65242236328125,-2.124535083770752,-5.606374263763428,-0.03308296203613281
1702063364249413400,18.669413330078125,-1.4508538246154785,-5.711906433105469,0.41286277770996094
1702063364266404900,18.68640478515625,-1.5272200107574463,-5.446457862854004,0.7428722381591797
1702063364283403300,18.7034033203125,-1.9818806648254395,-5.115411758422852,0.1283559799194336
1702063364300394800,18.720394775390623,-2.157092571258545,-4.6121602058410645,-1.0501012802124023
1702063364317387800,18.7373876953125,-1.822523832321167,-4.273087024688721,-1.810302734375
1702063364334381800,18.7543818359375,-1.1974897384643555,-4.197818279266357,-1.8205089569091797
1702063364351375000,18.771375,-0.7531104683876038,-4.130125522613525,-1.6475105285644531
1702063364368369200,18.788369140625,-0.9993936419487,-3.8790528774261475,-1.5755205154418945
1702063364385362200,18.805362060546877,-1.471088171005249,-3.595299243927002,-1.7855167388916016
1702063364402356500,18.8223564453125,-1.750745177268982,-3.229172706604004,-2.1497387886047363
1702063364419348200,18.83934814453125,-1.7609330415725708,-2.8131916522979736,-2.5188679695129395
1702063364436343600,18.856343505859375,-1.5975581407546997,-2.6720449924468994,-2.5374245643615723
1702063364453336600,18.873336669921876,-1.3405338525772095,-2.7147860527038574,-2.2986087799072266
1702063364470330600,18.89033056640625,-0.7839351296424866,-2.7287845611572266,-1.910405158996582
1702063364487323600,18.90732373046875,0.2400837242603302,-2.473189353942871,-1.4267950057983398
1702063364504301600,18.924301513671875,0.965275228023529,-2.0051512718200684,-1.0331649780273438
1702063364521311000,18.94131103515625,1.206061601638794,-1.5685038566589355,-1.060837745666504
1702063364538305300,18.95830517578125,1.2064874172210693,-1.3995869159698486,-1.3438911437988281
1702063364555298000,18.975298095703124,1.116772174835205,-1.313786268234253,-1.85341215133667
1702063364572292400,18.992292236328126,1.2964329719543457,-1.1725752353668213,-2.154958724975586
1702063364589282300,19.0092822265625,1.6280642747879028,-0.99418044090271,-1.8802118301391602
1702063364606282500,19.026282470703126,1.6899389028549194,-0.7625772953033447,-1.3251333236694336
1702063364623269000,19.04326904296875,1.5684821605682373,-0.5506820678710938,-1.0808687210083008
1702063364640266800,19.060266845703126,1.5673928260803223,-0.5089917182922363,-0.9949970245361328
1702063364657257500,19.077257568359375,1.5838537216186523,-0.41351795196533203,-1.1271686553955078
1702063364674256100,19.094256103515626,1.4894307851791382,-0.3923459053039551,-1.3487577438354492
1702063364691246800,19.111246826171875,1.2416930198669434,-0.2904379367828369,-1.6809415817260742
1702063364708242200,19.1282421875,0.8780391216278076,-0.13855528831481934,-1.803532600402832
1702063364725233000,19.14523291015625,0.7593872547149658,0.001598358154296875,-1.4737739562988281
1702063364742218000,19.162218017578127,0.9811407327651978,0.03562593460083008,-0.9445662498474121
1702063364759221200,19.17922119140625,1.4408692121505737,0.05186748504638672,-0.7375397682189941
1702063364776202500,19.196202392578126,1.9932262897491455,0.049515724182128906,-0.8414859771728516
1702063364793206000,19.2132060546875,2.5643410682678223,0.18947458267211914,-1.1583943367004395
1702063364810202600,19.23020263671875,3.1232407093048096,0.5017492771148682,-1.2369418144226074
1702063364827195600,19.247195556640627,3.224616289138794,0.9063451290130615,-0.7209281921386719
1702063364844189700,19.264189697265625,2.8204591274261475,1.1654901504516602,0.17484092712402344
1702063364861180200,19.28118017578125,2.4527926445007324,1.2545888423919678,0.867060661315918
1702063364878179600,19.2981796875,2.4706356525421143,1.2489142417907715,1.0755729675292969
1702063364895170000,19.315170166015626,2.805544853210449,1.2808473110198975,0.601806640625
1702063364912178200,19.33217822265625,3.5918943881988525,1.1977581977844238,0.03925895690917969
1702063364929157400,19.349157470703126,4.059935569763184,1.216524600982666,-0.0819406509399414
1702063364946151400,19.3661513671875,3.782339334487915,1.2307045459747314,0.5597829818725586
1702063364963142000,19.383141845703125,3.149780750274658,1.1509006023406982,1.4442005157470703
1702063364980141000,19.40014111328125,2.852550983428955,1.26639723777771,2.1311635971069336
1702063364997131500,19.417131591796874,2.858872413635254,1.5779266357421875,2.4855260848999023
1702063365014125800,19.434125732421876,2.7839856147766113,1.5369713306427002,2.629176616668701
1702063365031118800,19.451118896484374,2.569540500640869,1.3052306175231934,2.937520980834961
1702063365048113200,19.468113037109376,2.0534989833831787,1.0595011711120605,3.6323070526123047
1702063365065106000,19.48510595703125,1.4911508560180664,1.0334386825561523,4.27874231338501
1702063365082089500,19.50208935546875,1.1979107856750488,1.1559176445007324,4.435348987579346
1702063365099093500,19.519093505859374,1.0164525508880615,1.2329986095428467,4.015569686889648
1702063365116087300,19.53608740234375,0.9417011737823486,1.2562463283538818,3.1309566497802734
1702063365133080300,19.553080322265625,1.086869716644287,1.2823786735534668,2.228583335876465
1702063365150074600,19.57007470703125,1.087338924407959,1.1589107513427734,1.8038339614868164
1702063365167067600,19.587067626953125,1.3710474967956543,1.2555770874023438,2.0884947776794434
1702063365184061700,19.604061767578123,1.405888319015503,1.369849681854248,2.815548896789551
1702063365201051100,19.621051025390624,1.349696397781372,1.4984536170959473,3.094958782196045
1702063365218052600,19.638052490234376,1.188908338546753,1.5190181732177734,2.87786865234375
1702063365235041800,19.655041748046877,0.958965539932251,1.375716209411621,2.5797157287597656
1702063365252049400,19.67204931640625,0.818917989730835,1.1509590148925781,2.7540111541748047
1702063365269029000,19.689029052734377,0.7014808654785156,0.8555252552032471,3.455380439758301
1702063365286023200,19.706023193359375,0.6702167987823486,0.44765615463256836,4.103168487548828
1702063365303009000,19.723009033203127,1.2500462532043457,0.1947793960571289,3.877049446105957
1702063365320010500,19.740010498046875,1.961562156677246,0.15377569198608398,3.1036272048950195
1702063365337003500,19.75700341796875,2.270219564437866,0.11887812614440918,2.464200019836426
1702063365353997600,19.77399755859375,2.09889554977417,0.1591181755065918,2.129667282104492
1702063365370990600,19.790990478515624,1.7412381172180176,0.38208866119384766,2.0380659103393555
1702063365387985000,19.80798486328125,1.3343172073364258,0.5551540851593018,2.4560680389404297
1702063365404978000,19.82497802734375,1.1313602924346924,0.7039463520050049,2.901773452758789
1702063365421972200,19.84197216796875,1.115926742553711,0.8452353477478027,2.8445653915405273
1702063365438965000,19.858965087890624,1.3645379543304443,0.9900708198547363,2.278951644897461
1702063365455959300,19.875959228515626,1.744066596031189,1.1323916912078857,1.4969406127929688
1702063365472949500,19.892949462890623,1.9785865545272827,1.1236677169799805,0.8018655776977539
1702063365489947400,19.909947509765626,2.358569383621216,0.9266958236694336,0.4162864685058594
1702063365506943700,19.92694384765625,2.501617431640625,0.9292263984680176,0.31307125091552734
1702063365523923700,19.943923828125,2.2650821208953857,0.9981167316436768,0.48561859130859375
1702063365540926500,19.960926513671875,2.224656581878662,1.0882911682128906,0.00988006591796875
1702063365557920800,19.977920654296874,1.9864113330841064,1.1901328563690186,-0.746281623840332
1702063365574913800,19.994913818359375,1.968103289604187,1.1648404598236084,-1.2169380187988281
1702063365591908000,20.011908203125,2.0133330821990967,1.0007519721984863,-1.0117950439453125
1702063365608900900,20.02890087890625,2.0357666015625,0.7728078365325928,-0.7967758178710938
1702063365625886000,20.045885986328123,1.9116618633270264,0.5298292636871338,-0.7261276245117188
1702063365642885600,20.0628857421875,1.7741526365280151,0.5977733135223389,-0.9178895950317383
1702063365659885000,20.079885009765626,1.612302541732788,0.8058655261993408,-1.4156827926635742
1702063365676875300,20.096875244140627,1.2679228782653809,0.8667519092559814,-1.7905049324035645
1702063365693869600,20.11386962890625,0.7656501531600952,0.51023268699646,-1.9193506240844727
1702063365710862800,20.13086279296875,0.6422178745269775,-0.016373634338378906,-1.7370548248291016
1702063365727856600,20.147856689453125,0.7225524187088013,-0.2959749698638916,-1.461979866027832
1702063365744849700,20.164849609375,0.7716338038444519,-0.3176109790802002,-1.4609441757202148
1702063365761844000,20.181843994140625,0.6195005178451538,-0.24838662147521973,-1.841811180114746
1702063365778837000,20.1988369140625,0.5145947337150574,-0.4717402458190918,-1.9617691040039062
1702063365795831000,20.2158310546875,0.45804062485694885,-1.0475256443023682,-1.8345251083374023
1702063365812824000,20.232823974609374,0.24402013421058655,-1.429749846458435,-1.7632522583007812
1702063365829818400,20.249818359375,0.051195502281188965,-1.6107770204544067,-1.4341917037963867
1702063365846811400,20.266811279296874,-0.23447030782699585,-1.762611985206604,-1.084463119506836
1702063365863805400,20.283805419921876,-0.540947437286377,-1.9143317937850952,-0.9112653732299805
1702063365880798500,20.300798583984374,-0.5183436870574951,-1.9977049827575684,-0.997736930847168
1702063365897778400,20.3177783203125,-0.4896836280822754,-2.270167827606201,-1.0837841033935547
1702063365914789600,20.33478955078125,-0.9059291481971741,-2.572082996368408,-1.157379150390625
1702063365931779000,20.351779052734376,-1.1909700632095337,-2.8149166107177734,-1.1795225143432617
1702063365948773400,20.3687734375,-1.3381308317184448,-2.9907164573669434,-1.0098199844360352
1702063365965766100,20.38576611328125,-0.8779458999633789,-3.0512261390686035,-0.8251771926879883
1702063365982760000,20.402760009765625,-0.34720444679260254,-3.4109513759613037,-0.42564964294433594
1702063365999754200,20.419754150390624,0.05235922336578369,-3.6226162910461426,-0.4745664596557617
1702063366016747300,20.436747314453125,-0.25300073623657227,-3.5225841999053955,-0.7071237564086914
1702063366033741300,20.4537412109375,-0.6095167398452759,-3.5704591274261475,-0.7496004104614258
1702063366050734300,20.470734375,-0.5887699127197266,-3.7197790145874023,-0.3072671890258789
1702063366067728600,20.487728759765623,-0.4589496850967407,-4.0935444831848145,0.40424251556396484
1702063366084721700,20.5047216796875,-0.6586083769798279,-4.479709625244141,1.2151126861572266
1702063366101715700,20.5217158203125,-0.9463731050491333,-4.972388744354248,1.0746097564697266
1702063366118708500,20.53870849609375,-0.9865579605102539,-5.339495658874512,0.40262699127197266
1702063366135692300,20.5556923828125,-1.301931381225586,-5.506839275360107,0.13898277282714844
1702063366152695800,20.57269580078125,-2.1405222415924072,-5.641928672790527,0.4308786392211914
1702063366169690000,20.589690185546875,-2.3676278591156006,-5.593024253845215,0.2317056655883789
1702063366186683100,20.60668310546875,-2.2697043418884277,-5.751386642456055,0.016521453857421875
1702063366203680000,20.623679931640623,-1.3993980884552002,-5.831208229064941,0.06386470794677734
1702063366220667600,20.640667724609376,-0.513751745223999,-5.7054948806762695,1.7657175064086914
1702063366237664500,20.65766455078125,-0.9131307005882263,-5.304430961608887,3.2821693420410156
1702063366254657300,20.6746572265625,-1.3135193586349487,-4.875243186950684,3.147404670715332
1702063366271651600,20.691651611328126,-1.1126625537872314,-4.3115034103393555,2.146076202392578
1702063366288634000,20.708634033203126,-0.36406341195106506,-4.057172775268555,1.821955680847168
1702063366305628400,20.72562841796875,0.562727153301239,-4.158594131469727,2.747443199157715
1702063366322632000,20.7426318359375,0.6847373843193054,-4.048363208770752,3.9962339401245117
1702063366339615700,20.75961572265625,-1.212109923362732,-3.7041170597076416,4.747291564941406
1702063366356619000,20.776618896484376,-2.730985164642334,-3.805058717727661,4.492816925048828
1702063366373613300,20.79361328125,-3.647373676300049,-4.396866321563721,3.956456184387207
1702063366390606000,20.810606201171876,-3.8106939792633057,-4.3675923347473145,3.546304702758789
1702063366407600600,20.8276005859375,-3.734405040740967,-4.473467826843262,3.5194520950317383
1702063366424593400,20.844593505859375,-3.7608044147491455,-4.73300838470459,3.3846635818481445
1702063366441587500,20.86158740234375,-3.717104434967041,-5.031229019165039,2.788723945617676
1702063366458580700,20.878580810546875,-3.32076358795166,-5.2463836669921875,1.85455322265625
1702063366475574800,20.89557470703125,-2.4590883255004883,-5.419127464294434,1.133437156677246
1702063366492567800,20.91256787109375,-1.693705439567566,-5.621473789215088,1.029378890991211
1702063366509562000,20.92956201171875,-1.3775917291641235,-5.8265380859375,1.1457204818725586
1702063366526555100,20.94655517578125,-1.4971871376037598,-5.781641006469727,0.8785104751586914
1702063366543549000,20.963548828125,-1.8163716793060303,-5.568117141723633,0.3759346008300781
1702063366560542200,20.980542236328127,-2.1960763931274414,-5.424747943878174,-0.09827423095703125
1702063366577536300,20.997536376953125,-2.040935516357422,-5.497634410858154,-0.2935066223144531
1702063366594529300,21.014529296875,-1.258349895477295,-5.554662227630615,-0.34442138671875
1702063366611523000,21.031523193359376,-0.8043422102928162,-5.34349250793457,-0.1917715072631836
1702063366628516900,21.048516845703126,-1.2450685501098633,-4.528698921203613,-0.5304222106933594
1702063366645510700,21.0655107421875,-2.098601818084717,-3.900390863418579,-1.1622028350830078
1702063366662503700,21.082503662109374,-2.7140746116638184,-3.4989495277404785,-1.8164873123168945
1702063366679497500,21.09949755859375,-2.326169967651367,-3.3367505073547363,-2.1754331588745117
1702063366696490800,21.11649072265625,-0.798601508140564,-3.238422393798828,-2.270846366882324
1702063366713485000,21.133485107421876,0.5009620189666748,-3.151372194290161,-2.367753028869629
1702063366730478000,21.15047802734375,1.1439558267593384,-2.8397133350372314,-2.853400230407715
1702063366747472100,21.16747216796875,1.3052808046340942,-2.5724587440490723,-3.2629308700561523
1702063366764465200,21.184465087890626,1.6065729856491089,-2.3496479988098145,-3.26064395904541
1702063366781459200,21.201459228515624,2.070216417312622,-2.041808843612671,-3.0936546325683594
1702063366798452500,21.218452392578126,2.2434215545654297,-1.5469294786453247,-2.7882537841796875
1702063366815446500,21.235446533203124,2.0587878227233887,-1.0484172105789185,-2.8277664184570312
1702063366832437500,21.2524375,1.749790906906128,-0.5276622772216797,-3.1229090690612793
1702063366849435600,21.269435546875,1.4062572717666626,-0.05248570442199707,-3.0925426483154297
1702063366866416000,21.286416015625,1.246942162513733,-0.07304096221923828,-2.49314022064209
1702063366883421000,21.3034208984375,1.4456496238708496,-0.1977379322052002,-1.597311019897461
1702063366900414000,21.3204140625,2.038154363632202,-0.0764472484588623,-0.46653175354003906
1702063366917408000,21.337407958984375,2.522840976715088,0.22355437278747559,0.4268465042114258
1702063366934401000,21.354401123046873,2.984055280685425,0.4736356735229492,0.8810672760009766
1702063366951395300,21.371395263671875,3.277148723602295,0.5888857841491699,0.9277677536010742
1702063366968388000,21.38838818359375,3.441446304321289,0.41451072692871094,0.7928743362426758
1702063366985382400,21.40538232421875,3.7248969078063965,0.4726099967956543,0.39610958099365234
1702063367002372900,21.422372802734376,3.8425097465515137,0.8829464912414551,0.3135547637939453
1702063367019369700,21.43936962890625,3.463470935821533,1.5086843967437744,0.6460275650024414
1702063367036365000,21.456364990234373,2.854091167449951,1.856365442276001,0.9563703536987305
1702063367053357000,21.473357177734375,2.633044958114624,1.76377534866333,1.2139520645141602
