time,seconds_elapsed,z,y,x
1702063289537864200,0.1818642578125,0.1035318374633789,-4.708147048950195,-0.5376193523406982
1702063289554859500,0.198859619140625,0.7615289688110352,-4.557487487792969,-0.6785159111022949
1702063289571848700,0.2158486328125,-1.0243253707885742,-4.445403099060059,-0.02641129493713379
1702063289588845300,0.23284521484375,-2.546217918395996,-4.370298385620117,0.8024883270263672
1702063289605830400,0.249830322265625,-2.148383140563965,-4.503600597381592,1.1191225051879883
1702063289622830300,0.266830322265625,-0.23089218139648438,-4.613282680511475,0.7599244117736816
1702063289639826700,0.28382666015625,1.2904338836669922,-3.930290460586548,0.5209388732910156
1702063289656820000,0.300820068359375,0.47356176376342773,-3.331328868865967,1.2716326713562012
1702063289673815600,0.317815673828125,-0.43174123764038086,-2.638455390930176,2.5154056549072266
1702063289690799900,0.3347998046875,-0.6232414245605469,-1.9471831321716309,3.3724656105041504
1702063289707803100,0.35180322265625,-0.1560049057006836,-1.644986629486084,3.389889717102051
1702063289724805400,0.368805419921875,0.2851109504699707,-0.6895924806594849,2.960834503173828
1702063289741786000,0.3857861328125,-1.587265968322754,-0.09418678283691406,3.324906349182129
1702063289758782500,0.402782470703125,-3.2180352210998535,-0.03329658508300781,4.302424430847168
1702063289775777300,0.41977734375,-3.0261473655700684,0.16203540563583374,5.466999053955078
1702063289792767200,0.436767333984375,-1.6196870803833008,0.3074505627155304,6.190735816955566
1702063289809764400,0.453764404296875,0.22238421440124512,0.5165897607803345,5.724648475646973
1702063289826757000,0.470757080078125,1.3469393253326416,1.0115697383880615,4.450212478637695
1702063289843752000,0.487751953125,0.7552239894866943,0.8763015270233154,3.565443992614746
1702063289860745500,0.504745361328125,-0.06383776664733887,0.5909433364868164,2.9460830688476562
1702063289877739000,0.521739013671875,-0.23539495468139648,0.46002477407455444,2.5762596130371094
1702063289894730200,0.538730224609375,-0.14985370635986328,0.3187967538833618,2.8707799911499023
1702063289911725300,0.555725341796875,-0.29230034351348877,0.3421589136123657,3.006587028503418
1702063289928719000,0.572718994140625,-0.7570140361785889,0.17253315448760986,2.586994171142578
1702063289945714700,0.589714599609375,-1.0503768920898438,0.007491946220397949,2.09885311126709
1702063289962704400,0.606704345703125,-0.963680624961853,0.06692886352539062,1.7566442489624023
1702063289979701000,0.623700927734375,-0.6667779684066772,0.28398895263671875,1.6703557968139648
1702063289996694500,0.640694580078125,-0.6307458877563477,0.4633026123046875,1.7459335327148438
1702063290013689000,0.657689208984375,-0.7548147439956665,0.5076489448547363,1.7337093353271484
1702063290030679300,0.67467919921875,-0.8356179594993591,0.3669319152832031,1.4829902648925781
1702063290047675000,0.6916748046875,-0.9858942031860352,-0.0409703254699707,0.8766536712646484
1702063290064670500,0.70867041015625,-1.1243780851364136,-0.7383546829223633,0.18065547943115234
1702063290081660200,0.72566015625,-1.044806957244873,-1.4185619354248047,-0.541865348815918
1702063290098654700,0.74265478515625,-0.9669528603553772,-2.078529119491577,-1.0385675430297852
1702063290115653000,0.759653076171875,-0.7764009833335876,-2.5016894340515137,-1.2211284637451172
1702063290132641000,0.77664111328125,-0.6830848455429077,-2.560237169265747,-1.2306632995605469
1702063290149638100,0.79363818359375,-0.6153746843338013,-2.2327985763549805,-1.3064804077148438
1702063290166631200,0.810631103515625,-0.7496819496154785,-1.8016669750213623,-1.6306324005126953
1702063290183626200,0.827626220703125,-0.9610090255737305,-1.3826563358306885,-2.097325325012207
1702063290200616000,0.844615966796875,-1.1108876466751099,-1.0371553897857666,-2.6922106742858887
1702063290217612300,0.8616123046875,-1.0507794618606567,-0.7533564567565918,-3.2778501510620117
1702063290234607600,0.878607666015625,-0.960167407989502,-0.6559860706329346,-3.60122013092041
1702063290251590000,0.89558984375,-1.1611337661743164,-0.5024869441986084,-3.801563262939453
1702063290268593200,0.91259326171875,-1.1489278078079224,0.14556264877319336,-4.286482810974121
1702063290285588700,0.929588623046875,-0.7995370626449585,0.6946556568145752,-4.577218055725098
1702063290302578700,0.94657861328125,-0.40782076120376587,0.8109438419342041,-4.422321319580078
1702063290319574800,0.96357470703125,-0.037183523178100586,0.7624073028564453,-4.048379898071289
1702063290336568000,0.980568115234375,0.10744106769561768,0.5391862392425537,-3.6014699935913086
1702063290353563600,0.997563720703125,0.2814418077468872,0.4577906131744385,-3.1772327423095703
1702063290370545700,1.014545654296875,0.6161556243896484,0.6138243675231934,-2.9077491760253906
1702063290387549000,1.031548828125,1.024200201034546,0.7738654613494873,-2.5722503662109375
1702063290404544800,1.048544677734375,1.2788225412368774,0.6275253295898438,-2.093691825866699
1702063290421534200,1.0655341796875,1.1775660514831543,-0.057401418685913086,-1.4680147171020508
1702063290438530600,1.082530517578125,0.9225613474845886,-0.9752428531646729,-0.9890556335449219
1702063290455525400,1.099525390625,0.7886158227920532,-1.641146183013916,-0.8599100112915039
1702063290472511200,1.11651123046875,0.9427890777587891,-1.2744405269622803,-1.2939152717590332
1702063290489525200,1.133525146484375,0.9269644618034363,-1.18979811668396,-1.3301105499267578
1702063290506495500,1.15049560546875,0.7858295440673828,-1.9615123271942139,-0.773198127746582
1702063290523494000,1.167493896484375,0.632911205291748,-2.791990041732788,-0.13797569274902344
1702063290540491500,1.184491455078125,0.7309430837631226,-3.1448113918304443,0.39458751678466797
1702063290557485000,1.201485107421875,0.8648043274879456,-2.7915198802948,0.6276540756225586
1702063290574489000,1.218489013671875,0.7492766380310059,-2.320225715637207,0.5330667495727539
1702063290591471900,1.235471923828125,0.6626341342926025,-2.770486354827881,0.4210996627807617
1702063290608479500,1.2524794921875,1.0915310382843018,-3.3462467193603516,0.1965961456298828
1702063290625462800,1.269462890625,1.3391754627227783,-3.9021644592285156,0.31955814361572266
1702063290642445600,1.286445556640625,1.0567163228988647,-4.107844352722168,0.2627410888671875
1702063290659438800,1.30343896484375,0.3121248483657837,-4.816227912902832,0.16551685333251953
1702063290676442400,1.3204423828125,-0.18407297134399414,-6.193848609924316,0.36034202575683594
1702063290693437200,1.337437255859375,-0.28112876415252686,-6.825473785400391,0.10230445861816406
1702063290710427600,1.354427734375,-0.232302725315094,-6.536858558654785,-0.6583003997802734
1702063290727423200,1.37142333984375,0.290671706199646,-6.227363586425781,-0.6663007736206055
1702063290744418600,1.38841845703125,0.3432788848876953,-6.552780628204346,0.15233421325683594
1702063290761408500,1.405408447265625,-0.011234045028686523,-7.440794944763184,1.1364469528198242
1702063290778402600,1.422402587890625,-0.6790302991867065,-8.445621490478516,1.2169075012207031
1702063290795399400,1.4393994140625,-0.005770444869995117,-7.815818786621094,-0.9495029449462891
1702063290812389400,1.456389404296875,1.1527371406555176,-7.527404308319092,-1.8502097129821777
1702063290829386500,1.473386474609375,0.8979474306106567,-8.179620742797852,-0.3246774673461914
1702063290846379300,1.490379150390625,-0.48472750186920166,-9.038418769836426,1.417128562927246
1702063290863373800,1.507373779296875,-1.81398606300354,-9.439682006835938,2.3775014877319336
1702063290880365600,1.524365478515625,-2.7956037521362305,-9.320981979370117,2.5764427185058594
1702063290897360400,1.5413603515625,-3.0601954460144043,-9.12432861328125,2.7212934494018555
1702063290914356000,1.55835595703125,-3.4149041175842285,-9.602523803710938,3.5645742416381836
1702063290931345200,1.57534521484375,-4.17542028427124,-10.03325080871582,3.448944091796875
1702063290948341200,1.59234130859375,-4.326369285583496,-10.155168533325195,1.8934621810913086
1702063290965337000,1.609337158203125,-3.1601195335388184,-9.87765884399414,0.3725442886352539
1702063290982326500,1.626326416015625,-1.4345468282699585,-9.829559326171875,-0.25053977966308594
1702063290999308800,1.643308837890625,0.42268872261047363,-9.862706184387207,-0.1806812286376953
1702063291016316200,1.660316162109375,1.6607346534729004,-9.768646240234375,0.24774932861328125
1702063291033301500,1.677301513671875,1.3871405124664307,-9.639921188354492,0.8320064544677734
1702063291050301700,1.6943017578125,0.2103421688079834,-9.3818998336792,0.8756446838378906
1702063291067297000,1.711297119140625,-0.9089288711547852,-8.77795124053955,0.11168479919433594
1702063291084288300,1.728288330078125,-1.7363755702972412,-8.19018268585205,-0.6722145080566406
1702063291101286700,1.74528662109375,-2.235761880874634,-7.586862564086914,-1.1182622909545898
1702063291118279400,1.762279541015625,-2.2648541927337646,-7.06567907333374,-1.2197589874267578
1702063291135273700,1.779273681640625,-1.9937469959259033,-6.659902095794678,-1.331019401550293
1702063291152265000,1.796264892578125,-1.607816457748413,-6.023581504821777,-1.7452421188354492
1702063291169256200,1.813256103515625,-1.3109025955200195,-5.267900466918945,-2.1888885498046875
1702063291186258700,1.8302587890625,-1.425761103630066,-4.656252384185791,-2.6188316345214844
1702063291203259000,1.8472587890625,-1.5715488195419312,-4.058918476104736,-2.9909725189208984
1702063291220231700,1.864231689453125,-1.7982409000396729,-3.369381904602051,-3.2319884300231934
1702063291237241000,1.881240966796875,-2.026512861251831,-2.8245959281921387,-3.313577651977539
1702063291254230800,1.898230712890625,-2.067237377166748,-2.2632510662078857,-3.6220779418945312
1702063291271218000,1.915218017578125,-1.7794996500015259,-1.781804084777832,-3.969851493835449
1702063291288219400,1.932219482421875,-1.3845362663269043,-1.487640619277954,-4.266215801239014
1702063291305204500,1.94920458984375,-0.8843785524368286,-1.261169195175171,-4.372893810272217
1702063291322206000,1.9662060546875,-0.3434324264526367,-1.0340290069580078,-4.310690402984619
1702063291339194600,1.983194580078125,-0.03920793533325195,-0.8432309627532959,-3.815476417541504
1702063291356187600,2.000187744140625,-0.20070314407348633,-0.44417881965637207,-3.4699931144714355
1702063291373184000,2.01718408203125,-0.37350761890411377,-0.5511655807495117,-2.962879180908203
1702063291390178300,2.03417822265625,-0.42684197425842285,-0.8529486656188965,-2.678050994873047
1702063291407174100,2.051174072265625,-0.11748385429382324,-0.877718448638916,-2.639655113220215
1702063291424172500,2.068172607421875,0.5529874563217163,-0.6546139717102051,-2.3983001708984375
1702063291441162500,2.08516259765625,1.020527958869934,-0.5327348709106445,-1.8150663375854492
1702063291458152700,2.102152587890625,1.3190513849258423,-0.45857906341552734,-1.094686508178711
1702063291475161600,2.11916162109375,1.6020652055740356,-0.38085460662841797,-0.4869709014892578
1702063291492137500,2.136137451171875,1.7167391777038574,-0.8153553009033203,-0.10764598846435547
1702063291509134600,2.153134521484375,1.8974578380584717,-0.7308745384216309,-0.46237754821777344
1702063291526127900,2.1701279296875,2.105649471282959,-0.3740882873535156,-0.8114204406738281
1702063291543118800,2.187118896484375,2.0997209548950195,-0.0799713134765625,-0.37492942810058594
1702063291560115700,2.20411572265625,1.5596648454666138,-0.12391853332519531,0.8796977996826172
1702063291577108500,2.2211083984375,0.8693405389785767,-0.7996554374694824,1.8228321075439453
1702063291594104000,2.23810400390625,0.5837428569793701,-0.7407746315002441,1.4573163986206055
1702063291611093200,2.25509326171875,0.7799454927444458,-0.7153067588806152,0.9467573165893555
1702063291628089900,2.27208984375,1.3732552528381348,-0.8195028305053711,0.8234710693359375
1702063291645085000,2.2890849609375,1.8707246780395508,-1.0172700881958008,1.5493955612182617
1702063291662075100,2.3060751953125,1.6350032091140747,-1.4868812561035156,2.9096412658691406
1702063291679077600,2.32307763671875,1.4053540229797363,-1.5492615699768066,3.244174003601074
1702063291696064500,2.340064453125,1.2122613191604614,-1.3037958145141602,2.319310188293457
1702063291713056500,2.357056396484375,0.914698600769043,-1.0863208770751953,1.478363037109375
1702063291730050300,2.37405029296875,0.5377895832061768,-1.0779876708984375,1.616988182067871
1702063291747048000,2.3910478515625,0.2343308925628662,-1.2132568359375,2.0584287643432617
1702063291764041000,2.408041015625,0.19600844383239746,-1.1514606475830078,2.0162429809570312
1702063291781030700,2.42503076171875,0.2756819725036621,-1.0017669200897217,1.3823528289794922
1702063291798027000,2.442027099609375,1.2994260787963867,-1.0539116859436035,2.7614355087280273
1702063291815028000,2.459028076171875,2.4847476482391357,-0.10145139694213867,2.352078437805176
1702063291832011800,2.47601171875,2.405561685562134,0.12348675727844238,0.8991708755493164
1702063291849012500,2.493012451171875,1.6132805347442627,0.37940144538879395,0.05943489074707031
1702063291865991000,2.509990966796875,0.13968443870544434,0.8732631206512451,0.35678863525390625
1702063291882992000,2.5269921875,-0.5233018398284912,1.2269716262817383,1.5230512619018555
1702063291899987500,2.543987548828125,-0.8183817863464355,1.0453672409057617,2.5618467330932617
1702063291916984600,2.560984619140625,-0.9877076148986816,0.9159185886383057,2.0730066299438477
1702063291933985800,2.57798583984375,-0.5831491947174072,0.8985488414764404,0.5929250717163086
1702063291950965800,2.5949658203125,0.0005855560302734375,0.6781034469604492,-0.6983146667480469
1702063291967965000,2.61196484375,0.49030888080596924,0.24340224266052246,-1.217071533203125
1702063291984958700,2.628958740234375,0.9546977281570435,-0.12739849090576172,-0.35162353515625
1702063292001948700,2.64594873046875,1.4225127696990967,-0.3272857666015625,1.3282794952392578
1702063292018945500,2.662945556640625,1.7434638738632202,-0.38268589973449707,2.214994430541992
1702063292035939300,2.679939208984375,1.995417594909668,-0.30998921394348145,1.832749366760254
1702063292052930000,2.696929931640625,2.094050645828247,-0.23165535926818848,0.982518196105957
1702063292069927700,2.713927734375,1.747483491897583,-0.1054074764251709,0.5013036727905273
1702063292086919400,2.73091943359375,1.050504446029663,0.14226222038269043,0.8787117004394531
1702063292103914800,2.747914794921875,0.4311666488647461,0.4278829097747803,1.6918630599975586
1702063292120905000,2.764905029296875,0.011097908020019531,0.5749166011810303,2.2241859436035156
1702063292137900800,2.78190087890625,-0.08463692665100098,0.5407991409301758,1.7939414978027344
1702063292154896000,2.798895751953125,0.11290156841278076,0.49613285064697266,0.7032546997070312
1702063292171885600,2.815885498046875,0.5401926040649414,0.4600245952606201,-0.2542543411254883
1702063292188871700,2.83287158203125,0.8740650415420532,0.3187580108642578,-0.7131834030151367
1702063292205877800,2.849877685546875,0.7398867607116699,-0.15607619285583496,-1.1171998977661133
1702063292222866400,2.866866455078125,0.8625359535217285,-0.8971831798553467,-1.585111141204834
1702063292239863800,2.88386376953125,2.0275185108184814,-1.0550994873046875,-1.8663902282714844
1702063292256856800,2.90085693359375,3.1558656692504883,-0.5962123870849609,-1.9287505149841309
1702063292273848800,2.917848876953125,3.118438243865967,-0.11190462112426758,-1.801194667816162
1702063292290845000,2.934844970703125,1.769273042678833,0.12408828735351562,-1.525810718536377
1702063292307837700,2.951837646484375,0.012804478406906128,0.2673988342285156,-1.3646125793457031
1702063292324833000,2.9688330078125,-1.2832236289978027,0.1336822509765625,-1.2815303802490234
1702063292341823200,2.9858232421875,-1.9293328523635864,-0.34001874923706055,-1.3596382141113281
1702063292358831900,3.002831787109375,-1.2512328624725342,-1.044727087020874,-1.00775146484375
1702063292375815400,3.0198154296875,0.5762618780136108,-1.2225892543792725,-0.11688709259033203
1702063292392802800,3.036802734375,1.64797842502594,-1.018937587738037,1.0301361083984375
1702063292409801200,3.05380126953125,1.9549113512039185,-1.1059935092926025,1.2645769119262695
1702063292426795500,3.07079541015625,1.5771949291229248,-1.6609728336334229,0.3208770751953125
1702063292443787000,3.087787109375,0.9982247948646545,-2.161377429962158,-1.0254077911376953
1702063292460779000,3.104779052734375,0.5295315980911255,-2.470233201980591,-1.898383617401123
1702063292477775000,3.121775146484375,0.1467834711074829,-2.65861439704895,-1.8772649765014648
1702063292494770000,3.13877001953125,-0.35836493968963623,-3.0409493446350098,-1.0448808670043945
1702063292511763200,3.15576318359375,-1.0526001453399658,-3.448431968688965,-0.4710979461669922
1702063292528757000,3.172757080078125,-1.3331685066223145,-3.603473663330078,-0.72198486328125
1702063292545748200,3.189748291015625,-1.4499503374099731,-3.7725133895874023,-1.2468948364257812
1702063292562746600,3.20674658203125,-1.786460280418396,-3.6892971992492676,-2.0818285942077637
1702063292579738000,3.223738037109375,-2.2913293838500977,-3.5698418617248535,-2.7132201194763184
1702063292596732000,3.24073193359375,-2.18562650680542,-4.032040119171143,-3.111691474914551
1702063292613728800,3.257728759765625,-2.0448334217071533,-3.8812503814697266,-2.1989269256591797
1702063292630711300,3.274711181640625,-1.9195795059204102,-4.895561218261719,-1.415816307067871
1702063292647715800,3.2917158203125,-2.571011543273926,-5.717773914337158,-0.7875099182128906
1702063292664706600,3.30870654296875,-3.0923829078674316,-6.198315143585205,-0.9265689849853516
1702063292681700600,3.32570068359375,-3.089982032775879,-5.965587615966797,-1.714615821838379
1702063292698693600,3.342693603515625,-2.9533474445343018,-5.584170818328857,-2.4349985122680664
1702063292715687700,3.359687744140625,-2.6596572399139404,-5.471665382385254,-2.815725803375244
1702063292732681500,3.376681396484375,-2.0134685039520264,-5.803869247436523,-2.5820226669311523
1702063292749675300,3.39367529296875,-1.7927544116973877,-6.3649444580078125,-2.068727970123291
1702063292766654500,3.410654541015625,-2.139158248901367,-6.740385055541992,-2.1874637603759766
1702063292783665000,3.427664794921875,-2.103921890258789,-7.386480331420898,-2.3573780059814453
1702063292800656400,3.444656494140625,-1.173372507095337,-8.1068754196167,-2.533341407775879
1702063292817650200,3.461650146484375,0.020705580711364746,-8.89385986328125,-1.8092107772827148
1702063292834643200,3.478643310546875,0.7981458902359009,-9.092144966125488,-0.3452167510986328
1702063292851637500,3.495637451171875,-0.12053060531616211,-8.504199981689453,0.9017448425292969
1702063292868631000,3.512631103515625,-1.863556146621704,-8.202815055847168,1.467656135559082
1702063292885624800,3.529624755859375,-3.002671718597412,-7.8013811111450195,1.4042186737060547
1702063292902618000,3.5466181640625,-3.310418128967285,-7.6494951248168945,1.5507097244262695
1702063292919609300,3.563609375,-2.1306777000427246,-7.69149112701416,2.0127038955688477
1702063292936608500,3.5806083984375,-0.6473727822303772,-7.605736255645752,2.893733024597168
1702063292953599700,3.597599853515625,-0.2540144920349121,-7.286552429199219,4.100790977478027
1702063292970593000,3.614593017578125,-1.0161538124084473,-7.178508281707764,4.291530609130859
1702063292987586800,3.6315869140625,-2.6958932876586914,-7.117863655090332,3.2842025756835938
1702063293004580600,3.64858056640625,-3.7850069999694824,-7.018543720245361,2.2572851181030273
1702063293021574700,3.66557470703125,-4.328282833099365,-6.956182479858398,1.855733871459961
1702063293038567700,3.682567626953125,-4.400448322296143,-7.165009498596191,1.8715782165527344
1702063293055562000,3.69956201171875,-3.750769853591919,-7.543373107910156,1.3835954666137695
1702063293072555500,3.716555419921875,-2.4200069904327393,-7.84827184677124,0.7020139694213867
1702063293089549300,3.73354931640625,-1.1875336170196533,-7.7722649574279785,0.101287841796875
1702063293106534400,3.750534423828125,-1.8589866161346436,-7.498899936676025,-0.47510623931884766
1702063293123536600,3.76753662109375,-3.5049448013305664,-7.396330833435059,-1.0629301071166992
1702063293140520000,3.78452001953125,-4.467128753662109,-7.330535411834717,-1.5460224151611328
1702063293157524200,3.801524169921875,-3.698883056640625,-7.126355171203613,-1.8920354843139648
1702063293174517500,3.818517578125,-2.4133992195129395,-6.951228618621826,-1.8965511322021484
1702063293191511300,3.83551123046875,-1.4523158073425293,-6.716494560241699,-1.6592025756835938
1702063293208505300,3.85250537109375,-1.0452673435211182,-6.245021820068359,-1.6679115295410156
1702063293225499000,3.869498779296875,-1.3313568830490112,-5.757270812988281,-1.977090835571289
1702063293242492200,3.8864921875,-1.8425861597061157,-5.278266906738281,-2.135542869567871
1702063293259486200,3.903486328125,-2.512075901031494,-5.000583648681641,-2.1990747451782227
1702063293276480000,3.92047998046875,-1.8744299411773682,-5.13381814956665,-1.8947372436523438
1702063293293473800,3.937473876953125,-0.5546919107437134,-4.526786804199219,-1.9239730834960938
1702063293310467000,3.954467041015625,-0.2679283618927002,-3.8575022220611572,-2.266180992126465
1702063293327458300,3.971458251953125,-1.134397029876709,-3.37308931350708,-2.711698532104492
1702063293344457500,3.98845751953125,-2.137666940689087,-2.9904556274414062,-2.9901905059814453
1702063293361448700,4.00544873046875,-2.7377090454101562,-2.5666415691375732,-2.748556137084961
1702063293378442000,4.02244189453125,-2.662971258163452,-2.129276752471924,-2.3076133728027344
1702063293395435800,4.039435791015625,-2.0359511375427246,-1.7877802848815918,-1.9820241928100586
1702063293412429600,4.0564296875,-1.110222578048706,-1.523160696029663,-2.0190372467041016
1702063293429423600,4.073423583984375,-0.22253531217575073,-1.5723047256469727,-2.0471458435058594
1702063293446416600,4.090416748046875,0.16260361671447754,-1.647730827331543,-1.9782257080078125
1702063293463411000,4.107410888671875,0.33201879262924194,-1.4518167972564697,-2.048272132873535
1702063293480399000,4.124399169921875,0.28450730443000793,-1.222912073135376,-1.8845272064208984
1702063293497398300,4.141398193359375,0.2883909046649933,-0.8379487991333008,-1.7117700576782227
1702063293514374100,4.1583740234375,0.47744739055633545,-0.7046172618865967,-1.614699363708496
1702063293531385900,4.1753857421875,0.8769810199737549,-0.8039560317993164,-1.8296823501586914
1702063293548379000,4.19237890625,1.4483057260513306,-0.8592300415039062,-2.120420455932617
1702063293565374700,4.209374755859375,1.9027519226074219,-0.8059136867523193,-2.015183448791504
1702063293582365000,4.226364990234375,1.9562690258026123,-0.5309083461761475,-1.5384249687194824
1702063293599360000,4.243360107421875,1.8273727893829346,-0.09987449645996094,-1.076491355895996
1702063293616354600,4.2603544921875,1.726783275604248,0.12261795997619629,-0.7641391754150391
1702063293633345500,4.277345458984375,1.90035080909729,0.1559305191040039,-0.8142070770263672
1702063293650343700,4.29434375,2.278275489807129,0.3618049621582031,-1.0628957748413086
1702063293667335200,4.311335205078125,2.4884181022644043,0.9026236534118652,-1.1188602447509766
1702063293684329000,4.328328857421875,1.9110983610153198,1.1297812461853027,-0.42015552520751953
1702063293701322800,4.34532275390625,1.3285316228866577,1.3800978660583496,0.3495149612426758
1702063293718316000,4.36231591796875,1.0314569473266602,1.4124977588653564,0.9054059982299805
1702063293735309800,4.379309814453125,0.9373633861541748,1.301884651184082,1.4035816192626953
1702063293752303600,4.3963037109375,0.9963527917861938,0.9964652061462402,1.7486906051635742
1702063293769297700,4.413297607421875,1.195906639099121,0.7888059616088867,1.9356155395507812
1702063293786281000,4.430281005859375,1.5609092712402344,0.7160522937774658,2.106287956237793
1702063293803284700,4.44728466796875,1.841992735862732,0.8350663185119629,2.384469985961914
1702063293820278500,4.464278564453125,1.6682500839233398,0.6588621139526367,2.7436609268188477
1702063293837272600,4.4812724609375,1.2577247619628906,0.174818754196167,2.776826858520508
1702063293854265900,4.498265869140625,0.7853717803955078,-0.5682523250579834,2.510867118835449
1702063293871259600,4.515259765625,0.9476163387298584,-1.0406668186187744,2.2468156814575195
1702063293888243200,4.5322431640625,1.272343635559082,-1.40594482421875,3.8615732192993164
1702063293905240600,4.549240478515625,2.3974649906158447,-0.3522186279296875,8.100826263427734
1702063293922240300,4.566240234375,2.1001083850860596,0.46073102951049805,5.445584297180176
1702063293939234300,4.583234375,0.7707822322845459,-0.218522310256958,1.1278676986694336
1702063293956226000,4.60022607421875,0.27030038833618164,-0.28025150299072266,-0.8203659057617188
1702063293973224400,4.617224365234375,-0.2847929000854492,-0.09549403190612793,0.25426387786865234
1702063293990215200,4.634215087890625,-0.7807314395904541,0.4383547306060791,1.9063892364501953
1702063294007212800,4.651212890625,-0.4647533893585205,0.7720234394073486,1.6087884902954102
1702063294024199400,4.668199462890625,-0.09306049346923828,0.7886166572570801,0.5329017639160156
1702063294041196800,4.68519677734375,-0.06008577346801758,0.8735768795013428,-0.7267265319824219
1702063294058190000,4.702190185546875,0.3351123332977295,0.888617992401123,-1.4308714866638184
1702063294075181800,4.719181884765625,0.7242486476898193,0.5633525848388672,-1.2416868209838867
1702063294092180000,4.736179931640625,0.8234269618988037,0.10299158096313477,-0.12358856201171875
1702063294109172000,4.753171875,0.7303013801574707,-0.4769895076751709,1.1090106964111328
1702063294126164700,4.770164794921875,0.5570824146270752,-0.6462655067443848,1.7747745513916016
1702063294143142400,4.787142333984375,0.6038081645965576,-0.5071637630462646,2.0692615509033203
1702063294160152800,4.80415283203125,1.0595673322677612,-0.34665822982788086,2.309213638305664
1702063294177149200,4.821149169921875,1.420128345489502,-0.374417781829834,2.43496036529541
1702063294194137000,4.83813720703125,1.5736809968948364,-0.43360447883605957,2.4617481231689453
1702063294211133700,4.8551337890625,1.657024621963501,-0.559798002243042,2.229452133178711
1702063294228129500,4.872129638671875,1.8755290508270264,-0.4843912124633789,1.985128402709961
1702063294245119200,4.889119140625,1.7134885787963867,-0.4217536449432373,1.9817962646484375
1702063294262114600,4.906114501953125,1.178059697151184,-0.46496009826660156,1.8853464126586914
1702063294279110400,4.9231103515625,0.6127369403839111,-0.5465607643127441,1.1583280563354492
1702063294296100600,4.9401005859375,0.41093719005584717,-0.512481689453125,0.251190185546875
1702063294313096200,4.95709619140625,0.5069522857666016,-0.33928918838500977,-0.0907602310180664
1702063294330089500,4.97408935546875,0.6166166067123413,-0.13099932670593262,0.09002971649169922
1702063294347080700,4.991080810546875,0.6452741622924805,0.014200687408447266,0.030397415161132812
1702063294364079600,5.00807958984375,0.6664426922798157,0.05627799034118652,-0.5167131423950195
1702063294381069300,5.0250693359375,0.5867525339126587,-0.0272672176361084,-1.1416645050048828
1702063294398063400,5.0420634765625,0.5674905776977539,-0.046753644943237305,-1.5436477661132812
1702063294415060700,5.059060791015625,0.7499098777770996,-0.08131265640258789,-1.5787324905395508
1702063294432052000,5.076052001953125,0.9063840508460999,-0.24993467330932617,-1.3070755004882812
1702063294449045800,5.093045654296875,1.020707130432129,-0.492051362991333,-0.8922185897827148
1702063294466039000,5.1100390625,1.1982640027999878,-0.7796998023986816,-0.8603200912475586
1702063294483033000,5.127033203125,1.2872014045715332,-0.9394352436065674,-1.2222185134887695
1702063294500027000,5.14402685546875,0.9967190027236938,-1.022455096244812,-1.6672873497009277
1702063294517020700,5.161020751953125,0.5147095918655396,-1.089673638343811,-2.1333560943603516
1702063294534013700,5.178013671875,-0.21636343002319336,-1.2279354333877563,-2.6755104064941406
1702063294550997200,5.194997314453125,-0.6459883451461792,-1.514319658279419,-2.883441925048828
1702063294568001500,5.21200146484375,-0.5995658040046692,-1.7724404335021973,-2.5746426582336426
1702063294584992800,5.22899267578125,-0.4052383601665497,-1.9199243783950806,-1.0389328002929688
1702063294601991200,5.2459912109375,-0.10260462760925293,-2.0672035217285156,0.40080738067626953
1702063294618973000,5.262972900390625,-0.35763323307037354,-2.0350351333618164,0.4526185989379883
1702063294635966000,5.279966064453125,-0.7736929059028625,-1.968577265739441,-0.6561269760131836
1702063294652970200,5.29697021484375,-1.351501703262329,-2.064453601837158,-1.9481005668640137
1702063294669963300,5.31396337890625,-1.6496715545654297,-2.3946785926818848,-2.8740458488464355
1702063294686957600,5.33095751953125,-1.2302924394607544,-2.816429615020752,-3.10378360748291
1702063294703951400,5.347951416015625,-0.3144550919532776,-3.0730764865875244,-2.3296117782592773
1702063294720945000,5.36494482421875,0.1148993968963623,-3.6465959548950195,-1.303757667541504
1702063294737937200,5.381937255859375,0.32906806468963623,-4.021266460418701,-0.5927801132202148
1702063294754920200,5.398920166015625,-0.19843220710754395,-4.568054676055908,-0.47797107696533203
1702063294771928800,5.4159287109375,-0.6991292834281921,-5.091410160064697,-0.9439229965209961
1702063294788919800,5.432919921875,-1.3322994709014893,-5.272314071655273,-1.1067285537719727
1702063294805913300,5.449913330078125,-1.5489672422409058,-5.1867876052856445,-1.480997085571289
1702063294822907100,5.4669072265625,-2.0438449382781982,-5.6012773513793945,-1.2886152267456055
1702063294839901000,5.48390087890625,-2.1060056686401367,-6.09133243560791,-0.5840082168579102
1702063294856894700,5.500894775390625,-2.1441454887390137,-6.242040634155273,0.005305290222167969
1702063294873887700,5.5178876953125,-1.7072951793670654,-6.360470294952393,1.111886978149414
1702063294890879500,5.53487939453125,-1.727960228919983,-6.252094745635986,1.658559799194336
1702063294907878100,5.551878173828125,-1.7334387302398682,-6.201523780822754,1.6069574356079102
1702063294924869600,5.56886962890625,-1.5662317276000977,-6.357987880706787,1.5675430297851562
1702063294941862700,5.585862548828125,-1.5765995979309082,-6.850198268890381,1.428666114807129
1702063294958856700,5.602856689453125,-1.5322198867797852,-7.301562786102295,0.6569433212280273
1702063294975850500,5.6198505859375,-1.609977126121521,-7.337869644165039,-0.5014142990112305
1702063294992843000,5.636843017578125,-1.492706298828125,-7.115720748901367,-1.0242547988891602
1702063295009838800,5.6538388671875,-1.6209020614624023,-6.710507869720459,-0.2765541076660156
1702063295026831600,5.67083154296875,-1.8960802555084229,-6.735198974609375,1.9834470748901367
1702063295043825400,5.687825439453125,-2.2430617809295654,-6.868624687194824,3.9576797485351562
1702063295060819200,5.704819091796875,-2.8783979415893555,-6.585644721984863,3.9172773361206055
1702063295077812000,5.72181201171875,-3.195981502532959,-6.259337425231934,2.8781938552856445
1702063295094806300,5.73880615234375,-2.918917655944824,-6.264061450958252,2.3058223724365234
1702063295111800000,5.755800048828125,-2.5531725883483887,-6.452288627624512,3.161752700805664
1702063295128791300,5.772791259765625,-2.5457139015197754,-6.815853595733643,4.4578447341918945
1702063295145791500,5.78979150390625,-2.831946849822998,-6.99636697769165,4.7826128005981445
1702063295162776800,5.80677685546875,-3.208937644958496,-7.032706260681152,3.847024917602539
1702063295179777500,5.823777587890625,-3.4979074001312256,-7.071861267089844,2.5747766494750977
1702063295196766200,5.84076611328125,-3.6571788787841797,-7.296849727630615,1.46728515625
1702063295213762000,5.857761962890625,-3.4788708686828613,-7.469980239868164,0.9080972671508789
1702063295230755800,5.874755859375,-3.2677369117736816,-7.536314010620117,0.7292032241821289
1702063295247750000,5.89175,-3.36061954498291,-7.371097564697266,0.7765665054321289
1702063295264743700,5.90874365234375,-3.745872974395752,-6.99812126159668,0.5814895629882812
1702063295281733400,5.9257333984375,-3.9834980964660645,-6.4906768798828125,-0.10556793212890625
1702063295298730800,5.942730712890625,-3.784414768218994,-6.3186445236206055,-0.7784309387207031
1702063295315724800,5.959724853515625,-3.149693489074707,-6.299480438232422,-1.2524490356445312
1702063295332718300,5.97671826171875,-2.4549264907836914,-6.2242112159729,-1.5307483673095703
1702063295349711600,5.993711669921875,-2.0148653984069824,-5.7349653244018555,-1.7250537872314453
1702063295366705700,6.01070556640625,-1.585815668106079,-5.177460193634033,-1.5891704559326172
1702063295383681500,6.027681640625,-1.851912260055542,-4.700212478637695,-1.5439109802246094
1702063295400693200,6.044693359375,-2.6536335945129395,-4.639559268951416,-1.5829534530639648
1702063295417683700,6.06168359375,-2.897937774658203,-4.856400012969971,-1.8905816078186035
1702063295434683000,6.078682861328125,-2.1681246757507324,-4.882119178771973,-2.585587501525879
1702063295451674000,6.095674072265625,-0.8229749798774719,-4.691312789916992,-2.8080368041992188
1702063295468668200,6.112668212890625,0.07259678840637207,-3.916426181793213,-2.1601181030273438
1702063295485661200,6.1296611328125,-0.05719637870788574,-3.2837281227111816,-1.5177059173583984
1702063295502652700,6.146652587890625,-0.4051041603088379,-2.9813716411590576,-1.4637670516967773
1702063295519651600,6.163651611328125,-0.5999225974082947,-2.604435920715332,-1.9721307754516602
1702063295536642800,6.180642822265625,-0.3872748613357544,-2.180410385131836,-2.628385543823242
1702063295553634600,6.197634521484375,0.16114404797554016,-1.9247925281524658,-3.041095733642578
1702063295570631400,6.21463134765625,0.8049882650375366,-1.6927003860473633,-3.013657569885254
1702063295587623700,6.231623779296875,1.564359188079834,-1.5069859027862549,-2.100815773010254
1702063295604620500,6.24862060546875,2.3478777408599854,-1.271500825881958,-1.132080078125
1702063295621608000,6.26560791015625,2.7155556678771973,-1.0716698169708252,-0.8268718719482422
1702063295638604800,6.282604736328125,2.4196975231170654,-0.7920281887054443,-1.3244075775146484
1702063295655598600,6.2995986328125,2.1395585536956787,-0.47455573081970215,-1.8189125061035156
1702063295672592600,6.316592529296875,1.6774739027023315,-0.06974053382873535,-2.031040668487549
1702063295689585700,6.333585693359375,1.5133485794067383,0.029875755310058594,-1.6626801490783691
1702063295706569200,6.3505693359375,1.7538518905639648,0.03730440139770508,-0.5893783569335938
1702063295723573500,6.367573486328125,2.030064821243286,0.1789400577545166,0.6175012588500977
1702063295740567300,6.3845673828125,2.0738017559051514,0.5338411331176758,1.2480335235595703
1702063295757560600,6.401560546875,1.9187361001968384,1.0211501121520996,1.1985769271850586
1702063295774554400,6.418554443359375,2.1151180267333984,1.191202163696289,0.899169921875
1702063295791545600,6.435545654296875,2.2532856464385986,0.5514557361602783,0.9488801956176758
1702063295808532000,6.452531982421875,2.635478973388672,0.32231903076171875,0.9072437286376953
1702063295825527600,6.469527587890625,2.441917896270752,0.6455216407775879,0.850337028503418
1702063295842529000,6.486529052734375,1.9267213344573975,1.2067959308624268,0.5112667083740234
1702063295859523300,6.5035234375,1.391921877861023,1.1741151809692383,0.8043384552001953
1702063295876504300,6.52050439453125,0.8549783229827881,0.18205571174621582,1.9481945037841797
1702063295893512400,6.537512451171875,1.0940883159637451,-0.1648695468902588,2.1027441024780273
1702063295910504200,6.554504150390625,1.6688851118087769,0.42494916915893555,2.161069869995117
1702063295927497700,6.571497802734375,1.9025245904922485,1.249326467514038,2.823716163635254
1702063295944491500,6.588491455078125,1.9076204299926758,0.7082371711730957,5.028532028198242
1702063295961484800,6.60548486328125,2.1335318088531494,-0.689708948135376,6.578683853149414
1702063295978481200,6.622481201171875,2.377005100250244,-1.3379082679748535,5.73348331451416
1702063295995472600,6.63947265625,2.7159371376037598,-1.7388842105865479,3.7904434204101562
1702063296012466400,6.656466552734375,2.8897688388824463,-1.6352083683013916,1.5637216567993164
1702063296029449500,6.673449462890625,2.8713505268096924,-1.1864497661590576,0.02436542510986328
1702063296046453800,6.690453857421875,2.2751951217651367,-0.7954611778259277,0.3570384979248047
1702063296063447600,6.707447509765625,0.8831667900085449,-1.219069242477417,1.432267189025879
1702063296080441300,6.72444140625,0.31436610221862793,-1.4971117973327637,0.910395622253418
1702063296097434600,6.7414345703125,0.9932060241699219,-1.0289733409881592,-0.772007942199707
1702063296114428400,6.758428466796875,1.440448522567749,-0.3039743900299072,-1.830240249633789
1702063296131422000,6.775421875,0.8708648681640625,0.3048739433288574,-1.2544498443603516
1702063296148406300,6.79240625,-0.22167325019836426,0.5475537776947021,0.37348365783691406
1702063296165409300,6.8094091796875,-1.1018657684326172,0.7273581027984619,1.6916351318359375
1702063296182403300,6.8264033203125,-1.3412039279937744,1.2485127449035645,2.053225517272949
1702063296199397000,6.843397216796875,-1.111785650253296,1.6941328048706055,1.9751806259155273
1702063296216391400,6.860391357421875,-0.8365402221679688,1.6998631954193115,1.8206701278686523
1702063296233384000,6.877384033203125,-0.5840930938720703,1.4673550128936768,1.7060279846191406
1702063296250367700,6.89436767578125,-0.3254423141479492,1.069049596786499,1.8284502029418945
1702063296267372000,6.9113720703125,0.3574225902557373,0.8885951042175293,2.0723838806152344
1702063296284365800,6.92836572265625,0.9336493015289307,0.837228536605835,2.4825849533081055
1702063296301358800,6.94535888671875,1.1231257915496826,0.8625037670135498,2.6315183639526367
1702063296318353000,6.962352783203125,0.9256422519683838,0.7696459293365479,2.280029296875
1702063296335346700,6.9793466796875,0.5514390468597412,0.66019606590271,1.724374771118164
1702063296352340500,6.996340576171875,0.14189386367797852,0.7393081188201904,1.2522048950195312
1702063296369324500,7.013324462890625,-0.02725076675415039,0.7126312255859375,1.2622480392456055
1702063296386327800,7.030327880859375,0.22151994705200195,0.6420183181762695,1.5376701354980469
1702063296403321600,7.047321533203125,0.9254741668701172,0.6370530128479004,1.8214683532714844
1702063296420315400,7.0643154296875,1.5220304727554321,0.6176009178161621,1.9569473266601562
1702063296437305900,7.081305908203125,1.7682039737701416,0.5122907161712646,1.7513017654418945
1702063296454305300,7.09830517578125,1.4786452054977417,0.24868011474609375,1.107187271118164
1702063296471296300,7.115296142578125,1.274942398071289,0.2123885154724121,0.25879383087158203
1702063296488290000,7.1322900390625,1.0575296878814697,0.24508929252624512,-0.49150848388671875
1702063296505288700,7.149288818359375,1.0955437421798706,0.20804071426391602,-0.7546777725219727
1702063296522277400,7.16627734375,1.308050274848938,0.07488250732421875,-0.3615560531616211
1702063296539271200,7.183271240234375,1.6255085468292236,-0.17017507553100586,-0.12616825103759766
1702063296556265000,7.200264892578125,1.7353237867355347,-0.27298641204833984,-0.3449745178222656
1702063296573258200,7.21725830078125,1.6410901546478271,-0.3079185485839844,-0.7976646423339844
1702063296590252300,7.234252197265625,1.336369514465332,-0.330366849899292,-1.1039295196533203
1702063296607245800,7.251245849609375,0.8348765969276428,-0.5038292407989502,-1.3131837844848633
1702063296624239600,7.268239501953125,0.43173500895500183,-0.6798665523529053,-1.4547138214111328
1702063296641230300,7.285230224609375,0.7929909229278564,-1.1022059917449951,-1.4685735702514648
1702063296658229500,7.3022294921875,1.8245867490768433,-1.368133306503296,-1.5424041748046875
1702063296675220500,7.319220458984375,2.5817768573760986,-0.982396125793457,-1.459770679473877
1702063296692198400,7.336198486328125,2.179079294204712,-0.9555482864379883,-1.4378128051757812
1702063296709207800,7.353207763671875,1.1248730421066284,-1.5424880981445312,-1.7293334007263184
1702063296726201600,7.37020166015625,0.19413816928863525,-1.685208797454834,-2.531972885131836
1702063296743195400,7.3871953125,-0.24717611074447632,-1.495802640914917,-3.2654905319213867
1702063296760178700,7.4041787109375,-0.3160863518714905,-1.4386903047561646,-3.518702507019043
1702063296777182500,7.421182373046875,-0.13714128732681274,-1.5693918466567993,-3.350428581237793
1702063296794176500,7.438176513671875,-0.29004764556884766,-1.8560633659362793,-2.3976263999938965
1702063296811170300,7.45517041015625,-0.6357320547103882,-2.014925479888916,-1.8950672149658203
1702063296828164000,7.4721640625,-1.3868064880371094,-2.2546448707580566,-2.288132667541504
1702063296845157400,7.489157470703125,-2.0333783626556396,-2.675109386444092,-2.9600753784179688
1702063296862152200,7.506152099609375,-1.8510665893554688,-3.199096918106079,-2.93851375579834
1702063296879144200,7.523144287109375,-1.5520648956298828,-3.720454454421997,-2.3281469345092773
1702063296896139000,7.540138916015625,-1.8360710144042969,-4.492334365844727,-1.3852062225341797
1702063296913132000,7.557132080078125,-1.9922994375228882,-4.789196968078613,-0.8032369613647461
1702063296930126300,7.574126220703125,-2.332188844680786,-4.783370018005371,-0.29616737365722656
1702063296947119900,7.591119873046875,-2.61779522895813,-4.87771463394165,-0.6726512908935547
1702063296964113700,7.60811376953125,-2.581810235977173,-5.267246246337891,-1.1025285720825195
1702063296981107000,7.62510693359375,-2.4176464080810547,-5.477559566497803,-0.984461784362793
1702063296998093600,7.642093505859375,-2.1914656162261963,-5.611677169799805,-0.16440582275390625
1702063297015094800,7.6590947265625,-2.130357027053833,-5.561971664428711,0.5760316848754883
1702063297032088600,7.676088623046875,-2.634990930557251,-5.361685276031494,0.5422039031982422
1702063297049077500,7.693077392578125,-2.8019938468933105,-5.584912300109863,0.4596080780029297
1702063297066087200,7.710087158203125,-1.1596612930297852,-5.870965480804443,0.7233495712280273
1702063297083069700,7.727069580078125,0.3946110010147095,-5.834999084472656,1.5017423629760742
1702063297100063200,7.744063232421875,-0.13799984753131866,-5.6917829513549805,1.8673200607299805
1702063297117056800,7.761056884765625,-1.2192550897598267,-6.03109884262085,1.780989646911621
1702063297134050600,7.778050537109375,-1.0986167192459106,-6.110527992248535,1.4140920639038086
1702063297151035600,7.79503564453125,1.2236131429672241,-5.960991859436035,1.7687435150146484
1702063297168038100,7.8120380859375,2.7729909420013428,-6.215880393981934,2.6612749099731445
1702063297185031700,7.82903173828125,2.294283151626587,-6.4062957763671875,3.5940961837768555
1702063297202025200,7.846025146484375,0.22968646883964539,-6.654419422149658,2.5457544326782227
1702063297219019000,7.86301904296875,-1.5787904262542725,-7.5236897468566895,-1.0338830947875977
1702063297236010500,7.880010498046875,-4.100099563598633,-7.829587936401367,-2.0776991844177246
1702063297253010200,7.89701025390625,-5.4016218185424805,-6.86519718170166,-0.7776021957397461
1702063297270000000,7.914000244140625,-4.378139495849609,-5.903337478637695,3.3125362396240234
1702063297286994200,7.930994140625,-3.5226340293884277,-4.920350074768066,8.758379936218262
1702063297303988000,7.947988037109375,-1.7065945863723755,-5.644040584564209,8.885221481323242
1702063297320980700,7.964980712890625,-0.1435036063194275,-5.804538249969482,6.415966987609863
1702063297337975000,7.98197509765625,-0.6861417293548584,-6.127445220947266,3.846510887145996
1702063297354968800,7.99896875,-1.791811227798462,-6.611278533935547,1.9427289962768555
1702063297371962600,8.015962646484375,-2.341891050338745,-6.939182281494141,0.7621164321899414
1702063297388955600,8.03295556640625,-2.4371185302734375,-7.303077220916748,0.14984893798828125
1702063297405949700,8.04994970703125,-2.143606662750244,-7.139525413513184,0.12610530853271484
1702063297422943500,8.066943603515625,-2.005129814147949,-6.8538126945495605,0.4957122802734375
1702063297439937300,8.083937255859375,-2.199856996536255,-6.245349407196045,0.316558837890625
1702063297456928500,8.100928466796875,-2.3966007232666016,-5.850518226623535,-0.3233757019042969
1702063297473928000,8.117927978515626,-2.144057273864746,-5.618292331695557,-1.148514747619629
1702063297490899200,8.134899169921875,-1.4102975130081177,-5.5555548667907715,-1.8260517120361328
1702063297507912200,8.151912109375,-0.8491543531417847,-5.662485122680664,-1.7923383712768555
1702063297524905200,8.1689052734375,-0.3320195972919464,-5.590010166168213,-1.5738916397094727
1702063297541885400,8.185885498046876,0.12972071766853333,-5.345634460449219,-1.1640567779541016
1702063297558893000,8.20289306640625,0.19645005464553833,-4.881351947784424,-1.2448501586914062
1702063297575887000,8.21988720703125,0.14251363277435303,-4.365776062011719,-1.7594413757324219
1702063297592880000,8.236880126953125,0.03057277202606201,-4.026922702789307,-2.150771141052246
1702063297609874000,8.2538740234375,-0.1712900996208191,-3.7887332439422607,-2.3870410919189453
1702063297626868000,8.270867919921875,-0.25279414653778076,-3.730255365371704,-2.3342785835266113
1702063297643861800,8.28786181640625,-0.23388531804084778,-3.597248077392578,-2.2789077758789062
1702063297660854800,8.304854736328124,-0.12113162875175476,-3.329019069671631,-2.414984703063965
1702063297677857000,8.32185693359375,0.04806065559387207,-2.8548030853271484,-2.8150453567504883
1702063297694842600,8.338842529296874,0.05123794078826904,-2.4568729400634766,-3.0997467041015625
1702063297711836400,8.35583642578125,-0.1585490107536316,-2.045700788497925,-3.301924705505371
1702063297728829700,8.37282958984375,-0.41519469022750854,-1.9467275142669678,-3.3158950805664062
1702063297745823700,8.38982373046875,-0.3535226583480835,-2.177699327468872,-2.843554973602295
1702063297762817500,8.406817626953124,-0.5636292695999146,-2.1327133178710938,-2.043975830078125
1702063297779811300,8.423811279296874,-0.4507584571838379,-2.1456665992736816,-1.1859169006347656
1702063297796804600,8.4408046875,0.1158742904663086,-2.025172472000122,-0.8194694519042969
1702063297813801500,8.457801513671875,0.9667996764183044,-1.8186352252960205,-1.1662192344665527
1702063297830779000,8.47477880859375,1.8383852243423462,-1.765068531036377,-1.7790470123291016
1702063297847786500,8.491786376953126,2.754505157470703,-1.5655863285064697,-2.4085521697998047
1702063297864776700,8.508776611328125,3.63155460357666,-1.2061924934387207,-2.6601099967956543
1702063297881775900,8.52577587890625,4.03651237487793,-0.9611399173736572,-2.3103933334350586
1702063297898766800,8.542766845703126,4.085175514221191,-0.5719413757324219,-1.1961441040039062
1702063297915761000,8.559760986328126,3.969712734222412,-0.2520866394042969,-0.40829944610595703
1702063297932754200,8.576754150390625,4.0074334144592285,0.0008704662322998047,-0.5466117858886719
1702063297949748200,8.593748291015626,4.053642272949219,0.13613343238830566,-1.0494766235351562
1702063297966741800,8.61074169921875,4.206877708435059,0.12879228591918945,-1.5030298233032227
1702063297983735800,8.62773583984375,4.242499351501465,0.18871545791625977,-1.5848274230957031
1702063298000728800,8.644728759765625,3.8166041374206543,0.19836664199829102,-1.1526203155517578
1702063298017722600,8.66172265625,3.291934013366699,0.029780864715576172,-0.05979347229003906
1702063298034716700,8.678716552734375,3.13505482673645,-0.2434520721435547,1.053053855895996
1702063298051710500,8.69571044921875,3.0911316871643066,-0.0327606201171875,1.5716991424560547
1702063298068702500,8.712702392578125,2.518712043762207,0.18908071517944336,1.7242426872253418
1702063298085698600,8.729698486328125,1.7427728176116943,0.18064355850219727,1.7692508697509766
1702063298102691600,8.746691650390625,1.2028484344482422,0.17657041549682617,1.8605575561523438
1702063298119685400,8.763685302734375,0.9268584251403809,-0.002208709716796875,2.5207343101501465
1702063298136678400,8.780678466796875,0.9817876815795898,-0.1648874282836914,3.406320095062256
1702063298153672700,8.797672607421875,1.2704315185546875,-0.007761478424072266,3.5029263496398926
1702063298170666000,8.814666015625,1.5133509635925293,0.1571211814880371,2.859405517578125
1702063298187660000,8.831659912109375,1.3221495151519775,0.22491455078125,2.0845413208007812
1702063298204653300,8.8486533203125,0.6775913238525391,0.24451684951782227,1.775658130645752
1702063298221651000,8.86565087890625,-0.0404362678527832,0.19339632987976074,2.2319765090942383
1702063298238641000,8.882640869140625,-0.8192138671875,0.4746983051300049,3.118285655975342
1702063298255632100,8.899632080078124,-1.4033823013305664,0.8509552478790283,3.406925678253174
1702063298272630500,8.916630615234375,-0.9879608154296875,0.6510961055755615,2.6763901710510254
1702063298289619500,8.933619384765626,-0.11488771438598633,0.3009481430053711,1.6213030815124512
1702063298306618400,8.950618408203125,0.9555740356445312,0.07786321640014648,1.0640277862548828
1702063298323609600,8.967609619140624,1.5817408561706543,0.00022101402282714844,1.137218952178955
1702063298340603000,8.984602783203124,1.6285364627838135,0.03400754928588867,1.6107368469238281
1702063298357597000,9.001596923828124,0.9836201667785645,0.2623722553253174,2.3264284133911133
1702063298374590500,9.018590576171874,0.4894542694091797,0.5070958137512207,2.7031044960021973
1702063298391584500,9.03558447265625,0.7492804527282715,0.695063591003418,2.495575428009033
1702063298408577800,9.052577880859374,1.1745460033416748,0.841038703918457,2.3015570640563965
1702063298425571600,9.069571533203124,1.2876198291778564,0.9739797115325928,2.307568073272705
1702063298442562600,9.0865625,0.8948225975036621,0.8985910415649414,2.5679678916931152
1702063298459561700,9.103561767578125,0.4616208076477051,0.8059449195861816,2.8797802925109863
1702063298476552400,9.120552490234376,0.3833637237548828,0.6480374336242676,3.0436434745788574
1702063298493541600,9.137541748046875,0.6297080516815186,0.6266224384307861,3.008902072906494
1702063298510540000,9.1545400390625,1.25537109375,0.6501836776733398,2.715169906616211
1702063298527534000,9.1715341796875,2.2377381324768066,0.6889348030090332,2.4755449295043945
1702063298544527000,9.188527099609376,2.977755546569824,0.8159894943237305,2.4189276695251465
1702063298561521200,9.205521240234376,3.2491369247436523,0.909517765045166,2.569230556488037
1702063298578514700,9.2225146484375,2.932997703552246,0.8248991966247559,2.677741527557373
1702063298595508700,9.2395087890625,2.2212512493133545,0.6257839202880859,2.5239782333374023
1702063298612502000,9.256501953125,1.9885573387145996,0.671837568283081,2.058626651763916
1702063298629485300,9.2734853515625,2.0514440536499023,0.7803182601928711,1.6244630813598633
1702063298646485500,9.290485595703124,2.3556606769561768,0.7719602584838867,1.1414060592651367
1702063298663477500,9.3074775390625,2.586618423461914,0.6419782638549805,0.6744785308837891
1702063298680476700,9.3244765625,2.6231725215911865,0.3663315773010254,0.34096717834472656
1702063298697460200,9.341460205078125,2.2350380420684814,0.13563299179077148,0.47799015045166016
1702063298714464500,9.358464599609375,1.6753157377243042,0.005315303802490234,0.8822650909423828
1702063298731458300,9.375458251953125,1.560389757156372,-0.007149219512939453,0.8295793533325195
1702063298748451600,9.39245166015625,1.4383453130722046,0.023559093475341797,0.2945213317871094
1702063298765445400,9.4094453125,1.1905853748321533,0.04368185997009277,-0.4990882873535156
1702063298782439200,9.426439208984375,1.0302338600158691,-0.024930953979492188,-1.3037490844726562
1702063298799433200,9.44343310546875,1.0349327325820923,-0.14414477348327637,-1.6585755348205566
1702063298816426200,9.46042626953125,0.7612972259521484,-0.5142228603363037,-1.625704288482666
1702063298833416000,9.477416015625,0.4849196672439575,-0.7608182430267334,-1.7603607177734375
1702063298850418400,9.49441845703125,0.43692564964294434,-0.7181849479675293,-1.8982133865356445
1702063298867395600,9.5113955078125,0.5402452945709229,-0.5965688228607178,-1.844278335571289
1702063298884401200,9.528401123046875,0.8821392059326172,-0.7383518218994141,-1.8347806930541992
1702063298901392400,9.545392333984376,0.8650546669960022,-1.2407233715057373,-1.6971535682678223
1702063298918391600,9.5623916015625,0.8866302967071533,-1.4803433418273926,-1.5899510383605957
1702063298935380200,9.579380126953126,0.6936236619949341,-1.6718411445617676,-1.48435640335083
1702063298952378400,9.59637841796875,0.440871000289917,-1.6620837450027466,-1.6992416381835938
1702063298969369900,9.613369873046874,-0.08055496215820312,-1.8120739459991455,-1.696821689605713
1702063298986363600,9.63036376953125,-0.7985497117042542,-2.140859603881836,-1.7038211822509766
1702063299003358000,9.64735791015625,-1.2299845218658447,-2.3911662101745605,-1.9685401916503906
1702063299020353300,9.664353271484375,-0.871527373790741,-2.4684972763061523,-2.1173620223999023
1702063299037345000,9.681344970703124,-0.554527997970581,-2.3782644271850586,-2.01849365234375
1702063299054338000,9.698338134765624,-1.1226065158843994,-2.4900872707366943,-2.1142287254333496
1702063299071332000,9.71533203125,-1.4739097356796265,-2.8504385948181152,-2.3570289611816406
1702063299088325400,9.732325439453126,-1.709877371788025,-3.2534191608428955,-2.4677276611328125
1702063299105315300,9.7493154296875,-1.5955443382263184,-3.6777548789978027,-2.069091320037842
1702063299122318300,9.766318359375,-1.5220024585723877,-3.960427761077881,-1.7589664459228516
1702063299139308800,9.783308837890624,-1.6352818012237549,-4.441226005554199,-1.4661035537719727
1702063299156298200,9.80029833984375,-1.4857815504074097,-4.691861629486084,-1.1900405883789062
1702063299173294000,9.817294189453126,-1.3274078369140625,-4.772481918334961,-0.4955930709838867
1702063299190288000,9.834287841796876,-1.3468525409698486,-4.780579566955566,-0.15918827056884766
1702063299207271200,9.851271240234375,-1.8431376218795776,-4.8254265785217285,-0.31566905975341797
1702063299224274700,9.868274658203125,-2.6679484844207764,-5.052146911621094,-0.47866249084472656
1702063299241258500,9.885258544921875,-2.924961566925049,-4.916250705718994,-0.5915584564208984
1702063299258262500,9.902262451171875,-2.4315226078033447,-4.448190212249756,-0.33409595489501953
1702063299275256300,9.91925634765625,-2.1144325733184814,-4.232413291931152,0.23660850524902344
1702063299292240100,9.936240234375,-2.264979839324951,-4.400373458862305,0.8135108947753906
1702063299309241300,9.953241455078125,-1.7978060245513916,-4.947854518890381,1.1958627700805664
1702063299326240000,9.970239990234376,-0.3757946491241455,-5.386066436767578,1.3282461166381836
1702063299343231200,9.987231201171875,0.2687259316444397,-5.416665554046631,1.8382930755615234
1702063299360224500,10.004224609375,-0.849829912185669,-5.287773609161377,1.968210220336914
1702063299377220900,10.021220947265626,-1.7170045375823975,-4.900662899017334,0.7302274703979492
1702063299394212000,10.038212158203125,-1.2431519031524658,-4.731958389282227,-0.41080379486083984
1702063299411206100,10.0552060546875,-0.5539724826812744,-4.7269287109375,0.5975456237792969
1702063299428196400,10.0721962890625,-0.1908167600631714,-4.509683132171631,1.7894611358642578
1702063299445196000,10.089196044921875,-0.4702605903148651,-4.074491500854492,1.6945533752441406
1702063299462184200,10.10618408203125,-1.4254896640777588,-3.9366517066955566,1.2164134979248047
1702063299479183400,10.123183349609375,-2.485539436340332,-4.956446170806885,-0.13372516632080078
1702063299496174000,10.140174072265625,-3.8816189765930176,-5.380340099334717,0.15124034881591797
1702063299513168000,10.15716796875,-4.626219272613525,-5.132286548614502,3.307196617126465
1702063299530162000,10.174161865234375,-4.58394193649292,-4.222733974456787,5.831006050109863
1702063299547139600,10.1911396484375,-5.000183582305908,-4.2250075340271,5.027460098266602
1702063299564148700,10.208148681640624,-4.1825690269470215,-4.822815418243408,4.713835716247559
1702063299581142800,10.225142822265624,-3.6868128776550293,-5.600433826446533,3.482487678527832
1702063299598136600,10.242136474609374,-3.3230645656585693,-6.013058662414551,2.198904037475586
1702063299615123000,10.259123046875,-2.383220672607422,-6.376704692840576,1.3751201629638672
1702063299632123400,10.276123291015624,-1.5618622303009033,-6.940908432006836,1.2113914489746094
1702063299649117400,10.293117431640624,-1.8552815914154053,-6.829904556274414,1.2842750549316406
1702063299666102300,10.310102294921874,-2.380366325378418,-6.3385114669799805,1.1537227630615234
1702063299683105000,10.32710498046875,-3.0841939449310303,-6.26465368270874,0.5485200881958008
1702063299700081200,10.3440810546875,-3.308128833770752,-6.260280609130859,-0.24076366424560547
1702063299717092400,10.36109228515625,-2.9785380363464355,-6.325740814208984,-0.8081016540527344
1702063299734083300,10.378083251953125,-2.3268697261810303,-6.262241840362549,-1.0385408401489258
1702063299751072300,10.395072265625,-2.10589337348938,-5.954094409942627,-0.8277835845947266
1702063299768073000,10.412072998046876,-2.154693126678467,-5.780796051025391,-0.9976673126220703
1702063299785067000,10.42906689453125,-2.2130191326141357,-5.81340217590332,-1.240086555480957
1702063299802063600,10.446063720703124,-1.9165513515472412,-5.666258811950684,-1.7588729858398438
1702063299819051800,10.4630517578125,-1.6722618341445923,-5.316883087158203,-2.426365375518799
1702063299836048000,10.4800478515625,-1.1158249378204346,-4.857687473297119,-2.6450114250183105
1702063299853041700,10.497041748046875,-0.5292716026306152,-4.385096549987793,-2.415768623352051
1702063299870035500,10.514035400390625,0.13419310748577118,-4.113186836242676,-1.7989521026611328
1702063299887019000,10.53101904296875,0.6295720934867859,-3.7892510890960693,-1.6223134994506836
1702063299904015000,10.54801513671875,0.559185802936554,-3.3747434616088867,-2.1051158905029297
1702063299921016600,10.5650166015625,0.3049345910549164,-2.824687957763672,-2.634761333465576
1702063299938010400,10.58201025390625,-0.07470738887786865,-2.176969528198242,-2.9954395294189453
1702063299955001000,10.5990009765625,-0.2535797357559204,-1.5747605562210083,-2.5006213188171387
1702063299971999700,10.615999755859375,0.021872878074645996,-1.1111629009246826,-1.385451316833496
1702063299988991500,10.632991455078125,0.8121811151504517,-0.9985361099243164,-0.6093959808349609
1702063300005985000,10.649985107421875,1.7806898355484009,-0.7906279563903809,-0.6752424240112305
1702063300022978800,10.666978759765625,2.2556514739990234,-0.43105530738830566,-1.0984325408935547
1702063300039972400,10.683972412109375,2.1359176635742188,-0.1945350170135498,-1.2017312049865723
1702063300056966000,10.7009658203125,1.8040919303894043,0.029657363891601562,-0.9004497528076172
1702063300073957400,10.717957275390624,1.5597032308578491,0.15287017822265625,-0.5242605209350586
1702063300090956500,10.73495654296875,1.7350523471832275,0.21042323112487793,-0.1406869888305664
1702063300107948000,10.751947998046875,2.1357169151306152,0.09019994735717773,0.28777599334716797
1702063300124939800,10.768939697265624,2.5607194900512695,0.006654500961303711,0.8018989562988281
1702063300141934600,10.7859345703125,2.872791051864624,0.14003205299377441,1.180318832397461
1702063300158928400,10.802928466796875,2.8244402408599854,0.447751522064209,1.3257417678833008
1702063300175920400,10.81992041015625,2.594684362411499,0.7738327980041504,1.3540973663330078
1702063300192916700,10.836916748046875,2.5143911838531494,0.8125014305114746,1.7432708740234375
1702063300209909500,10.853909423828124,2.7529549598693848,0.6313281059265137,2.1023941040039062
1702063300226903300,10.8709033203125,3.228123664855957,0.5706524848937988,2.0998682975769043
1702063300243896300,10.887896240234374,3.3844993114471436,0.6126627922058105,1.908301830291748
1702063300260890400,10.904890380859374,3.354757070541382,0.8016424179077148,1.724733829498291
1702063300277875500,10.92187548828125,3.1895856857299805,1.0304255485534668,1.7321758270263672
1702063300294878000,10.9388779296875,3.1251044273376465,1.1261844635009766,2.206326484680176
1702063300311871000,10.95587109375,2.9652504920959473,0.617222785949707,2.9087777137756348
1702063300328865000,10.972864990234376,2.7731847763061523,0.4698355197906494,3.064490795135498
1702063300345859000,10.989859130859376,2.7085483074188232,0.465618371963501,2.6527881622314453
1702063300362852900,11.006852783203126,2.724745750427246,0.49767255783081055,2.2406482696533203
1702063300379846000,11.023845947265626,2.625908374786377,0.5827901363372803,2.0348358154296875
1702063300396840000,11.04083984375,2.4684743881225586,0.701892614364624,2.175048828125
1702063300413833700,11.057833740234376,2.190981864929199,0.6178796291351318,2.307279109954834
1702063300430827500,11.07482763671875,1.9583148956298828,0.3869912624359131,2.1289100646972656
1702063300447820500,11.091820556640625,1.9174423217773438,0.2640082836151123,1.589301586151123
1702063300464814600,11.108814697265625,1.8701567649841309,0.1961984634399414,1.0140862464904785
1702063300481804800,11.1258046875,1.8278050422668457,0.27587890625,0.6739010810852051
1702063300498805500,11.142805419921874,1.5982108116149902,0.3175506591796875,0.6784863471984863
1702063300515795500,11.15979541015625,0.9643764495849609,0.355971097946167,1.2685494422912598
1702063300532789500,11.17678955078125,0.5266427993774414,0.43548130989074707,2.17093563079834
1702063300549784000,11.1937841796875,0.7271170616149902,1.0284104347229004,2.672010898590088
1702063300566775800,11.21077587890625,0.891624927520752,1.7978825569152832,2.951650619506836
1702063300583770000,11.22777001953125,0.7640786170959473,2.1562929153442383,2.664612293243408
1702063300600764200,11.24476416015625,0.5982913970947266,1.9509400129318237,2.3454909324645996
1702063300617758000,11.261758056640625,0.7601594924926758,1.5661635398864746,1.8348751068115234
1702063300634751700,11.278751708984375,0.9022717475891113,1.4043314456939697,1.908006191253662
1702063300651745000,11.2957451171875,1.0672941207885742,1.3341360092163086,2.3073339462280273
1702063300668728300,11.312728271484374,1.0966315269470215,1.2297532558441162,2.835841655731201
1702063300685732900,11.32973291015625,1.320894718170166,1.2239081859588623,2.868565559387207
1702063300702726400,11.346726318359375,1.5230169296264648,1.1886286735534668,2.748655319213867
1702063300719719700,11.3637197265625,1.6987695693969727,1.1656744480133057,2.5526323318481445
1702063300736704300,11.380704345703125,2.0863656997680664,1.2256004810333252,2.360015869140625
1702063300753707300,11.397707275390625,2.44433856010437,1.2242915630340576,2.2712268829345703
1702063300770701300,11.414701416015625,2.719595432281494,1.2562978267669678,2.226581573486328
1702063300787684000,11.43168408203125,2.7676613330841064,1.2450909614562988,1.9383249282836914
1702063300804688600,11.448688720703124,2.66190767288208,1.2853751182556152,1.1733283996582031
1702063300821682200,11.46568212890625,2.4578771591186523,1.3160548210144043,0.148651123046875
1702063300838676000,11.482676025390624,2.2880401611328125,1.1830675601959229,-0.46282958984375
1702063300855666400,11.49966650390625,2.069021224975586,1.0528488159179688,0.11720085144042969
1702063300872665900,11.516665771484375,1.9232430458068848,0.9913289546966553,1.847855567932129
1702063300889659600,11.53365966796875,2.1095638275146484,0.7024500370025635,2.7249345779418945
1702063300906648600,11.550648681640626,2.362696409225464,0.6927235126495361,1.7342472076416016
1702063300923644000,11.567643798828126,2.6646625995635986,0.6550054550170898,0.012755393981933594
1702063300940638000,11.584637939453126,2.7113137245178223,0.4403386116027832,-1.003011703491211
1702063300957631700,11.6016318359375,2.348391056060791,0.25820302963256836,-0.967921257019043
1702063300974625500,11.61862548828125,1.8019230365753174,0.1952500343322754,-0.3475637435913086
1702063300991618800,11.635618896484376,0.9316443800926208,0.10586214065551758,0.41932106018066406
1702063301008612900,11.65261279296875,0.17168939113616943,0.06785178184509277,0.5941143035888672
1702063301025606400,11.6696064453125,-0.4137271046638489,-0.18019676208496094,-0.02845001220703125
1702063301042600200,11.68660009765625,-0.4126156270503998,-0.37790822982788086,-0.9770469665527344
1702063301059583000,11.7035830078125,-0.1781867891550064,-0.4625818729400635,-1.5963640213012695
1702063301076587500,11.72058740234375,0.152536541223526,-0.6323494911193848,-1.7494421005249023
1702063301093581000,11.7375810546875,0.2928766906261444,-0.7732369899749756,-1.7475385665893555
1702063301110574800,11.754574951171875,0.20256096124649048,-0.9162859916687012,-1.6364011764526367
1702063301127568100,11.771568115234375,0.06657981872558594,-1.0581681728363037,-1.5124750137329102
1702063301144562200,11.788562255859375,-0.21098369359970093,-1.0908913612365723,-1.242609977722168
1702063301161555700,11.8055556640625,-0.6922782063484192,-1.3278276920318604,-0.9433727264404297
1702063301178549800,11.8225498046875,-0.9337016940116882,-1.7374789714813232,-1.0805473327636719
1702063301195543000,11.83954296875,-0.9625262022018433,-1.9852705001831055,-1.2177343368530273
1702063301212537000,11.856537109375,-0.8893855810165405,-2.0721993446350098,-1.4082355499267578
1702063301229530600,11.873530517578125,-0.5336669087409973,-1.9263129234313965,-1.4835090637207031
1702063301246524400,11.8905244140625,-0.6514135599136353,-1.9280788898468018,-1.5385618209838867
1702063301263517700,11.907517578125,-0.9541414976119995,-2.2948851585388184,-1.415924072265625
1702063301280511700,11.92451171875,-1.3327523469924927,-2.8066396713256836,-1.215703010559082
1702063301297505300,11.94150537109375,-1.367265224456787,-3.2800369262695312,-1.3275566101074219
1702063301314499300,11.958499267578125,-0.945102870464325,-3.6321754455566406,-1.3124866485595703
1702063301331492400,11.975492431640625,-0.9855160713195801,-3.9188003540039062,-0.9637689590454102
1702063301348497700,11.99249755859375,-1.5679967403411865,-4.4165120124816895,-0.7390365600585938
1702063301365480200,12.009480224609375,-2.3998489379882812,-4.767799377441406,-1.2020130157470703
1702063301382474200,12.02647412109375,-2.6468732357025146,-4.789151668548584,-1.4867467880249023
1702063301399467000,12.043467041015624,-2.4689481258392334,-4.656476020812988,-1.028214454650879
1702063301416461000,12.0604609375,-1.8082972764968872,-4.163304805755615,-0.6062688827514648
1702063301433455000,12.077455078125,-1.0328707695007324,-4.015717506408691,-0.24068355560302734
1702063301450447600,12.094447509765626,-0.3063490390777588,-4.4049577713012695,-0.010430335998535156
1702063301467442000,12.11144189453125,0.0660322904586792,-4.619516372680664,-0.05266380310058594
1702063301484438300,12.128438232421875,-0.4340447187423706,-4.656081199645996,0.07137584686279297
1702063301501429800,12.1454296875,-1.2004289627075195,-4.837340831756592,0.4655437469482422
1702063301518423600,12.162423583984374,-1.4196217060089111,-4.949195384979248,0.7047147750854492
1702063301535416600,12.17941650390625,-1.6108516454696655,-5.058846473693848,0.7422380447387695
1702063301552411400,12.196411376953124,-1.8637446165084839,-5.475658416748047,0.9582328796386719
1702063301569403600,12.213403564453126,-2.269994020462036,-5.733223915100098,0.7739572525024414
1702063301586388000,12.230387939453125,-2.8817343711853027,-5.599731922149658,-0.009619712829589844
1702063301603391500,12.2473916015625,-2.7028958797454834,-5.208191871643066,-0.3736572265625
1702063301620385500,12.264385498046876,-2.2600388526916504,-4.750484943389893,0.17295455932617188
1702063301637379000,12.281379150390626,-1.6821935176849365,-4.701409816741943,1.928506851196289
1702063301654372900,12.298372802734375,-1.1142091751098633,-4.559472560882568,3.514529228210449
1702063301671366100,12.3153662109375,-0.252744197845459,-4.366569995880127,3.8356857299804688
1702063301688360000,12.33235986328125,0.051960110664367676,-4.314251899719238,3.2292776107788086
1702063301705336300,12.34933642578125,0.47290921211242676,-4.514001369476318,2.7681121826171875
1702063301722347800,12.36634765625,-0.3488806486129761,-4.8759684562683105,2.942251205444336
1702063301739340800,12.3833408203125,-1.0463345050811768,-4.998444557189941,3.2572078704833984
1702063301756335000,12.400335205078125,-1.6702258586883545,-4.7234601974487305,3.1411895751953125
1702063301773328600,12.41732861328125,-2.1197612285614014,-4.7154693603515625,3.0010852813720703
1702063301790322400,12.434322509765625,-2.1886019706726074,-4.955186367034912,2.8601512908935547
1702063301807316000,12.45131591796875,-1.5520784854888916,-5.097952365875244,2.4680891036987305
1702063301824309500,12.4683095703125,-1.0515618324279785,-5.367372035980225,2.156672477722168
1702063301841289000,12.4852890625,-1.1382572650909424,-5.672664165496826,2.092294692993164
1702063301858297300,12.50229736328125,-1.5387153625488281,-5.770483016967773,1.7155771255493164
1702063301875290400,12.519290283203125,-2.4279227256774902,-5.622287750244141,0.7587299346923828
1702063301892284400,12.536284423828125,-2.659022808074951,-5.359341144561768,-0.16771507263183594
1702063301909278200,12.5532783203125,-2.4065895080566406,-5.086543083190918,-0.442413330078125
1702063301926272000,12.57027197265625,-1.7914570569992065,-4.8881378173828125,-0.12826919555664062
1702063301943265000,12.58726513671875,-1.680012583732605,-4.867870330810547,0.41947269439697266
1702063301960259300,12.60425927734375,-1.9197239875793457,-4.798745632171631,0.18410015106201172
1702063301977252900,12.6212529296875,-2.0323004722595215,-4.5785417556762695,-0.597747802734375
1702063301994246700,12.63824658203125,-1.6860500574111938,-4.2218194007873535,-1.3236751556396484
1702063302011240200,12.655240234375,-1.395416021347046,-3.840006113052368,-1.5900697708129883
1702063302028233700,12.672233642578124,-1.2789359092712402,-3.575404405593872,-1.4095640182495117
1702063302045227800,12.689227783203124,-1.2070732116699219,-3.4766342639923096,-1.1220922470092773
1702063302062221600,12.7062216796875,-0.6768367886543274,-3.211459159851074,-1.1304378509521484
1702063302079214600,12.723214599609374,-0.09194135665893555,-2.840508460998535,-1.4614629745483398
1702063302096208600,12.740208740234374,0.1322702169418335,-2.4850525856018066,-1.781036376953125
1702063302113202400,12.757202392578124,0.35083621740341187,-2.3079984188079834,-1.895249366760254
1702063302130177500,12.774177490234376,0.365395188331604,-2.0114083290100098,-1.925398349761963
1702063302147186700,12.791186767578125,0.4294174909591675,-1.758294701576233,-1.8798460960388184
1702063302164183300,12.808183349609376,0.8063782453536987,-1.4304028749465942,-1.8737678527832031
1702063302181166300,12.825166259765625,1.3006609678268433,-1.0573465824127197,-1.8422536849975586
1702063302198162400,12.842162353515626,1.49009370803833,-0.6751577854156494,-1.5307044982910156
1702063302215164000,12.859163818359375,1.5946065187454224,-0.3087441921234131,-1.2617874145507812
1702063302232155400,12.8761552734375,1.4435913562774658,-0.06047511100769043,-1.2382335662841797
1702063302249154800,12.89315478515625,1.195386290550232,0.13695836067199707,-1.3199119567871094
1702063302266145800,12.910145751953126,0.9098238945007324,0.2905547618865967,-1.4483585357666016
1702063302283138800,12.927138916015625,0.6765037775039673,0.3843839168548584,-1.5141897201538086
1702063302300132900,12.9441328125,0.581599771976471,0.370678186416626,-1.4597806930541992
1702063302317127000,12.961126953125,0.8271926641464233,0.42696380615234375,-1.40789794921875
1702063302334112000,12.978112060546875,1.2894495725631714,0.36209702491760254,-1.1923847198486328
1702063302351115800,12.99511572265625,1.9477630853652954,0.38585805892944336,-0.9410495758056641
1702063302368105200,13.012105224609375,2.357748031616211,0.40831732749938965,-0.8394689559936523
1702063302385101000,13.02910107421875,2.420173406600952,0.558356761932373,-0.9611482620239258
1702063302402092500,13.046092529296875,2.268401861190796,0.6760275363922119,-1.1135263442993164
1702063302419091000,13.063091064453126,2.3460004329681396,0.7604396343231201,-1.1459331512451172
1702063302436082400,13.08008251953125,2.5549166202545166,0.725008487701416,-0.9101295471191406
1702063302453076000,13.097075927734375,2.4858617782592773,0.5347459316253662,-0.3558664321899414
1702063302470069800,13.11406982421875,2.301927328109741,0.3672151565551758,0.03673362731933594
1702063302487063000,13.13106298828125,2.450200080871582,0.42949795722961426,0.025727272033691406
1702063302504057000,13.14805712890625,2.474358320236206,0.5853140354156494,-0.025651931762695312
1702063302521050600,13.165050537109375,2.561612606048584,0.6193530559539795,0.3307504653930664
1702063302538045000,13.182044921875,2.5091772079467773,0.3704948425292969,0.7697420120239258
1702063302555037400,13.199037353515624,2.7272558212280273,0.20980334281921387,0.9548768997192383
1702063302572031700,13.21603173828125,2.946709632873535,0.16632747650146484,1.1731042861938477
1702063302589020000,13.23302001953125,3.097659111022949,0.3945131301879883,1.432377815246582
1702063302606019600,13.25001953125,3.0742850303649902,0.6719415187835693,1.7462139129638672
1702063302623009800,13.267009765625,2.813110828399658,0.9127299785614014,1.9447689056396484
1702063302640009200,13.28400927734375,2.53657865524292,1.0395104885101318,2.103266716003418
1702063302657000200,13.301000244140624,2.1878981590270996,0.8497419357299805,2.146700859069824
1702063302673994000,13.317993896484374,1.9954931735992432,0.5054137706756592,2.224717140197754
1702063302690987000,13.334987060546876,1.66609525680542,0.4165663719177246,2.471208095550537
1702063302707981300,13.351981201171874,1.4269123077392578,0.5603275299072266,2.7832741737365723
1702063302724974800,13.368974853515626,1.359762191772461,0.7547533512115479,2.836212158203125
1702063302741968600,13.38596875,1.3539934158325195,0.9972410202026367,2.6365766525268555
1702063302758962000,13.4029619140625,1.344254970550537,1.3960132598876953,3.5621705055236816
1702063302775953200,13.419953125,1.4177465438842773,1.758002519607544,4.310147285461426
1702063302792945000,13.43694482421875,1.414233684539795,1.9853686094284058,4.194402694702148
1702063302809943800,13.45394384765625,1.295884132385254,2.0932815074920654,2.936509132385254
1702063302826934500,13.4709345703125,0.7159810066223145,2.3068642616271973,2.5360231399536133
1702063302843932700,13.4879326171875,-0.40463924407958984,1.8402929306030273,2.6935834884643555
1702063302860913700,13.50491357421875,-0.913114070892334,1.2141847610473633,2.721766471862793
1702063302877918200,13.521918212890625,-0.7924385070800781,0.829434871673584,2.539736747741699
1702063302894911500,13.538911376953125,0.05577516555786133,0.5950138568878174,2.3080101013183594
1702063302911905300,13.5559052734375,0.8231058120727539,0.34305310249328613,2.477792739868164
1702063302928899000,13.572899169921875,1.2441120147705078,0.2489149570465088,3.051346778869629
1702063302945892900,13.589892822265625,1.3442471027374268,0.24880719184875488,3.3946895599365234
1702063302962886100,13.60688623046875,1.1639211177825928,0.32959651947021484,3.3018884658813477
1702063302979880000,13.6238798828125,0.9286012649536133,0.3528780937194824,3.002638816833496
1702063302996873700,13.640873779296875,0.6834166049957275,0.42137861251831055,2.6498708724975586
1702063303013867800,13.65786767578125,0.44811415672302246,0.49077796936035156,2.3905763626098633
1702063303030860800,13.67486083984375,0.4302389621734619,0.46599888801574707,2.222165107727051
1702063303047854800,13.691854736328125,0.4181795120239258,0.5445165634155273,2.170032501220703
1702063303064848400,13.708848388671875,0.09810876846313477,0.5145223140716553,2.0089263916015625
1702063303081842400,13.725842529296875,-0.14847326278686523,0.41113829612731934,1.3598222732543945
1702063303098835700,13.742835693359375,-0.16055822372436523,0.35506129264831543,0.26462554931640625
1702063303115829500,13.75982958984375,0.25403428077697754,0.34696412086486816,-0.6389703750610352
1702063303132823000,13.776822998046875,0.7836649417877197,0.3302772045135498,-1.0235824584960938
1702063303149817000,13.793817138671875,1.2924985885620117,0.3125648498535156,-0.9392795562744141
1702063303166810400,13.810810302734374,1.6872074604034424,0.2929060459136963,-0.7274017333984375
1702063303183804200,13.82780419921875,1.8199509382247925,0.21706032752990723,-0.979069709777832
1702063303200798000,13.8447978515625,2.0348567962646484,0.14995789527893066,-1.5278539657592773
1702063303217791700,13.861791748046874,2.3010072708129883,0.1598062515258789,-1.9601936340332031
1702063303234782500,13.878782470703126,2.27244234085083,0.24771428108215332,-2.2159295082092285
1702063303251775500,13.895775390625,2.1438663005828857,0.4194554090499878,-2.1677656173706055
1702063303268772600,13.912772705078124,1.9623544216156006,0.4562877416610718,-1.866084098815918
1702063303285766700,13.9297666015625,1.898475170135498,0.3398836851119995,-1.5716767311096191
1702063303302759700,13.946759765625,2.2352399826049805,0.2607303857803345,-1.7023286819458008
1702063303319753700,13.963753662109376,2.5354132652282715,0.2567415237426758,-2.1391196250915527
1702063303336747500,13.98074755859375,2.5820775032043457,0.3962606191635132,-2.5024118423461914
1702063303353730800,13.997730712890625,1.93744695186615,0.5040091276168823,-2.5827102661132812
1702063303370734300,14.014734375,0.905664324760437,0.4831664562225342,-2.5206899642944336
1702063303387728400,14.031728271484376,0.25265443325042725,0.45388174057006836,-2.4881367683410645
1702063303404722200,14.04872216796875,0.32071763277053833,0.15674936771392822,-2.015336513519287
1702063303421716000,14.065716064453126,0.6715388298034668,-0.12667882442474365,-1.4649066925048828
1702063303438709200,14.082709228515625,1.141026496887207,-0.5670598745346069,-1.4017438888549805
1702063303455703000,14.099703125,1.2699499130249023,-0.9776655435562134,-2.2655344009399414
1702063303472696000,14.116696044921875,0.9938429594039917,-1.1803131103515625,-3.428107261657715
1702063303489692000,14.13369189453125,0.6613720059394836,-1.5146305561065674,-3.7158517837524414
1702063303506684000,14.150683837890625,0.49310559034347534,-1.6164337396621704,-2.9088830947875977
1702063303523677700,14.167677734375,0.49028509855270386,-1.7109311819076538,-1.828843116760254
1702063303540671700,14.184671630859375,0.08371567726135254,-1.468583345413208,-0.9713478088378906
1702063303557665500,14.20166552734375,-0.6695019602775574,-1.3813462257385254,-0.3193521499633789
1702063303574656000,14.218656005859375,-0.9808776378631592,-1.4525671005249023,-0.13840770721435547
1702063303591656200,14.23565625,-0.9690331816673279,-1.5975295305252075,-0.3207721710205078
1702063303608632300,14.25263232421875,-0.7442768812179565,-1.8831690549850464,-0.12572383880615234
1702063303625640000,14.269639892578125,-0.21232199668884277,-1.92924165725708,0.45233154296875
1702063303642633500,14.286633544921875,-0.27609699964523315,-1.9703376293182373,1.0234813690185547
1702063303659627300,14.303627197265625,-0.4664289951324463,-2.1834311485290527,1.060399055480957
1702063303676621000,14.32062109375,-0.8651464581489563,-2.813877582550049,0.9817466735839844
1702063303693614800,14.33761474609375,-1.7112936973571777,-3.373197555541992,0.7552471160888672
1702063303710608100,14.354608154296875,-2.529862880706787,-3.391997814178467,0.6941614151000977
1702063303727602200,14.371602294921875,-3.1307201385498047,-2.8941988945007324,2.5197582244873047
1702063303744595700,14.388595703125,-2.6925442218780518,-2.178360939025879,4.593155860900879
1702063303761589500,14.405589599609375,-2.1404762268066406,-2.9171667098999023,5.189786911010742
1702063303778582800,14.422582763671874,-1.1835933923721313,-3.6724565029144287,3.558317184448242
1702063303795576600,14.43957666015625,-0.7989746928215027,-4.7848968505859375,1.763472557067871
1702063303812570400,14.4565703125,-0.4755657911300659,-5.16862154006958,-0.4341259002685547
1702063303829564200,14.473564208984374,-0.8546344041824341,-5.629806995391846,-1.9184961318969727
1702063303846557400,14.490557373046874,-1.3636481761932373,-6.116423606872559,-2.251434326171875
1702063303863547600,14.507547607421875,-1.2107923030853271,-6.191594123840332,-1.988922119140625
1702063303880549400,14.52454931640625,-0.9677153825759888,-6.304181098937988,-1.144108772277832
1702063303897538800,14.541538818359374,-1.0993717908859253,-6.457892417907715,0.5631618499755859
1702063303914532000,14.558531982421876,-1.9840216636657715,-6.185673713684082,1.4707145690917969
1702063303931526000,14.57552587890625,-2.641878843307495,-5.65350341796875,1.3400278091430664
1702063303948519000,14.592518798828126,-3.3580992221832275,-5.29468297958374,2.6499547958374023
1702063303965514800,14.6095146484375,-3.3662235736846924,-5.106984615325928,3.922344207763672
1702063303982504200,14.626504150390625,-2.1664648056030273,-5.0543694496154785,3.753978729248047
1702063303999503400,14.64350341796875,-1.0123941898345947,-5.206202983856201,3.398087501525879
1702063304016494600,14.66049462890625,-1.4154523611068726,-5.510655403137207,2.982497215270996
1702063304033488400,14.67748828125,-2.97224760055542,-5.6743693351745605,2.2031021118164062
1702063304050481700,14.694481689453125,-4.263424396514893,-5.689393997192383,1.9126882553100586
1702063304067475700,14.711475830078125,-4.697049140930176,-5.620187282562256,1.7334718704223633
1702063304084478200,14.728478271484375,-4.584137916564941,-5.380766868591309,1.7694549560546875
1702063304101464800,14.74546484375,-4.215813159942627,-4.971189022064209,1.6947345733642578
1702063304118454500,14.76245458984375,-3.8653182983398438,-4.753480434417725,1.452326774597168
1702063304135450400,14.779450439453125,-3.4157679080963135,-4.886312961578369,1.3039884567260742
1702063304152436700,14.796436767578125,-2.944180965423584,-5.060535430908203,1.2367658615112305
1702063304169438000,14.81343798828125,-2.242095470428467,-5.097542762756348,0.9103288650512695
1702063304186431000,14.830430908203125,-1.5860192775726318,-4.89938497543335,0.31444263458251953
1702063304203424800,14.8474248046875,-1.1002229452133179,-4.602348804473877,-0.05521583557128906
1702063304220411100,14.8644111328125,-0.7409342527389526,-4.346282005310059,0.0066471099853515625
1702063304237402000,14.881402099609375,-0.6947268843650818,-4.079619884490967,0.19069385528564453
1702063304254405600,14.898405517578125,-0.7537298202514648,-3.9352922439575195,0.022121429443359375
1702063304271400000,14.91539990234375,-0.8748051524162292,-3.807710647583008,-0.6509599685668945
1702063304288391400,14.932391357421874,-1.003673791885376,-3.551041603088379,-1.0958013534545898
1702063304305374000,14.9493740234375,-0.7265201807022095,-3.10937762260437,-0.9059133529663086
1702063304322382800,14.9663828125,-0.380018025636673,-2.516401767730713,0.0028228759765625
1702063304339374300,14.983374267578125,-0.013789832592010498,-1.9348821640014648,0.6315879821777344
1702063304356368100,15.0003681640625,0.29705724120140076,-1.6060975790023804,0.8096961975097656
1702063304373359400,15.017359375,0.055733710527420044,-1.118029236793518,0.5921001434326172
1702063304390364400,15.034364501953124,-0.30476099252700806,-0.8596140146255493,-0.15481090545654297
1702063304407349000,15.051348876953124,-0.7340230941772461,-0.8115947246551514,-1.0594234466552734
1702063304424342800,15.0683427734375,-0.7695485949516296,-0.9140713214874268,-1.6239404678344727
1702063304441334000,15.085333984375,-0.29015034437179565,-1.1152257919311523,-1.8871688842773438
1702063304458332400,15.10233251953125,0.627102255821228,-1.2560396194458008,-1.885141372680664
1702063304475324000,15.119323974609374,1.4140772819519043,-1.1867356300354004,-1.6935853958129883
1702063304492317700,15.136317626953126,2.1528160572052,-0.8608500957489014,-1.4959306716918945
1702063304509311500,15.1533115234375,2.5005247592926025,-0.2522120475769043,-1.480062484741211
1702063304526304500,15.170304443359376,2.3939049243927,0.2765188217163086,-1.741847038269043
1702063304543298600,15.187298583984376,1.835068702697754,0.6128051280975342,-1.9435701370239258
1702063304560292000,15.2042919921875,1.4210853576660156,0.7142579555511475,-1.9150276184082031
1702063304577286100,15.2212861328125,1.160730004310608,0.7067062854766846,-2.104417324066162
1702063304594267600,15.238267578125,1.3548240661621094,0.775665283203125,-2.3966970443725586
1702063304611273200,15.255273193359375,1.8075170516967773,0.8141415119171143,-2.3592119216918945
1702063304628266500,15.2722666015625,2.239168405532837,0.7779934406280518,-1.830935001373291
1702063304645261300,15.28926123046875,2.477109432220459,0.682060956954956,-1.2254905700683594
1702063304662254000,15.306254150390625,2.6673789024353027,0.5772337913513184,-1.0825777053833008
1702063304679248000,15.323247802734375,2.7171754837036133,0.6960885524749756,-1.2789411544799805
1702063304696241000,15.340240966796875,2.7228193283081055,0.9923341274261475,-1.4442939758300781
1702063304713236200,15.357236328125,2.477760076522827,1.3946568965911865,-1.4405012130737305
1702063304730228700,15.374228759765625,1.9577608108520508,1.6281285285949707,-0.9379501342773438
1702063304747218400,15.391218505859374,1.462762713432312,1.506795883178711,-0.26728153228759766
1702063304764219400,15.408219482421876,1.3555972576141357,1.4425535202026367,0.33228588104248047
1702063304781211400,15.42521142578125,1.6562457084655762,1.4994001388549805,0.9236536026000977
1702063304798203400,15.442203369140625,1.9536256790161133,1.7568542957305908,1.697474479675293
1702063304815197200,15.459197265625,2.0397820472717285,2.0953969955444336,2.4491829872131348
1702063304832191000,15.47619091796875,1.5212442874908447,2.1577420234680176,2.84702205657959
1702063304849184800,15.493184814453125,0.9488568305969238,1.5402231216430664,2.6901025772094727
1702063304866178000,15.510177978515625,0.8363401889801025,0.7326436042785645,2.2543811798095703
1702063304883172000,15.527172119140625,1.4771091938018799,0.35410499572753906,2.4742050170898438
1702063304900166000,15.544165771484375,2.55375599861145,0.496950626373291,3.256253242492676
1702063304917159700,15.56115966796875,3.0111756324768066,0.6174015998840332,4.239327907562256
1702063304934153000,15.578153076171875,2.7645230293273926,0.06859540939331055,4.5856146812438965
1702063304951146800,15.595146728515624,2.517606735229492,-0.36174583435058594,3.51674222946167
1702063304968153000,15.612153076171875,2.458367109298706,-0.5480709075927734,2.385223388671875
1702063304985134300,15.62913427734375,2.5693247318267822,-0.6227521896362305,2.4058351516723633
1702063305002139400,15.646139404296875,2.0040323734283447,-0.28716516494750977,3.118248462677002
1702063305019121000,15.663120849609374,0.6925106048583984,-0.4474506378173828,3.585862159729004
1702063305036115200,15.680115234375,-0.3639082908630371,-0.5544643402099609,2.6692757606506348
1702063305053109000,15.69710888671875,-0.5874357223510742,-0.23730707168579102,1.1848044395446777
1702063305070102000,15.71410205078125,-0.010500907897949219,0.1482696533203125,0.6565651893615723
1702063305087099600,15.731099609375,0.712216854095459,0.5373373031616211,1.2003889083862305
1702063305104089900,15.74808984375,0.8950285911560059,0.4245152473449707,2.112834930419922
1702063305121083600,15.765083740234376,0.7368156909942627,0.5040836334228516,2.6190333366394043
1702063305138077000,15.782076904296876,0.6610040664672852,0.768218994140625,3.2194886207580566
1702063305155068400,15.799068359375,0.9190700054168701,0.9038863182067871,3.827450752258301
1702063305172067000,15.816067138671874,1.552093505859375,1.1320054531097412,3.9376978874206543
1702063305189058300,15.833058349609376,1.9727375507354736,1.3050341606140137,3.662585735321045
1702063305206051600,15.850051513671875,1.8515782356262207,1.2796440124511719,3.5655531883239746
1702063305223045400,15.86704541015625,1.4487628936767578,1.3297758102416992,3.6430306434631348
1702063305240039200,15.8840390625,1.2218718528747559,1.402742862701416,3.902514934539795
1702063305257033000,15.901032958984375,1.287017822265625,1.6283183097839355,3.9372119903564453
1702063305274026200,15.918026123046875,1.2975451946258545,1.8338162899017334,3.6743578910827637
1702063305291017200,15.935017333984375,1.1285033226013184,1.9238369464874268,3.161163330078125
1702063305308017200,15.95201708984375,1.17502760887146,1.9079484939575195,2.6395912170410156
1702063305325008000,15.9690078125,1.2893803119659424,1.9571232795715332,2.184879779815674
1702063305342000600,15.986000732421875,1.5738937854766846,1.9331417083740234,1.6232218742370605
1702063305358995000,16.002994873046877,2.0072617530822754,1.824589490890503,1.2636160850524902
1702063305375977000,16.01997705078125,2.310933828353882,1.726363182067871,1.0450944900512695
1702063305392983600,16.036983642578125,2.3165688514709473,1.769056797027588,0.40804004669189453
1702063305409975800,16.053975830078127,2.419275999069214,1.8915934562683105,-0.14033222198486328
1702063305426969600,16.070969482421877,2.0285069942474365,1.8631696701049805,-0.5105733871459961
1702063305443963100,16.087963134765626,1.4206085205078125,1.8013780117034912,-0.9606313705444336
1702063305460945000,16.10494482421875,1.2024043798446655,1.6265456676483154,-1.276397705078125
1702063305477950500,16.121950439453126,1.4002639055252075,1.3343150615692139,-1.0532917976379395
1702063305494944300,16.1389443359375,1.851022720336914,0.8151812553405762,-0.49321556091308594
1702063305511938000,16.15593798828125,2.4796254634857178,0.28121137619018555,0.11307239532470703
1702063305528931800,16.172931884765624,2.9168033599853516,0.013732194900512695,0.1904306411743164
1702063305545924900,16.1899248046875,2.5292749404907227,-0.006626129150390625,-0.24897193908691406
1702063305562919000,16.2069189453125,1.5560026168823242,-0.115142822265625,-0.9905080795288086
1702063305579912700,16.22391259765625,0.6485364437103271,-0.3032572269439697,-1.5389862060546875
1702063305596906500,16.240906494140624,0.27014490962028503,-0.5522336959838867,-1.7605209350585938
1702063305613899500,16.2578994140625,0.45029735565185547,-1.0019404888153076,-1.7970075607299805
1702063305630895400,16.274895263671876,0.977054238319397,-1.3560738563537598,-1.94777250289917
1702063305647885600,16.291885498046874,1.4928858280181885,-1.4413446187973022,-2.073162078857422
1702063305664870700,16.30887060546875,1.5441806316375732,-1.559694528579712,-2.0590100288391113
1702063305681874200,16.325874267578126,1.0238429307937622,-1.8311232328414917,-1.893010139465332
1702063305698868500,16.342868408203124,0.07493340969085693,-2.0291929244995117,-1.7794418334960938
1702063305715862300,16.3598623046875,-0.6461692452430725,-2.1135759353637695,-1.9408321380615234
1702063305732855800,16.376855712890624,-1.2174986600875854,-2.2652454376220703,-2.135152816772461
1702063305749849000,16.39384912109375,-1.3431017398834229,-2.14695143699646,-1.9770259857177734
1702063305766841900,16.410841796875,-1.17123281955719,-2.1124391555786133,-1.4196405410766602
1702063305783837700,16.427837646484374,-0.7724301218986511,-2.5453944206237793,-0.9634599685668945
1702063305800828400,16.444828369140627,-0.08528721332550049,-3.0549895763397217,-0.8642187118530273
1702063305817826000,16.461825927734374,0.45478105545043945,-3.161518096923828,-0.5506401062011719
1702063305834817800,16.47881787109375,0.256868839263916,-3.264605760574341,-0.6619367599487305
1702063305851811300,16.495811279296873,-0.005415678024291992,-3.3251662254333496,-0.9193172454833984
1702063305868802600,16.512802490234375,-0.07548487186431885,-3.7486090660095215,-1.1859455108642578
1702063305885801000,16.529801025390626,0.16200518608093262,-4.285085678100586,-0.8116998672485352
1702063305902781000,16.546781005859376,-0.08415532112121582,-4.456905841827393,-0.13338470458984375
1702063305919786200,16.5637861328125,-0.7169584631919861,-4.507103443145752,0.3323631286621094
1702063305936780000,16.580780029296875,-1.380998134613037,-4.772022247314453,0.25937843322753906
1702063305953773300,16.597773193359377,-2.241800308227539,-5.15936279296875,0.06680583953857422
1702063305970767000,16.61476708984375,-2.347554922103882,-5.455085277557373,0.3330259323120117
1702063305987760600,16.6317607421875,-2.238921642303467,-5.209112167358398,1.0914688110351562
1702063306004759000,16.648759033203124,-2.3679285049438477,-4.804410457611084,2.0495243072509766
1702063306021747700,16.665747802734376,-2.40450382232666,-4.740573883056641,2.326876640319824
1702063306038741800,16.68274169921875,-2.1969761848449707,-5.0247321128845215,2.2070045471191406
1702063306055735600,16.699735595703125,-1.8050777912139893,-5.234303951263428,1.8598451614379883
1702063306072729300,16.716729248046875,-0.9361802339553833,-5.302931308746338,2.1301136016845703
1702063306089722400,16.733722412109376,-0.500053882598877,-4.893624305725098,2.387298583984375
1702063306106716400,16.75071630859375,-1.0428214073181152,-4.052792072296143,1.9493465423583984
1702063306123708200,16.767708251953124,-2.338503837585449,-4.058626651763916,1.4002361297607422
1702063306140705800,16.784705810546875,-2.873460292816162,-4.193704605102539,1.533900260925293
1702063306157697300,16.801697265625,-2.215076446533203,-4.387112617492676,3.1026763916015625
1702063306174691000,16.818691162109374,-1.3633043766021729,-4.36784029006958,5.873194694519043
1702063306191684900,16.835684814453124,-1.0217652320861816,-3.5751969814300537,7.155359268188477
1702063306208676900,16.8526767578125,-1.8152134418487549,-3.2361631393432617,6.381848335266113
1702063306225676800,16.8696767578125,-2.7986412048339844,-3.4453067779541016,4.740043640136719
1702063306242656800,16.88665673828125,-3.215792655944824,-4.155686378479004,3.3953380584716797
1702063306259653400,16.9036533203125,-2.655498504638672,-4.827674388885498,2.7826642990112305
1702063306276653300,16.9206533203125,-2.2137951850891113,-5.199673652648926,2.7339611053466797
1702063306293644000,16.93764404296875,-2.0129737854003906,-5.312206268310547,2.324899673461914
1702063306310643000,16.954642822265626,-2.230409622192383,-5.196646690368652,1.4504528045654297
1702063306327634200,16.97163427734375,-2.628479480743408,-5.072633266448975,0.4967632293701172
1702063306344628000,16.9886279296875,-2.9107699394226074,-5.065901756286621,-0.3864107131958008
1702063306361621200,17.005621337890624,-2.5033862590789795,-5.007897853851318,-1.0986738204956055
1702063306378615000,17.022614990234374,-1.818865180015564,-5.003814697265625,-1.5117740631103516
1702063306395598300,17.039598388671877,-1.0385005474090576,-4.864675998687744,-1.412515640258789
1702063306412603000,17.056602783203125,-0.25976812839508057,-4.474985599517822,-0.9275960922241211
1702063306429596000,17.073595947265623,0.27351415157318115,-4.138310432434082,-0.6483964920043945
1702063306446583600,17.09058349609375,0.1289834976196289,-4.043896198272705,-0.84710693359375
1702063306463575000,17.107574951171873,-0.34685826301574707,-4.042646884918213,-1.4113645553588867
1702063306480577500,17.12457763671875,-0.47272059321403503,-4.004457473754883,-1.73736572265625
1702063306497560600,17.141560546875,-0.8078593611717224,-3.446655511856079,-1.422917366027832
1702063306514563300,17.158563232421876,-1.5494842529296875,-2.8795337677001953,-1.022735595703125
1702063306531559400,17.175559326171875,-2.2957444190979004,-2.6394715309143066,-0.7722978591918945
1702063306548541700,17.192541748046875,-2.5445895195007324,-2.419734001159668,-0.7317867279052734
1702063306565545200,17.209545166015626,-2.333224296569824,-1.9646620750427246,-0.8120689392089844
1702063306582538500,17.22653857421875,-1.6197164058685303,-1.5760612487792969,-0.9828586578369141
1702063306599533600,17.243533447265627,-0.8785883784294128,-1.514906883239746,-1.0534191131591797
1702063306616526800,17.26052685546875,0.008829697966575623,-1.3557496070861816,-0.8980379104614258
1702063306633519900,17.277519775390626,1.1862506866455078,-1.130095362663269,-0.778681755065918
1702063306650514000,17.294513916015624,2.2451000213623047,-1.002269983291626,-0.5104341506958008
1702063306667497000,17.3114970703125,3.2140233516693115,-0.6554509401321411,-0.5050020217895508
1702063306684501500,17.32850146484375,3.3771374225616455,-0.3443871736526489,-0.6759138107299805
1702063306701494500,17.34549462890625,3.1241908073425293,-0.012564659118652344,-0.6042318344116211
1702063306718488600,17.362488525390624,2.5824227333068848,0.29585766792297363,-0.21948528289794922
1702063306735482400,17.379482421875,2.280118703842163,0.5053297281265259,-0.28081226348876953
1702063306752476200,17.39647607421875,2.140463352203369,0.5784883499145508,-0.5871877670288086
1702063306769469200,17.41346923828125,2.1619362831115723,0.6735060214996338,-1.1650819778442383
1702063306786452700,17.43045263671875,2.3140664100646973,0.6850482225418091,-1.4812841415405273
1702063306803457000,17.44745703125,2.424220085144043,0.6763780117034912,-1.4885468482971191
1702063306820450800,17.464450927734376,2.4596736431121826,0.7867355346679688,-1.3387336730957031
1702063306837444000,17.481444091796874,2.347827434539795,0.9166150093078613,-1.238511085510254
1702063306854438000,17.49843798828125,2.2403564453125,1.0148212909698486,-1.2894792556762695
1702063306871431400,17.515431396484374,2.2143516540527344,1.0649139881134033,-1.440091609954834
1702063306888425500,17.532425537109376,2.3301873207092285,0.9889719486236572,-1.504486083984375
1702063306905408500,17.549408447265623,2.551457405090332,1.126212477684021,-1.5671310424804688
1702063306922412800,17.566412841796875,2.6452012062072754,1.3388690948486328,-1.2358570098876953
1702063306939406600,17.583406494140625,2.5883750915527344,1.4685293436050415,-0.8051004409790039
1702063306956397600,17.6003974609375,2.508610486984253,1.5331834554672241,-0.6651229858398438
1702063306973395700,17.617395751953126,2.378302812576294,1.6673916578292847,-0.6477832794189453
1702063306990387200,17.63438720703125,2.116698741912842,1.7976359128952026,-0.8414888381958008
1702063307007381000,17.651381103515625,1.811730146408081,1.651190996170044,-1.0710601806640625
1702063307024374800,17.668374755859375,1.7327525615692139,1.420203685760498,-1.142247200012207
1702063307041368000,17.6853681640625,1.5494142770767212,1.261009931564331,-0.1295022964477539
1702063307058361900,17.70236181640625,1.0242279767990112,1.2328429222106934,1.102381706237793
1702063307075357200,17.719357177734373,0.5865170955657959,1.130566120147705,1.4512720108032227
1702063307092348000,17.736347900390626,0.5273885726928711,0.9381957054138184,1.038325309753418
1702063307109341700,17.753341796875,0.8659775257110596,0.5801424980163574,0.6881980895996094
1702063307126337500,17.770337646484375,1.718990683555603,0.15772795677185059,1.0275754928588867
1702063307143330300,17.787330322265625,2.4557507038116455,0.16586780548095703,2.4153175354003906
1702063307160324000,17.804323974609375,2.4375429153442383,0.257965087890625,3.9889583587646484
1702063307177312500,17.8213125,2.649679183959961,0.1680140495300293,4.718194961547852
1702063307194308600,17.83830859375,2.7284083366394043,0.0034780502319335938,4.32611083984375
1702063307211307500,17.8553076171875,2.695511817932129,-0.19375896453857422,3.539126396179199
1702063307228298800,17.872298828125,2.1259400844573975,-0.22287273406982422,2.525217056274414
1702063307245292000,17.8892919921875,1.6194961071014404,-0.01615142822265625,1.713210105895996
1702063307262286000,17.9062861328125,1.0048542022705078,0.06631898880004883,1.823814868927002
1702063307279269400,17.923269287109374,0.28780055046081543,0.025147438049316406,3.0348010063171387
1702063307296273400,17.9402734375,-0.23815512657165527,0.19301128387451172,3.3855509757995605
1702063307313266700,17.9572666015625,-0.13646364212036133,0.5099968910217285,2.757082462310791
1702063307330260700,17.9742607421875,0.20149707794189453,1.0100021362304688,2.2038745880126953
1702063307347254300,17.991254150390624,0.6961297988891602,1.5409090518951416,2.4291133880615234
1702063307364245800,18.008245849609374,0.7384662628173828,1.7759032249450684,3.17274808883667
1702063307381241600,18.02524169921875,0.7288429737091064,1.6567440032958984,4.056304454803467
1702063307398237400,18.042237548828126,1.1283411979675293,1.4570879936218262,4.544460773468018
1702063307415229200,18.059229248046876,1.9122512340545654,1.26668119430542,4.815218448638916
1702063307432223000,18.076222900390626,2.9786157608032227,1.1641287803649902,4.800266742706299
1702063307449216000,18.093216064453124,3.9005467891693115,1.1374363899230957,4.324835300445557
1702063307466207200,18.110207275390625,4.217304229736328,1.0972199440002441,3.6426944732666016
1702063307483206400,18.127206298828124,3.8411266803741455,1.1026368141174316,2.9138922691345215
1702063307500200000,18.144199951171874,3.1034908294677734,1.1420507431030273,2.354377269744873
1702063307517190700,18.161190673828123,2.3893539905548096,1.2406954765319824,1.9578242301940918
1702063307534184700,18.178184814453125,2.1432876586914062,1.3666143417358398,1.846057415008545
1702063307551178500,18.195178466796875,2.3562045097351074,1.4792909622192383,1.9242572784423828
1702063307568162600,18.21216259765625,2.5763938426971436,1.6019556522369385,1.81050443649292
1702063307585165300,18.229165283203123,2.2633056640625,1.5849475860595703,1.3988003730773926
1702063307602156500,18.246156494140624,1.7783831357955933,1.6212379932403564,0.6227869987487793
1702063307619155700,18.26315576171875,1.7997183799743652,1.788771152496338,0.05117988586425781
1702063307636146700,18.280146728515625,1.8877712488174438,1.9065346717834473,0.35512495040893555
1702063307653140000,18.297139892578127,1.7887461185455322,2.207313060760498,1.1531038284301758
1702063307670133800,18.3141337890625,1.439852237701416,2.225994348526001,1.7500314712524414
1702063307687127600,18.33112744140625,1.0452635288238525,2.153184413909912,1.6492090225219727
1702063307704121600,18.34812158203125,0.7686439752578735,1.8562946319580078,1.0738162994384766
1702063307721114600,18.365114501953126,1.11161470413208,1.5012726783752441,0.369049072265625
1702063307738108700,18.382108642578125,1.9466562271118164,1.2166752815246582,-0.23581790924072266
1702063307755096600,18.3990966796875,2.8005800247192383,1.1449203491210938,-0.5372400283813477
1702063307772096300,18.41609619140625,3.097024440765381,0.9526782035827637,-0.717404842376709
1702063307789089300,18.43308935546875,2.972954273223877,0.6174507141113281,-0.9024128913879395
1702063307806083300,18.450083251953124,2.2696850299835205,0.18030357360839844,-1.324676513671875
1702063307823077000,18.4670771484375,1.2860625982284546,-0.05685234069824219,-1.9578542709350586
1702063307840071200,18.4840712890625,0.38346922397613525,-0.28660106658935547,-2.3778038024902344
1702063307857064200,18.501064208984374,0.07283724844455719,-0.41921472549438477,-2.6549344062805176
1702063307874055400,18.518055419921875,0.148053839802742,-0.6638357639312744,-2.55643892288208
1702063307891051500,18.535051513671874,0.5078719258308411,-1.0803313255310059,-2.0600738525390625
1702063307908038400,18.552038330078126,0.5097696781158447,-1.362718105316162,-1.9022393226623535
1702063307925038000,18.5690380859375,0.10121312737464905,-1.6848933696746826,-2.1767053604125977
1702063307942033000,18.586032958984376,-0.46094170212745667,-2.2219293117523193,-2.5426177978515625
1702063307959026400,18.6030263671875,-0.8748300075531006,-2.8965773582458496,-2.714740753173828
1702063307976020000,18.62002001953125,-1.177911400794983,-3.3524274826049805,-2.552183151245117
1702063307993013200,18.63701318359375,-1.3966399431228638,-3.5498106479644775,-2.013835906982422
1702063308010007300,18.65400732421875,-1.587862253189087,-3.4159553050994873,-1.3939666748046875
1702063308027001000,18.6710009765625,-1.7166790962219238,-3.7336785793304443,-1.2769594192504883
1702063308043995000,18.687994873046875,-1.366896629333496,-4.0059404373168945,-1.9068794250488281
1702063308060985600,18.704985595703125,-0.8392671346664429,-3.939089298248291,-2.228104591369629
1702063308077984500,18.721984619140624,-0.6276249289512634,-3.9348864555358887,-1.8901128768920898
1702063308094975700,18.738975830078125,-0.4373653829097748,-3.9207491874694824,-1.3118572235107422
1702063308111969300,18.75596923828125,-0.38320109248161316,-4.138923168182373,-0.7881193161010742
1702063308128955400,18.772955322265624,-0.15260249376296997,-4.2040181159973145,-0.9639558792114258
1702063308145956600,18.78995654296875,-0.14054608345031738,-4.111945629119873,-1.209543228149414
1702063308162947800,18.80694775390625,-0.08784747123718262,-4.103002548217773,-1.3185930252075195
1702063308179946800,18.82394677734375,-0.21017146110534668,-4.1840362548828125,-1.3868303298950195
1702063308196926700,18.8409267578125,-0.46909022331237793,-4.2510271072387695,-1.2357749938964844
1702063308213931000,18.857930908203127,-0.8579810857772827,-4.415920257568359,-0.8605117797851562
1702063308230922200,18.874922119140624,-1.2679262161254883,-4.252301216125488,-0.46317291259765625
1702063308247911700,18.89191162109375,-1.9398410320281982,-3.9685118198394775,-0.03554248809814453
1702063308264912000,18.908911865234376,-2.181954860687256,-3.9907336235046387,0.4067039489746094
1702063308281903000,18.925903076171874,-1.693465232849121,-3.9837050437927246,0.8945684432983398
1702063308298902300,18.94290234375,-1.1357779502868652,-4.042859077453613,0.8680191040039062
1702063308315890700,18.959890625,-0.35039883852005005,-4.214529991149902,0.8228416442871094
1702063308332886300,18.97688623046875,0.22403301298618317,-3.7931101322174072,1.0793695449829102
1702063308349883400,18.99388330078125,-0.024213649332523346,-3.4255666732788086,1.972611427307129
1702063308366874400,19.010874267578124,-0.4963913559913635,-3.269458055496216,2.334322929382324
1702063308383868200,19.0278681640625,0.08222192525863647,-3.115295886993408,2.077399253845215
1702063308400859600,19.044859619140624,1.027222990989685,-2.949585199356079,2.0429019927978516
1702063308417856800,19.061856689453126,1.7909194231033325,-3.1510143280029297,2.675929069519043
1702063308434848800,19.078848876953124,1.7555603981018066,-3.9199881553649902,3.6460676193237305
1702063308451842600,19.095842529296874,-0.31357091665267944,-4.067636489868164,4.8616533279418945
1702063308468835800,19.1128359375,-2.673302173614502,-3.8552136421203613,3.9702205657958984
1702063308485834000,19.129833984375,-4.233027935028076,-3.688626289367676,3.0699214935302734
1702063308502823700,19.14682373046875,-4.183384895324707,-3.530928611755371,3.3427295684814453
1702063308519817500,19.1638173828125,-2.2105376720428467,-3.925154685974121,2.9898462295532227
1702063308536810500,19.180810546875,-0.8885424137115479,-4.471184253692627,3.356358528137207
1702063308553792500,19.19779248046875,-0.5969458222389221,-4.66274356842041,3.6479406356811523
1702063308570789600,19.21478955078125,-1.2723740339279175,-4.811919212341309,3.1560983657836914
1702063308587794700,19.231794677734374,-2.3479416370391846,-4.865931510925293,1.8374567031860352
1702063308604779300,19.248779296875,-2.847256660461426,-4.896667957305908,0.4371929168701172
1702063308621779200,19.265779296875,-2.6012134552001953,-4.814965724945068,-0.5089845657348633
1702063308638772700,19.282772705078123,-1.552856206893921,-4.710906028747559,-0.4631023406982422
1702063308655766800,19.299766845703125,-0.8342409729957581,-4.658036708831787,0.23673629760742188
1702063308672758000,19.316758056640627,-0.3705121874809265,-4.527547836303711,0.7042407989501953
1702063308689755400,19.33375537109375,-0.5997606515884399,-4.21060037612915,0.27837657928466797
1702063308706747600,19.35074755859375,-0.9691829681396484,-3.68440318107605,-0.7880153656005859
1702063308723743200,19.3677431640625,-1.1848134994506836,-3.4255151748657227,-1.6064958572387695
1702063308740734500,19.384734375,-0.6774580478668213,-3.414133071899414,-1.8202342987060547
1702063308757728500,19.401728515625,0.17815086245536804,-3.36660099029541,-1.5161199569702148
1702063308774722000,19.41872216796875,0.5476416349411011,-3.1874399185180664,-1.0205879211425781
1702063308791715800,19.4357158203125,0.6076738238334656,-2.878201961517334,-1.3280315399169922
1702063308808709600,19.452709716796875,0.32869166135787964,-2.631408929824829,-2.089284896850586
1702063308825700400,19.469700439453124,0.12243542075157166,-2.1385059356689453,-2.8535070419311523
1702063308842696400,19.486696533203126,0.0670253336429596,-1.5761079788208008,-3.1340808868408203
1702063308859690500,19.5036904296875,-0.32156407833099365,-0.9533507823944092,-2.9464550018310547
1702063308876683800,19.520683837890626,-0.8475629091262817,-0.5029016733169556,-2.897918701171875
1702063308893677600,19.537677490234376,-1.2072205543518066,-0.27528882026672363,-2.896721839904785
1702063308910671600,19.554671630859374,-1.3827705383300781,-0.13996875286102295,-3.001837730407715
1702063308927662600,19.57166259765625,-1.0296320915222168,-0.3476461172103882,-3.0148792266845703
1702063308944661000,19.588660888671875,-0.3208879828453064,-0.7747321128845215,-3.0480756759643555
1702063308961652500,19.605652587890624,0.48380106687545776,-0.8480645418167114,-2.9208030700683594
1702063308978646000,19.62264599609375,0.4124376177787781,-0.6815853118896484,-2.252033233642578
1702063308995639800,19.639639892578124,0.04937049746513367,-0.2744870185852051,-1.2527074813842773
1702063309012633000,19.656633056640626,-0.0005269646644592285,-0.27299046516418457,-0.7615156173706055
1702063309029627000,19.673626953125,0.47940877079963684,-0.3210749626159668,-1.0887737274169922
1702063309046621000,19.690620849609374,1.2039169073104858,-0.19115328788757324,-1.5267739295959473
1702063309063616500,19.707616455078124,1.5617300271987915,-0.016744375228881836,-1.6841206550598145
1702063309080605700,19.724605712890625,1.3754708766937256,-0.08753085136413574,-1.544051170349121
1702063309097601500,19.7416015625,1.113053321838379,-0.19863414764404297,-1.1507444381713867
1702063309114595300,19.75859521484375,1.2560019493103027,-0.4435441493988037,-0.7908964157104492
1702063309131589000,19.775589111328124,1.8767664432525635,-0.42900586128234863,-0.5407619476318359
1702063309148582400,19.79258251953125,2.399662494659424,-0.2565491199493408,-0.2980518341064453
1702063309165576200,19.809576171875,2.653261661529541,0.04506683349609375,-0.062073707580566406
1702063309182570000,19.826570068359374,2.7316393852233887,0.3029780387878418,-0.02709484100341797
1702063309199563800,19.843563720703123,3.055501699447632,0.4501686096191406,0.17727375030517578
1702063309216556300,19.860556396484377,3.2222273349761963,0.6122703552246094,0.5399398803710938
1702063309233551600,19.877551513671875,2.9567224979400635,1.0351378917694092,0.913604736328125
1702063309250544600,19.894544677734373,2.2256016731262207,1.460747241973877,0.9644441604614258
1702063309267538400,19.911538330078123,1.7447658777236938,1.644430160522461,0.8349037170410156
1702063309284531700,19.92853173828125,1.6699435710906982,1.5805604457855225,1.032823085784912
1702063309301525500,19.945525390625,1.78607976436615,1.462087631225586,1.634260654449463
1702063309318519300,19.962519287109377,1.678253173828125,1.2589306831359863,2.3323893547058105
1702063309335513300,19.979513427734375,1.7098721265792847,1.4302692413330078,2.5490851402282715
1702063309352506000,19.996506103515625,1.9101760387420654,1.408505916595459,2.645714282989502
1702063309369500200,20.013500244140626,2.6293039321899414,0.9790804386138916,2.718341827392578
1702063309386494000,20.030493896484376,3.196749687194824,0.7697439193725586,2.969942092895508
1702063309403488000,20.047488037109375,3.037675380706787,0.8911476135253906,3.435051918029785
1702063309420478200,20.064478271484376,2.5806262493133545,0.8880009651184082,3.5828452110290527
1702063309437477400,20.081477294921875,2.4465091228485107,0.812183141708374,3.2763919830322266
1702063309454480400,20.09848046875,2.4688496589660645,0.8409864902496338,2.8069067001342773
1702063309471463200,20.115463134765626,2.5685677528381348,0.8077261447906494,2.4049572944641113
1702063309488455700,20.13245556640625,2.2586312294006348,0.37951231002807617,2.2677431106567383
1702063309505439000,20.14943896484375,1.532862663269043,-0.09384822845458984,2.1338701248168945
1702063309522439700,20.166439697265623,0.6772475242614746,-0.34750843048095703,1.9711852073669434
1702063309539437000,20.18343701171875,0.06611490249633789,-0.4401559829711914,1.8656401634216309
1702063309556427300,20.20042724609375,0.0992579460144043,-0.34128522872924805,1.9975810050964355
1702063309573427200,20.21742724609375,0.5122256278991699,-0.14652109146118164,2.2009196281433105
1702063309590418000,20.23441796875,1.0205073356628418,-0.001918792724609375,2.3213348388671875
1702063309607415000,20.2514150390625,1.512089729309082,0.21979713439941406,2.0361008644104004
1702063309624401400,20.2684013671875,1.864220142364502,0.397336483001709,1.73095703125
1702063309641398800,20.285398681640626,1.9862565994262695,0.5824294090270996,1.5369877815246582
1702063309658392600,20.302392578125,1.8005785942077637,0.8668551445007324,1.9795184135437012
1702063309675383800,20.3193837890625,1.4742302894592285,1.2243704795837402,2.807559013366699
1702063309692382000,20.3363818359375,1.1677703857421875,1.1683354377746582,3.3431010246276855
1702063309709373400,20.35337353515625,1.2919015884399414,1.1377654075622559,3.150455951690674
1702063309726367200,20.3703671875,1.6611790657043457,1.064544916152954,2.5211234092712402
1702063309743361000,20.387361083984374,2.135554552078247,0.9919099807739258,1.9856185913085938
1702063309760354000,20.40435400390625,2.3753504753112793,0.8884091377258301,2.057920455932617
1702063309777348000,20.42134814453125,2.1381161212921143,0.7878217697143555,2.794095516204834
1702063309794342000,20.438341796875,2.055286169052124,0.6844043731689453,3.5211949348449707
1702063309811335700,20.455335693359373,2.1028778553009033,0.7851476669311523,3.5539774894714355
1702063309828328700,20.47232861328125,2.18346905708313,0.9847495555877686,2.861509323120117
1702063309845322800,20.48932275390625,2.3267102241516113,1.1685676574707031,2.002934455871582
1702063309862316300,20.50631640625,2.592597007751465,1.253018856048584,1.73286771774292
1702063309879310300,20.523310302734377,2.709522247314453,1.441859245300293,1.966660499572754
1702063309896300800,20.54030078125,2.7109251022338867,1.460810899734497,2.370150566101074
1702063309913311700,20.557311767578124,2.74630069732666,1.5823793411254883,2.4092721939086914
1702063309930291200,20.574291259765626,2.9555158615112305,1.7120985984802246,2.1041412353515625
1702063309947284700,20.59128466796875,3.388423204421997,1.522994041442871,1.6501989364624023
1702063309964278000,20.608278076171874,3.664219617843628,1.154148817062378,1.1002655029296875
1702063309981272000,20.62527197265625,3.3739049434661865,0.7734978199005127,0.5471105575561523
1702063309998265300,20.642265380859374,2.229057550430298,0.736907958984375,-0.2053842544555664
1702063310015260200,20.65926025390625,1.3297066688537598,0.8102598190307617,-0.9104394912719727
1702063310032242700,20.67624267578125,1.0050592422485352,0.9020943641662598,-1.193161964416504
1702063310049246500,20.69324658203125,1.077194333076477,0.9455223083496094,-1.1866202354431152
1702063310066241500,20.710241455078126,1.4022480249404907,0.8663091659545898,-1.0879921913146973
1702063310083233000,20.72723291015625,1.7666223049163818,0.790264368057251,-1.2371702194213867
1702063310100227300,20.744227294921874,1.8744103908538818,0.6674857139587402,-1.349203109741211
1702063310117221000,20.76122119140625,1.5562586784362793,0.41817736625671387,-1.226700782775879
1702063310134215000,20.77821484375,0.9247385263442993,0.12088179588317871,-1.0423212051391602
1702063310151210200,20.795210205078124,0.3844592571258545,-0.08516740798950195,-0.9789533615112305
1702063310168200400,20.812200439453125,0.13021214306354523,-0.35861682891845703,-0.9261178970336914
1702063310185196000,20.829196044921876,0.2548787593841553,-0.7888474464416504,-0.6050424575805664
1702063310202185500,20.846185546875,-0.010640546679496765,-0.9896433353424072,-0.1542797088623047
1702063310219187500,20.8631875,-0.41837412118911743,-1.0703866481781006,0.11807918548583984
1702063310236176400,20.88017626953125,-0.9221829175949097,-1.2688071727752686,-0.15010833740234375
1702063310253170400,20.89717041015625,-1.352177619934082,-1.171101689338684,-0.6179952621459961
1702063310270164200,20.914164306640625,-1.6847033500671387,-1.444063663482666,-0.924473762512207
1702063310287159600,20.93115966796875,-1.4997742176055908,-2.3242669105529785,-1.1532316207885742
1702063310304139300,20.94813916015625,-0.7803859114646912,-2.9409780502319336,-1.7047090530395508
1702063310321144800,20.965144775390623,0.27865397930145264,-3.1297688484191895,-2.0892066955566406
1702063310338139000,20.982138916015625,-0.13490724563598633,-3.276106834411621,-2.4778575897216797
1702063310355132700,20.999132568359375,-0.6102572083473206,-3.260739326477051,-3.0786190032958984
1702063310372126000,21.0161259765625,-0.9528519511222839,-2.9618337154388428,-3.3478927612304688
1702063310389120000,21.0331201171875,-0.835267186164856,-2.479099988937378,-3.148601531982422
1702063310406113300,21.05011328125,-0.3341544270515442,-2.1108973026275635,-2.290168285369873
1702063310423107600,21.067107666015627,-0.22110408544540405,-1.9895864725112915,-1.3272733688354492
1702063310440100400,21.084100341796876,-0.04495048522949219,-2.088365077972412,-0.8485918045043945
1702063310457091600,21.101091552734374,0.438565731048584,-2.403404712677002,-1.1357660293579102
1702063310474090800,21.1180908203125,0.8423868417739868,-2.457254648208618,-1.554957389831543
1702063310491082000,21.13508203125,0.6150678396224976,-2.5555074214935303,-1.0908679962158203
1702063310508075300,21.1520751953125,-0.8409588932991028,-2.8139688968658447,0.42107486724853516
1702063310525069600,21.169069580078126,-2.0340890884399414,-3.0168755054473877,1.243727684020996
1702063310542062000,21.18606201171875,-2.4100351333618164,-3.127615213394165,1.1860179901123047
1702063310559056600,21.203056640625,-2.251823902130127,-3.1767773628234863,0.9813051223754883
1702063310576049700,21.220049560546876,-1.6142168045043945,-3.4145030975341797,1.2429065704345703
1702063310593043700,21.237043701171874,-1.2427401542663574,-4.153645992279053,1.4905633926391602
1702063310610037500,21.25403759765625,-0.6930728554725647,-5.031666278839111,1.3311166763305664
1702063310627020000,21.27102001953125,0.17859917879104614,-5.462158203125,0.38838672637939453
1702063310644022300,21.288022216796875,0.8118735551834106,-5.2948737144470215,-0.2931547164916992
1702063310661021000,21.30502099609375,1.2611321210861206,-5.1460065841674805,0.06480598449707031
1702063310678012000,21.322011962890624,1.3022559881210327,-4.920628547668457,1.119431495666504
1702063310694995200,21.3389951171875,0.6456689238548279,-5.042808532714844,3.047395706176758
1702063310711999000,21.3559990234375,-0.4399951100349426,-5.513218879699707,4.407528877258301
1702063310728992800,21.37299267578125,-1.2690011262893677,-5.897248268127441,4.7643842697143555
1702063310745986800,21.38998681640625,-1.4109351634979248,-5.976875305175781,4.2384233474731445
1702063310762980400,21.40698046875,-1.0772680044174194,-5.7472758293151855,3.74481201171875
1702063310779973600,21.4239736328125,-0.7902171611785889,-5.521976947784424,3.8107032775878906
1702063310796967400,21.440967529296874,-0.8934029340744019,-5.542811870574951,3.7865705490112305
1702063310813961500,21.45796142578125,-1.210688829421997,-5.459170341491699,2.7940330505371094
1702063310830955000,21.474955078125,-0.9494753479957581,-5.3839592933654785,1.3435230255126953
1702063310847948300,21.4919482421875,-0.15828672051429749,-5.1190972328186035,0.5686798095703125
