time,seconds_elapsed,z,y,x
1701979929376215000,0.102215087890625,-0.7556533813476562,-0.3844115734100342,-0.4515507221221924
1701979929393208300,0.119208251953125,-0.5087985992431641,-0.3435802459716797,-0.46119213104248047
1701979929410201600,0.13620166015625,-0.33110618591308594,-0.02931666374206543,0.10494208335876465
1701979929427188000,0.15318798828125,-0.22822189331054688,0.19176149368286133,0.3560299873352051
1701979929444182000,0.17018212890625,0.2137746810913086,0.21435141563415527,0.22935843467712402
1701979929461163800,0.187163818359375,0.37965869903564453,0.2677175998687744,0.25509071350097656
1701979929478170600,0.204170654296875,0.3693046569824219,0.34113574028015137,0.2397298812866211
1701979929495146800,0.221146728515625,0.15456676483154297,0.38927507400512695,0.19716453552246094
1701979929512143000,0.23814306640625,-0.37134456634521484,0.38112425804138184,0.2473440170288086
1701979929529139200,0.25513916015625,-0.9815378189086914,0.2694971561431885,0.4082212448120117
1701979929546124500,0.27212451171875,-1.4003019332885742,0.08896565437316895,0.5251338481903076
1701979929563135200,0.28913525390625,-1.454545021057129,-0.1263422966003418,0.52146315574646
1701979929580108000,0.30610791015625,-1.6027307510375977,-0.4573643207550049,0.6545767784118652
1701979929597100500,0.3231005859375,-1.9896326065063477,-0.4115031957626343,0.652940034866333
1701979929614099200,0.34009912109375,-2.464609146118164,-0.4372060298919678,0.4922211170196533
1701979929631075800,0.357075927734375,-2.8299217224121094,-0.7879273891448975,0.2201244831085205
1701979929648073000,0.374072998046875,-3.2198400497436523,-0.8853439092636108,-0.14357829093933105
1701979929665068800,0.39106884765625,-4.139538764953613,-1.1181405782699585,-0.24478626251220703
1701979929682058800,0.408058837890625,-4.737001895904541,-1.3876118659973145,-0.3889455795288086
1701979929699051000,0.425051025390625,-3.6525869369506836,-1.4864649772644043,-0.886711597442627
1701979929716039000,0.442038818359375,-1.709902286529541,-1.6218695640563965,-1.3356270790100098
1701979929733032000,0.459031982421875,0.1891932487487793,-1.793441653251648,-1.4329776763916016
1701979929750025200,0.476025146484375,-1.0570778846740723,-1.6477552652359009,-1.2695412635803223
1701979929767011600,0.493011474609375,-3.018594741821289,-1.3650563955307007,-1.7509455680847168
1701979929784005600,0.510005615234375,-2.455253839492798,-1.1016477346420288,-2.290316104888916
1701979929800995600,0.52699560546875,-0.4430203437805176,-0.673188328742981,-2.444784641265869
1701979929817988400,0.54398828125,-0.01474761962890625,0.04154849052429199,-2.2598443031311035
1701979929834966800,0.560966796875,0.02083754539489746,0.8595426678657532,-1.3761634826660156
1701979929851973000,0.57797314453125,1.3193743228912354,1.804370641708374,0.27739620208740234
1701979929868963000,0.594963134765625,3.493039608001709,2.586261749267578,1.648050308227539
1701979929885950200,0.6119501953125,5.432404518127441,3.076692819595337,2.1573715209960938
1701979929902943500,0.628943603515625,5.358867645263672,2.8193655014038086,1.9202508926391602
1701979929919937000,0.64593701171875,3.9318442344665527,2.839616298675537,0.8292570114135742
1701979929936923600,0.662923583984375,3.316883087158203,2.3824057579040527,0.29909420013427734
1701979929953907200,0.6799072265625,3.3920984268188477,2.3303065299987793,0.11890125274658203
1701979929970907100,0.6969072265625,3.2038064002990723,2.256495475769043,0.1688213348388672
1701979929987900200,0.713900146484375,2.711782217025757,2.283567428588867,-0.07410240173339844
1701979930004891400,0.730891357421875,2.2607297897338867,2.3675031661987305,-0.28679752349853516
1701979930021883000,0.7478828125,2.089182138442993,2.4083099365234375,-0.32407188415527344
1701979930038875400,0.76487548828125,2.1298699378967285,2.4290008544921875,-0.3128490447998047
1701979930055866600,0.78186669921875,2.26436710357666,2.2022786140441895,-0.20129776000976562
1701979930072861400,0.798861328125,2.55550479888916,1.7497355937957764,-0.2160196304321289
1701979930089849900,0.815849853515625,2.947402238845825,1.3489916324615479,-0.20322132110595703
1701979930106834200,0.832834228515625,3.1016554832458496,0.9584486484527588,-0.1302175521850586
1701979930123818200,0.849818359375,2.8297903537750244,0.6016263961791992,0.12269878387451172
1701979930140829000,0.866828857421875,2.450638771057129,0.7054064273834229,0.10447311401367188
1701979930157811200,0.883811279296875,2.096513509750366,0.6745905876159668,-0.17879581451416016
1701979930174800400,0.90080029296875,1.6908820867538452,0.14935898780822754,-0.46922779083251953
1701979930191791900,0.9177919921875,1.6385931968688965,-0.07609295845031738,-0.8052005767822266
1701979930208784600,0.93478466796875,1.379270076751709,-0.39939093589782715,-0.5318145751953125
1701979930225779700,0.95177978515625,0.4583621025085449,-0.8383662700653076,0.2868785858154297
1701979930242768000,0.968767822265625,-0.2708597183227539,-0.5311205387115479,0.2200927734375
1701979930259771400,0.985771484375,-0.6934596300125122,-0.1529531478881836,-0.170013427734375
1701979930276748300,1.002748291015625,-0.7721966505050659,-0.849027156829834,0.015890121459960938
1701979930293753000,1.019753173828125,-0.4034090042114258,-1.4815807342529297,-0.2404184341430664
1701979930310731000,1.03673095703125,0.5599877834320068,-0.9957365989685059,-0.5104293823242188
1701979930327716600,1.053716552734375,0.8758289813995361,-0.3812546730041504,0.4984111785888672
1701979930344714000,1.0707138671875,0.039901018142700195,-0.49979329109191895,2.1934661865234375
1701979930361707000,1.08770703125,-0.8969460725784302,-0.9124269485473633,2.2266483306884766
1701979930378687700,1.104687744140625,-0.5583537817001343,-1.2132489681243896,0.6124544143676758
1701979930395689500,1.121689453125,0.5285139083862305,-1.62388277053833,-0.37937450408935547
1701979930412679200,1.13867919921875,1.0056397914886475,-2.384046792984009,0.02368450164794922
1701979930429670400,1.15567041015625,0.8659043312072754,-3.147923231124878,1.104353904724121
1701979930446660900,1.172660888671875,-0.2553384304046631,-3.7953226566314697,2.6907129287719727
1701979930463653000,1.189653076171875,-1.6438758373260498,-4.2502641677856445,3.528898239135742
1701979930480645400,1.206645263671875,-2.2201497554779053,-4.237146377563477,2.9770145416259766
1701979930497633300,1.22363330078125,-2.0824742317199707,-3.969583511352539,1.6329927444458008
1701979930514626300,1.240626220703125,-1.693604826927185,-3.8046388626098633,0.6260414123535156
1701979930531619800,1.257619873046875,-1.7805252075195312,-4.388998031616211,1.036468505859375
1701979930548598800,1.274598876953125,-2.2672669887542725,-5.610307693481445,2.2296981811523438
1701979930565598500,1.291598388671875,-1.914275050163269,-6.52154541015625,2.2804298400878906
1701979930582593500,1.308593505859375,-1.025678038597107,-5.83902645111084,0.6383304595947266
1701979930599584300,1.325584228515625,-0.6017900705337524,-5.313032150268555,-0.055731773376464844
1701979930616572400,1.342572509765625,-0.4835752248764038,-5.048796653747559,0.2588376998901367
1701979930633556200,1.35955615234375,-0.3848752975463867,-5.39186954498291,1.908914566040039
1701979930650544000,1.376544189453125,-0.7085646390914917,-5.780098915100098,4.139848709106445
1701979930667544800,1.393544921875,-1.150052547454834,-6.24752140045166,4.924317359924316
1701979930684539100,1.4105390625,-1.7429016828536987,-6.205843448638916,3.918560028076172
1701979930701531600,1.42753173828125,-2.156658411026001,-5.854337692260742,2.1979265213012695
1701979930718517500,1.444517578125,-1.673231840133667,-5.700780391693115,1.3987302780151367
1701979930735512800,1.461512939453125,-0.8947277069091797,-5.725327968597412,1.333831787109375
1701979930752511700,1.47851171875,-0.3495289087295532,-5.8055925369262695,1.8378801345825195
1701979930769494300,1.495494384765625,0.2989234924316406,-5.701066493988037,2.2266273498535156
1701979930786484500,1.512484375,0.43897128105163574,-5.664566993713379,2.05637264251709
1701979930803476700,1.529476806640625,-0.13448238372802734,-5.6110334396362305,1.5867462158203125
1701979930820469200,1.54646923828125,-0.40393102169036865,-5.41136360168457,1.0584259033203125
1701979930837456600,1.56345654296875,-0.36686384677886963,-5.18217658996582,0.3867969512939453
1701979930854450000,1.580449951171875,-0.1642230749130249,-5.165404319763184,0.1971874237060547
1701979930871443200,1.597443115234375,0.23243355751037598,-5.183736801147461,0.24179744720458984
1701979930888429800,1.614429931640625,0.7655758857727051,-4.859418869018555,0.32891082763671875
1701979930905425000,1.6314248046875,0.7024502754211426,-4.545694351196289,0.5924625396728516
1701979930922414800,1.648414794921875,0.1458911895751953,-4.2265167236328125,0.3753824234008789
1701979930939408000,1.665407958984375,-0.45086753368377686,-4.160366058349609,-0.052056312561035156
1701979930956392700,1.682392822265625,-0.32520079612731934,-4.06047248840332,-0.4288806915283203
1701979930973389600,1.6993896484375,0.0310971736907959,-3.6521458625793457,-0.7377023696899414
1701979930990380000,1.716380126953125,0.46956586837768555,-3.427384376525879,-0.6257114410400391
1701979931007368700,1.73336865234375,0.5483660697937012,-3.317837715148926,-0.7276792526245117
1701979931024361700,1.75036181640625,0.6743165254592896,-3.2792646884918213,-0.9554262161254883
1701979931041355300,1.767355224609375,0.9873738288879395,-3.164257526397705,-1.3117170333862305
1701979931058342000,1.784341796875,1.5445425510406494,-2.9228415489196777,-1.5890522003173828
1701979931075337000,1.8013369140625,2.003549575805664,-2.536855936050415,-1.7197656631469727
1701979931092326700,1.81832666015625,2.3104567527770996,-2.3576512336730957,-1.5852046012878418
1701979931109317000,1.835317138671875,2.374831199645996,-2.1532537937164307,-1.6737256050109863
1701979931126309000,1.85230908203125,2.337491035461426,-1.725163221359253,-1.877161979675293
1701979931143300400,1.86930029296875,2.360654354095459,-1.3143205642700195,-2.022325038909912
1701979931160292900,1.88629296875,2.497098684310913,-1.0863876342773438,-2.034834861755371
1701979931177272000,1.90327197265625,2.7438268661499023,-1.1458625793457031,-1.8349971771240234
1701979931194272000,1.92027197265625,3.2942984104156494,-1.2103376388549805,-1.4291744232177734
1701979931211268600,1.9372685546875,3.9537410736083984,-0.9481463432312012,-1.1339435577392578
1701979931228251000,1.9542509765625,4.396043300628662,-0.5117330551147461,-1.026878833770752
1701979931245251300,1.971251220703125,4.573204517364502,-0.04330301284790039,-0.9777107238769531
1701979931262238500,1.988238525390625,4.475536823272705,0.4053983688354492,-1.0595250129699707
1701979931279231700,2.005231689453125,4.231137752532959,0.49095821380615234,-1.0614466667175293
1701979931296218600,2.022218505859375,4.369561195373535,0.5044212341308594,-0.9365296363830566
1701979931313212700,2.039212646484375,4.722407341003418,0.5535459518432617,-0.6413273811340332
1701979931330205000,2.056204833984375,4.965434551239014,0.7296061515808105,-0.40592384338378906
1701979931347192600,2.073192626953125,5.086259841918945,1.093766689300537,-0.018720626831054688
1701979931364186400,2.090186279296875,4.992393493652344,1.4590258598327637,0.09368467330932617
1701979931381177900,2.107177734375,4.745630264282227,1.4876341819763184,0.16643047332763672
1701979931398158800,2.124158935546875,4.30195951461792,1.5256710052490234,-0.15436983108520508
1701979931415150000,2.141150146484375,4.1863112449646,1.7928194999694824,-0.44909238815307617
1701979931432150300,2.158150390625,4.092264175415039,1.965651512145996,-0.2615971565246582
1701979931449143800,2.175143798828125,4.145072937011719,1.7717256546020508,0.40599632263183594
1701979931466131000,2.192130859375,4.528319835662842,1.1977553367614746,1.5011038780212402
1701979931483135700,2.2091357421875,4.806976795196533,0.683720588684082,2.382016658782959
1701979931500107300,2.226107177734375,4.862777233123779,0.5345921516418457,2.523995876312256
1701979931517106000,2.24310595703125,4.864230155944824,0.4899611473083496,2.347403049468994
1701979931534100000,2.260099853515625,4.367109298706055,0.3123946189880371,2.198364734649658
1701979931551094800,2.2770947265625,3.8695902824401855,0.30774593353271484,2.0065970420837402
1701979931568078000,2.294078125,3.6323251724243164,0.20761537551879883,2.374330520629883
1701979931585072400,2.311072265625,3.535038471221924,-0.25690221786499023,3.5279455184936523
1701979931602062300,2.328062255859375,3.2245545387268066,-0.8081445693969727,4.209036350250244
1701979931619055600,2.3450556640625,2.919691562652588,-1.18229341506958,3.2277960777282715
1701979931636042500,2.36204248046875,2.2340123653411865,-1.0697927474975586,1.8532495498657227
1701979931653036300,2.379036376953125,1.435655117034912,-0.7223587036132812,1.6701688766479492
1701979931670028800,2.39602880859375,-0.13353824615478516,-0.6329584121704102,2.3862781524658203
1701979931687009300,2.41300927734375,-0.5903191566467285,-0.5575895309448242,3.0798468589782715
1701979931704009500,2.430009521484375,0.7076754570007324,-0.3664860725402832,2.688485622406006
1701979931721002800,2.447002685546875,2.0901718139648438,0.29364871978759766,1.434476375579834
1701979931737989400,2.4639892578125,2.1223647594451904,1.139829158782959,0.42150449752807617
1701979931754997200,2.480997314453125,0.61370849609375,1.4145641326904297,0.47241830825805664
1701979931771974100,2.49797412109375,-0.11445760726928711,1.6866703033447266,1.6063499450683594
1701979931788967400,2.514967529296875,0.5488739013671875,2.3065247535705566,3.264651298522949
1701979931805954300,2.531954345703125,1.7595429420471191,3.22036075592041,3.820585250854492
1701979931822948400,2.5489482421875,2.468045949935913,3.7411065101623535,4.0357818603515625
1701979931839940900,2.56594091796875,2.01814866065979,3.7648847103118896,3.8900623321533203
1701979931856928500,2.582928466796875,0.7454571723937988,3.518758773803711,3.74503231048584
1701979931873911000,2.5999111328125,-0.40582895278930664,3.06921124458313,4.444550514221191
1701979931890912000,2.616912109375,-0.17466259002685547,3.3029212951660156,4.935961723327637
1701979931907904000,2.633904052734375,1.0883145332336426,3.4585862159729004,4.767214775085449
1701979931924896300,2.650896240234375,2.401024580001831,3.2663795948028564,4.40146541595459
1701979931941896700,2.667896728515625,3.3532872200012207,2.928546905517578,4.0215678215026855
1701979931958881800,2.6848818359375,3.8641843795776367,2.4969654083251953,3.505458354949951
1701979931975870700,2.70187060546875,3.77166748046875,2.2974939346313477,3.246462821960449
1701979931992855300,2.718855224609375,3.6127963066101074,2.4780802726745605,3.034754753112793
1701979932009851100,2.73585107421875,3.410126209259033,2.622809410095215,3.2077865600585938
1701979932026843600,2.75284375,3.206332206726074,2.4263768196105957,3.804558277130127
1701979932043832000,2.76983203125,3.3082308769226074,2.2515478134155273,4.0558695793151855
1701979932060829000,2.786828857421875,3.684678554534912,2.0453715324401855,3.828289031982422
1701979932077811500,2.8038115234375,3.9798123836517334,1.912503719329834,3.0909409523010254
1701979932094809300,2.820809326171875,4.046266555786133,1.1914386749267578,2.6765384674072266
1701979932111788300,2.837788330078125,4.781877517700195,0.3853487968444824,2.6021194458007812
1701979932128789200,2.854789306640625,5.564704418182373,0.15831851959228516,2.5544047355651855
1701979932145771000,2.87177099609375,5.364248275756836,0.027050018310546875,2.681626796722412
1701979932162765300,2.888765380859375,4.398609638214111,0.20442819595336914,2.3916783332824707
1701979932179765000,2.905764892578125,3.2094836235046387,0.3619346618652344,1.3831281661987305
1701979932196743700,2.92274365234375,2.400360107421875,0.32649898529052734,0.43721771240234375
1701979932213738200,2.93973828125,2.6032581329345703,-0.32138824462890625,0.6739516258239746
1701979932230738200,2.95673828125,4.030040264129639,-0.19494056701660156,0.9249215126037598
1701979932247724300,2.973724365234375,4.821539878845215,-0.28370094299316406,0.9033722877502441
1701979932264723000,2.990722900390625,5.555955410003662,-0.13001585006713867,-0.31223630905151367
1701979932281710000,3.0077099609375,5.955018043518066,-0.4363131523132324,-1.1508355140686035
1701979932298700300,3.0247001953125,5.822665214538574,-0.8188166618347168,-0.7085742950439453
1701979932315694000,3.041694091796875,5.304368019104004,-0.689277172088623,0.16009044647216797
1701979932332683500,3.05868359375,4.441916465759277,-0.41527700424194336,1.3561630249023438
1701979932349663500,3.07566357421875,4.004284381866455,0.12852144241333008,2.253546714782715
1701979932366666800,3.092666748046875,3.7342755794525146,0.09759235382080078,2.1684722900390625
1701979932383665700,3.109665771484375,3.987328290939331,-0.5259890556335449,1.5764703750610352
1701979932400650000,3.12664990234375,4.824601173400879,-1.0242266654968262,0.7780075073242188
1701979932417640700,3.143640625,4.761989593505859,-1.3008999824523926,0.4161348342895508
1701979932434632200,3.160632080078125,3.3444955348968506,-1.489086627960205,0.315399169921875
1701979932451623200,3.177623046875,1.9511303901672363,-1.34454345703125,-0.30493831634521484
1701979932468604200,3.194604248046875,1.4686925411224365,-1.5391640663146973,-1.1425938606262207
1701979932485605000,3.211605224609375,1.9314038753509521,-1.9497714042663574,-1.8139185905456543
1701979932502597000,3.22859716796875,3.0335772037506104,-2.0816004276275635,-2.168323516845703
1701979932519574800,3.24557470703125,3.4800169467926025,-1.9490621089935303,-1.8231091499328613
1701979932536571400,3.2625712890625,2.905839204788208,-2.2329936027526855,-0.6623439788818359
1701979932553559800,3.279559814453125,1.9950528144836426,-3.0536417961120605,0.24479961395263672
1701979932570561800,3.296561767578125,1.7399505376815796,-3.1615705490112305,-0.5200576782226562
1701979932587552800,3.313552734375,2.1850476264953613,-3.094000816345215,-1.3675298690795898
1701979932604544300,3.330544189453125,2.8265891075134277,-2.9403154850006104,-1.5127735137939453
1701979932621535000,3.347534912109375,2.9234676361083984,-3.2259397506713867,-0.9243764877319336
1701979932638526700,3.364526611328125,2.5511515140533447,-4.051255226135254,0.0029764175415039062
1701979932655517200,3.38151708984375,2.527406692504883,-4.430952072143555,-0.02796459197998047
1701979932672509200,3.39850927734375,2.3315320014953613,-4.221790313720703,-0.6024179458618164
1701979932689500700,3.415500732421875,1.8388274908065796,-4.56549072265625,-0.4474983215332031
1701979932706490400,3.432490478515625,1.2653381824493408,-4.888878345489502,-0.29123783111572266
1701979932723482000,3.449482177734375,0.7540985941886902,-5.461309432983398,-0.3250007629394531
1701979932740473600,3.4664736328125,0.32763996720314026,-5.574999809265137,-0.7219715118408203
1701979932757464300,3.48346435546875,0.21999818086624146,-5.7439866065979,-0.4149322509765625
1701979932774456000,3.5004560546875,-0.24564889073371887,-6.2954816818237305,0.7100925445556641
1701979932791447000,3.517447021484375,-1.334715485572815,-6.442948341369629,1.4957170486450195
1701979932808438800,3.534438720703125,-1.5771191120147705,-6.254067420959473,0.4242525100708008
1701979932825416700,3.551416748046875,-1.5480293035507202,-5.676909446716309,-0.6303014755249023
1701979932842411500,3.56841162109375,-0.8967099189758301,-5.311862945556641,-0.07834911346435547
1701979932859404000,3.585404052734375,-1.0217194557189941,-6.10420036315918,2.2801151275634766
1701979932876394200,3.602394287109375,-1.7855569124221802,-6.78082275390625,4.35402774810791
1701979932893384200,3.61938427734375,-1.474596381187439,-6.039794445037842,4.916138648986816
1701979932910375200,3.636375244140625,-1.1058199405670166,-5.54371976852417,3.9797182083129883
1701979932927367400,3.653367431640625,-0.24023234844207764,-5.2433881759643555,2.4674034118652344
1701979932944361000,3.67036083984375,0.3616107702255249,-5.568265914916992,2.08402156829834
1701979932961351200,3.68735107421875,0.1037786602973938,-6.4430718421936035,2.7790279388427734
1701979932978340000,3.704340087890625,-0.3230513036251068,-7.307164669036865,2.771282196044922
1701979932995331600,3.72133154296875,-0.7404650449752808,-8.146944046020508,1.6888856887817383
1701979933012328200,3.738328125,-0.08852779865264893,-7.9694318771362305,-0.2563362121582031
1701979933029316600,3.755316650390625,1.1911298036575317,-6.976433753967285,-1.3762645721435547
1701979933046305500,3.772305419921875,1.8474265336990356,-6.541806221008301,-0.1955718994140625
1701979933063299300,3.78929931640625,1.6694533824920654,-6.662728786468506,1.2337474822998047
1701979933080289800,3.806289794921875,1.3277134895324707,-7.003818035125732,1.633962631225586
1701979933097280000,3.823280029296875,1.2666568756103516,-7.014899730682373,0.9636430740356445
1701979933114270000,3.84027001953125,0.9370155930519104,-6.422362804412842,0.2463550567626953
1701979933131270400,3.8572705078125,0.27840864658355713,-5.789050579071045,-0.32958316802978516
1701979933148265200,3.87426513671875,0.03986477851867676,-5.163829326629639,-0.580540657043457
1701979933165250800,3.891250732421875,0.056755006313323975,-4.739223003387451,-0.04627227783203125
1701979933182247700,3.90824755859375,0.10157036781311035,-4.691850662231445,0.3734703063964844
1701979933199235600,3.925235595703125,0.38718581199645996,-4.539794445037842,0.47751426696777344
1701979933216227300,3.942227294921875,0.8397021293640137,-3.883793354034424,0.09347915649414062
1701979933233218000,3.959218017578125,0.9464529752731323,-3.159522771835327,-0.22764301300048828
1701979933250209500,3.97620947265625,0.6621898412704468,-2.6572113037109375,-0.36876678466796875
1701979933267200500,3.993200439453125,0.49246764183044434,-2.3343069553375244,-0.09945487976074219
1701979933284192300,4.010192138671875,0.6582853198051453,-1.9144575595855713,0.2157611846923828
1701979933301183000,4.027182861328125,0.6734955906867981,-1.4095704555511475,0.6011133193969727
1701979933318175000,4.044175048828125,0.566789448261261,-1.0384163856506348,0.5264663696289062
1701979933335157500,4.061157470703125,0.6050394177436829,-0.8120369911193848,-0.12809276580810547
1701979933352157000,4.078156982421875,1.0989630222320557,-0.4284343719482422,-0.8380317687988281
1701979933369147600,4.095147705078125,1.9209322929382324,-0.053714752197265625,-1.2207832336425781
1701979933386139600,4.1121396484375,2.603978157043457,0.027716636657714844,-0.7153711318969727
1701979933403130000,4.129130126953125,2.614556312561035,0.1413402557373047,0.2501802444458008
1701979933420113000,4.14611279296875,2.596581220626831,0.5143775939941406,0.7361698150634766
1701979933437108700,4.163108642578125,2.6753997802734375,0.603978157043457,0.5227518081665039
1701979933454108200,4.180108154296875,3.0252444744110107,0.6654520034790039,-0.10138511657714844
1701979933471095000,4.197094970703125,3.412973403930664,0.5879230499267578,-0.4571199417114258
1701979933488086500,4.21408642578125,3.369079113006592,0.7578272819519043,-0.7391643524169922
1701979933505077200,4.2310771484375,3.1041269302368164,1.1196293830871582,-0.5923027992248535
1701979933522069200,4.2480693359375,2.6967477798461914,1.302412986755371,0.004985809326171875
1701979933539054800,4.265054931640625,2.7394819259643555,1.4204373359680176,0.4550137519836426
1701979933556051500,4.282051513671875,3.3193445205688477,1.514756202697754,0.3172035217285156
1701979933573042000,4.2990419921875,4.00006628036499,1.7582402229309082,-0.19283533096313477
1701979933590027500,4.316027587890625,4.3426194190979,2.0478949546813965,-0.6406197547912598
1701979933607024400,4.3330244140625,4.167889595031738,1.7418851852416992,-0.3604598045349121
1701979933624015000,4.35001513671875,3.814284324645996,1.907623291015625,0.08402681350708008
1701979933641008600,4.367008544921875,3.7256627082824707,2.351917266845703,0.5403127670288086
1701979933657998800,4.383998779296875,3.7941195964813232,2.6240508556365967,0.7342591285705566
1701979933674997200,4.400997314453125,4.003904342651367,3.070297956466675,0.2982196807861328
1701979933691978800,4.417978759765625,4.251865386962891,2.8851563930511475,0.07536888122558594
1701979933708974600,4.434974609375,4.1807475090026855,2.488131046295166,-0.03552722930908203
1701979933725963500,4.451963623046875,3.896653175354004,2.377720355987549,-0.015001773834228516
1701979933742954200,4.468954345703125,3.545804023742676,2.4604554176330566,0.1658010482788086
1701979933759957800,4.485957763671875,3.3893706798553467,2.417433261871338,0.6125364303588867
1701979933776936700,4.502936767578125,3.196187734603882,2.256425380706787,1.0735468864440918
1701979933793917700,4.519917724609375,3.038074016571045,1.8008975982666016,1.5079216957092285
1701979933810916400,4.536916259765625,2.9810304641723633,1.6221885681152344,1.5785346031188965
1701979933827913500,4.55391357421875,2.6962406635284424,1.3094568252563477,2.0272865295410156
1701979933844901600,4.570901611328125,1.8288147449493408,0.9318146705627441,2.785707950592041
1701979933861893400,4.587893310546875,0.9330134391784668,0.6874260902404785,3.415797710418701
1701979933878883800,4.6048837890625,0.7394218444824219,0.37262392044067383,3.4554290771484375
1701979933895867400,4.621867431640625,0.8393476009368896,0.16210508346557617,2.755500316619873
1701979933912866300,4.6388662109375,1.0401420593261719,0.477935791015625,2.121960163116455
1701979933929858000,4.655858154296875,0.24941205978393555,0.39733362197875977,2.4695067405700684
1701979933946848800,4.672848876953125,-0.6591427326202393,0.026474475860595703,2.5952305793762207
1701979933963840500,4.689840576171875,-0.6381793022155762,-0.17447853088378906,2.200321674346924
1701979933980831200,4.706831298828125,0.7187204360961914,0.26753664016723633,1.699568748474121
1701979933997822700,4.72382275390625,2.1247494220733643,0.6333966255187988,1.819230079650879
1701979934014813400,4.7408134765625,3.2255287170410156,1.1946344375610352,1.5348029136657715
1701979934031805000,4.757804931640625,3.1371452808380127,1.5294103622436523,1.7606749534606934
1701979934048785400,4.774785400390625,1.7262566089630127,1.7743091583251953,2.165220260620117
1701979934065787600,4.79178759765625,-0.2312455177307129,1.6338157653808594,3.1231813430786133
1701979934082778400,4.8087783203125,-0.9582505226135254,2.0902791023254395,3.7229256629943848
1701979934099769900,4.825769775390625,-0.8315310478210449,2.442111015319824,3.8086509704589844
1701979934116750300,4.842750244140625,-0.06595516204833984,2.529261589050293,3.52927827835083
1701979934133739800,4.85973974609375,0.7946741580963135,2.499856472015381,3.413605213165283
1701979934150741800,4.87674169921875,1.4031143188476562,2.437673568725586,3.248441219329834
1701979934167733800,4.893733642578125,2.107632875442505,2.469346046447754,3.3239054679870605
1701979934184725800,4.910725830078125,2.4261550903320312,2.2227039337158203,4.003657817840576
1701979934201717200,4.92771728515625,2.6797447204589844,2.074336528778076,4.8161420822143555
1701979934218705200,4.944705078125,2.3481407165527344,2.0944714546203613,5.008260726928711
1701979934235702300,4.961702392578125,1.988393783569336,2.3262624740600586,4.368097305297852
1701979934252690400,4.9786904296875,1.897623062133789,2.645447254180908,3.27939510345459
1701979934269679400,4.995679443359375,1.9467682838439941,2.725724220275879,2.4212026596069336
1701979934286675200,5.01267529296875,2.5900354385375977,2.3503780364990234,2.402146339416504
1701979934303664600,5.02966455078125,3.3875019550323486,1.997603416442871,3.022603988647461
1701979934320655400,5.0466552734375,4.135414123535156,2.003264904022217,3.5231833457946777
1701979934337646000,5.06364599609375,4.876344680786133,1.7927274703979492,3.591808795928955
1701979934354627800,5.0806279296875,5.5662922859191895,1.713477611541748,2.8458776473999023
1701979934371629300,5.09762939453125,5.800409317016602,1.2238149642944336,2.028529644012451
1701979934388617200,5.1146171875,5.530076503753662,0.905052661895752,1.28924560546875
1701979934405612000,5.131612060546875,4.976927757263184,0.8442153930664062,1.1406688690185547
1701979934422606800,5.14860693359375,4.271851062774658,0.9449014663696289,1.2512011528015137
1701979934439592200,5.16559228515625,3.765376567840576,0.9888114929199219,1.3061294555664062
1701979934456585000,5.1825849609375,3.590334415435791,0.7727932929992676,1.035435676574707
1701979934473566000,5.19956591796875,3.8293604850769043,0.44535398483276367,0.6613321304321289
1701979934490567400,5.2165673828125,4.552570819854736,0.28171730041503906,0.5644035339355469
1701979934507559200,5.23355908203125,4.94575309753418,0.17459583282470703,0.6485939025878906
1701979934524549600,5.250549560546875,4.406783103942871,0.01709270477294922,0.9027395248413086
1701979934541534500,5.267534423828125,3.4101359844207764,-0.11601018905639648,0.9362983703613281
1701979934558532400,5.284532470703125,2.7625961303710938,-0.4362192153930664,0.40318775177001953
1701979934575523800,5.30152392578125,2.938556671142578,-0.9595026969909668,-0.052887916564941406
1701979934592514600,5.3185146484375,3.683650255203247,-1.1212096214294434,-0.40706920623779297
1701979934609505500,5.335505615234375,3.75736665725708,-1.2132158279418945,-0.44272327423095703
1701979934626497800,5.352497802734375,2.9743027687072754,-1.3044686317443848,-0.1306009292602539
1701979934643488500,5.369488525390625,2.138913154602051,-1.345447063446045,-0.04677867889404297
1701979934660479200,5.386479248046875,1.8104822635650635,-1.5153920650482178,-0.5549793243408203
1701979934677460500,5.40346044921875,2.1757988929748535,-1.8282661437988281,-1.1071052551269531
1701979934694462000,5.4204619140625,2.984734535217285,-2.0839006900787354,-1.273172378540039
1701979934711453700,5.43745361328125,3.1902194023132324,-2.31801700592041,-1.2292814254760742
1701979934728444200,5.454444091796875,2.794239044189453,-2.3895184993743896,-0.8884048461914062
1701979934745436200,5.471436279296875,2.1738152503967285,-2.3254504203796387,-0.7556438446044922
1701979934762426600,5.488426513671875,1.853885531425476,-2.5110301971435547,-0.9869623184204102
1701979934779408400,5.505408447265625,1.8998523950576782,-2.7450361251831055,-1.200357437133789
1701979934796408800,5.522408935546875,2.1197690963745117,-2.875957489013672,-1.2580976486206055
1701979934813400800,5.53940087890625,2.1524014472961426,-2.9965968132019043,-1.2145872116088867
1701979934830391600,5.5563916015625,1.8464462757110596,-3.16603422164917,-1.110992431640625
1701979934847383000,5.573383056640625,1.560188889503479,-3.3730945587158203,-1.0134553909301758
1701979934864374800,5.590374755859375,1.7954034805297852,-3.6061649322509766,-1.1086664199829102
1701979934881355000,5.60735498046875,2.1296374797821045,-3.7770235538482666,-1.2334356307983398
1701979934898356500,5.6243564453125,1.9700334072113037,-4.05288553237915,-0.5594015121459961
1701979934915348000,5.641347900390625,1.8155543804168701,-4.291399002075195,0.34894752502441406
1701979934932338700,5.658338623046875,1.3953070640563965,-4.469386577606201,0.6941537857055664
1701979934949328000,5.675327880859375,0.9434540271759033,-4.595750331878662,0.12661457061767578
1701979934966325000,5.692324951171875,0.45241788029670715,-4.711820125579834,-0.34552955627441406
1701979934983312600,5.709312744140625,0.25570911169052124,-4.674618244171143,-0.26959705352783203
1701979935000302800,5.726302734375,0.04991632699966431,-4.8886847496032715,0.25209522247314453
1701979935017293800,5.7432939453125,-0.015681058168411255,-5.316197395324707,0.8292169570922852
1701979935034286000,5.7602861328125,-0.34697622060775757,-5.476739406585693,1.1848316192626953
1701979935051277600,5.777277587890625,-0.6559604406356812,-5.595846652984619,1.3689889907836914
1701979935068264200,5.79426416015625,-1.124909520149231,-5.504194736480713,1.0351076126098633
1701979935085268200,5.811268310546875,-1.8093461990356445,-5.504316329956055,0.6851177215576172
1701979935102247400,5.828247314453125,-2.0865089893341064,-5.595859527587891,0.6451034545898438
1701979935119235800,5.84523583984375,-2.0487892627716064,-5.690634727478027,1.6920480728149414
1701979935136233500,5.8622333984375,-1.7351672649383545,-5.536111831665039,2.8017196655273438
1701979935153225200,5.87922509765625,-1.591094970703125,-5.432653427124023,3.8885154724121094
1701979935170215700,5.896215576171875,-1.9070570468902588,-5.187887191772461,3.809854507446289
1701979935187207400,5.91320751953125,-2.542221784591675,-5.177591323852539,3.4456052780151367
1701979935204198400,5.930198486328125,-3.236147880554199,-5.727788925170898,3.9266138076782227
1701979935221190100,5.947190185546875,-3.1223368644714355,-5.794612884521484,3.7078018188476562
1701979935238180600,5.9641806640625,-2.1999399662017822,-5.942608833312988,3.3573169708251953
1701979935255185200,5.98118505859375,-0.9463199377059937,-5.960179805755615,3.0253868103027344
1701979935272162300,5.998162353515625,0.3938469886779785,-6.324217796325684,2.8953723907470703
1701979935289154800,6.01515478515625,1.3776512145996094,-6.807762622833252,2.6968994140625
1701979935306145300,6.032145263671875,1.4455238580703735,-7.192161560058594,2.234437942504883
1701979935323137300,6.04913720703125,0.6256579756736755,-7.186547756195068,1.2269468307495117
1701979935340128000,6.0661279296875,-0.3351120948791504,-7.040469169616699,-0.0995187759399414
1701979935357119500,6.083119384765625,-0.6880087852478027,-6.720788955688477,-0.8573732376098633
1701979935374110500,6.1001103515625,-0.3752879202365875,-6.148322105407715,-1.075932502746582
1701979935391105000,6.11710498046875,-0.11331766843795776,-5.7361345291137695,-0.5381622314453125
1701979935408095200,6.13409521484375,-0.02034902572631836,-5.644678592681885,0.17241191864013672
1701979935425084400,6.15108447265625,0.03684091567993164,-5.67448091506958,0.29683780670166016
1701979935442075100,6.1680751953125,0.35127460956573486,-5.575773239135742,-0.08426666259765625
1701979935459067000,6.18506689453125,0.9797999858856201,-4.903915882110596,-0.5185270309448242
1701979935476057600,6.2020576171875,0.7895474433898926,-4.064298152923584,-0.9130611419677734
1701979935493049300,6.21904931640625,-0.07469642162322998,-3.6259117126464844,-0.9607114791870117
1701979935510040000,6.2360400390625,-0.4559251666069031,-3.331432580947876,-1.052952766418457
1701979935527031600,6.253031494140625,0.1258465051651001,-3.2798280715942383,-1.0274429321289062
1701979935544022500,6.2700224609375,0.8792898654937744,-3.259847402572632,-0.9345321655273438
1701979935561014000,6.287013916015625,1.3905808925628662,-2.9961752891540527,-0.9178571701049805
1701979935578004700,6.304004638671875,1.9415888786315918,-2.3475403785705566,-0.8021888732910156
1701979935594993000,6.320992919921875,2.185894727706909,-1.4923222064971924,-0.8730096817016602
1701979935611986200,6.337986083984375,2.7410361766815186,-0.9305553436279297,-1.4632353782653809
1701979935628973800,6.354973876953125,3.2505838871002197,-0.8547718524932861,-2.0312604904174805
1701979935645957000,6.37195703125,3.4528772830963135,-0.7159144878387451,-2.2738771438598633
1701979935662954000,6.3889541015625,3.450852632522583,-0.17342591285705566,-2.163057327270508
1701979935679954700,6.40595458984375,3.3005759716033936,0.38462233543395996,-1.8155450820922852
1701979935696932000,6.42293212890625,3.0736289024353027,0.7453136444091797,-0.8192224502563477
1701979935713923600,6.439923583984375,3.0280590057373047,1.2583858966827393,-0.45906829833984375
1701979935730918100,6.456918212890625,3.2343497276306152,1.3911619186401367,-0.7675714492797852
1701979935747910400,6.473910400390625,3.5643060207366943,1.2835440635681152,-1.1259393692016602
1701979935764902400,6.49090234375,4.178591728210449,1.462343692779541,-1.257582664489746
1701979935781899500,6.5078994140625,4.679760932922363,1.6938610076904297,-0.7695465087890625
1701979935798891300,6.524891357421875,4.594248294830322,1.9106709957122803,0.1186075210571289
1701979935815882000,6.541882080078125,4.586029052734375,1.9536423683166504,0.8833088874816895
1701979935832873500,6.55887353515625,4.64777946472168,1.6630501747131348,1.1511664390563965
1701979935849864200,6.5758642578125,4.743768692016602,1.9782021045684814,0.7296714782714844
1701979935866856200,6.592856201171875,4.833076477050781,2.2795939445495605,0.6758275032043457
1701979935883847000,6.609846923828125,4.522719383239746,2.645369291305542,0.6303563117980957
1701979935900838400,6.62683837890625,3.833061933517456,2.794379949569702,1.246023178100586
1701979935917819000,6.64381884765625,3.0832173824310303,2.0748305320739746,2.3179049491882324
1701979935934820900,6.66082080078125,2.9323477745056152,2.279890537261963,2.0005369186401367
1701979935951811800,6.677811767578125,3.4570226669311523,2.219529151916504,1.863450050354004
1701979935968803600,6.694803466796875,3.8806447982788086,2.2017011642456055,1.5646724700927734
1701979935985794000,6.7117939453125,4.230988025665283,2.0618739128112793,1.3546185493469238
1701979936002785500,6.72878564453125,3.953805923461914,1.4609375,1.5771265029907227
1701979936019766000,6.74576611328125,3.477078437805176,1.010744571685791,1.6677956581115723
1701979936036767200,6.762767333984375,2.494669198989868,1.2523112297058105,1.5717506408691406
1701979936053754600,6.779754638671875,1.9767379760742188,1.3483738899230957,1.9545364379882812
1701979936070749700,6.796749755859375,2.3512847423553467,1.5521883964538574,2.742398262023926
1701979936087742000,6.813741943359375,2.727504253387451,1.5334229469299316,4.05742073059082
1701979936104718600,6.830718505859375,2.2324984073638916,1.6512179374694824,4.241503715515137
1701979936121724000,6.847723876953125,1.6010748147964478,1.5025105476379395,3.0792746543884277
1701979936138716000,6.8647158203125,2.0910961627960205,1.4020590782165527,1.893883228302002
1701979936155706000,6.8817060546875,3.6649293899536133,1.6714129447937012,1.7340922355651855
1701979936172698000,6.898697998046875,4.144597053527832,1.5043768882751465,3.0595784187316895
1701979936189686000,6.91568603515625,2.686851739883423,1.2558693885803223,4.4127421379089355
1701979936206680300,6.932680419921875,0.9647071361541748,1.540503978729248,3.9868416786193848
1701979936223673600,6.949673583984375,-1.3298242092132568,1.6441640853881836,1.812239646911621
1701979936240671000,6.9666708984375,-2.59246563911438,1.728144645690918,-0.21030759811401367
1701979936257653500,6.983653564453125,-2.3429203033447266,1.7904186248779297,-0.8010668754577637
1701979936274645200,7.000645263671875,-0.9277138710021973,1.5659871101379395,0.49944210052490234
1701979936291636200,7.01763623046875,0.21120810508728027,1.581556797027588,2.6322731971740723
1701979936308627700,7.034627685546875,0.8379449844360352,1.859452247619629,3.8188681602478027
1701979936325610000,7.05160986328125,0.653533935546875,1.9254412651062012,3.4163565635681152
1701979936342603000,7.06860302734375,-0.45369410514831543,1.7857680320739746,2.3854641914367676
1701979936359590700,7.085590576171875,-1.3685426712036133,1.6290202140808105,1.711169719696045
1701979936376584200,7.102584228515625,-1.44166898727417,1.6531338691711426,1.691443920135498
1701979936393573600,7.11957373046875,-0.9726552963256836,1.7085528373718262,2.5552568435668945
1701979936410566400,7.13656640625,-0.13558387756347656,1.3631186485290527,3.8828110694885254
1701979936427558100,7.15355810546875,0.9284622669219971,1.3153047561645508,4.225826740264893
1701979936444549600,7.170549560546875,1.704525351524353,1.635263442993164,3.701569080352783
1701979936461544400,7.18754443359375,1.7572758197784424,1.9000587463378906,2.8125743865966797
1701979936478532900,7.204532958984375,1.2916566133499146,1.8987112045288086,2.438985824584961
1701979936495520500,7.2215205078125,1.3925178050994873,1.7582478523254395,2.571774482727051
1701979936512511700,7.23851171875,2.2525556087493896,1.5056262016296387,2.7178916931152344
1701979936529505800,7.255505859375,3.7749581336975098,1.6309967041015625,2.6210975646972656
1701979936546499600,7.27249951171875,5.094590187072754,1.5398316383361816,2.656210422515869
1701979936563488300,7.28948828125,6.02547550201416,1.3187260627746582,2.513441562652588
1701979936580478500,7.306478515625,6.024964809417725,0.9130468368530273,2.3333349227905273
1701979936597469000,7.323468994140625,4.8807830810546875,0.744499683380127,1.9349169731140137
1701979936614471700,7.3404716796875,3.8975024223327637,0.7111001014709473,1.0097455978393555
1701979936631456800,7.357456787109375,3.308621883392334,0.7997012138366699,0.31092071533203125
1701979936648452000,7.3744521484375,2.7787628173828125,0.8485188484191895,0.353057861328125
1701979936665442800,7.39144287109375,2.6930065155029297,1.0075254440307617,0.09496068954467773
1701979936682434600,7.4084345703125,2.8256101608276367,1.1626472473144531,-0.17682409286499023
1701979936699425300,7.42542529296875,2.2887868881225586,0.9966325759887695,-0.4188709259033203
1701979936716417000,7.4424169921875,2.3716537952423096,1.0509257316589355,-0.9854307174682617
1701979936733407500,7.459407470703125,3.4398066997528076,1.0256881713867188,-1.1500186920166016
1701979936750399200,7.476399169921875,4.6860880851745605,0.8904087543487549,-1.0253658294677734
1701979936767390200,7.49339013671875,4.917110919952393,0.700502872467041,-0.9200143814086914
1701979936784382000,7.5103818359375,4.574038505554199,0.41136789321899414,-0.7771444320678711
1701979936801372700,7.52737255859375,3.862959384918213,0.026140689849853516,-0.6652288436889648
1701979936818364000,7.544364013671875,3.041489362716675,-0.17299509048461914,-0.5336971282958984
1701979936835355000,7.56135498046875,2.3899378776550293,-0.38292360305786133,-0.37543773651123047
1701979936852346600,7.5783466796875,2.261396884918213,-0.363614559173584,-0.4703636169433594
1701979936869334800,7.595334716796875,2.079430103302002,-0.6667299270629883,-0.7316722869873047
1701979936886321200,7.612321044921875,1.886188268661499,-1.171804666519165,-1.0750341415405273
1701979936903320000,7.629320068359375,1.7891361713409424,-1.4711816310882568,-1.4349236488342285
1701979936920311600,7.6463115234375,1.7824687957763672,-1.5441226959228516,-1.6647658348083496
1701979936937302500,7.663302490234375,1.6733057498931885,-1.6190950870513916,-1.4179248809814453
1701979936954294000,7.6802939453125,0.8765171766281128,-1.7266416549682617,-1.1033973693847656
1701979936971284700,7.69728466796875,0.3771147131919861,-1.8844225406646729,-1.139535903930664
1701979936988276200,7.714276123046875,0.34725141525268555,-1.9076640605926514,-1.5981841087341309
1701979937005267200,7.73126708984375,0.805801272392273,-2.1686973571777344,-1.9275178909301758
1701979937022265600,7.748265625,1.617614984512329,-2.6032586097717285,-1.9030241966247559
1701979937039248600,7.76524853515625,1.8336817026138306,-2.975238800048828,-1.8330836296081543
1701979937056241400,7.782241455078125,1.7468268871307373,-3.3608691692352295,-1.3767738342285156
1701979937073232100,7.799232177734375,1.5187069177627563,-3.5128300189971924,-0.9300117492675781
1701979937090223900,7.816223876953125,1.303955316543579,-3.458040714263916,-0.8299779891967773
1701979937107214600,7.833214599609375,1.3203164339065552,-3.8092143535614014,-0.7843236923217773
1701979937124206000,7.8502060546875,1.0913043022155762,-4.322449684143066,-0.647150993347168
1701979937141196800,7.86719677734375,0.8851726055145264,-4.406764507293701,-0.40839481353759766
1701979937158188500,7.8841884765625,0.1443943977355957,-4.295761585235596,-0.33403968811035156
1701979937175168800,7.901168701171875,-0.2620008587837219,-4.57962703704834,-0.0809164047241211
1701979937192168700,7.918168701171875,-0.2296033650636673,-5.004909515380859,0.530242919921875
1701979937209153800,7.93515380859375,-0.12895801663398743,-5.443261623382568,0.44240283966064453
1701979937226153500,7.952153564453125,-0.1468476802110672,-5.689047336578369,-0.2763671875
1701979937243133700,7.9691337890625,-0.541465163230896,-5.875584125518799,-0.4504528045654297
1701979937260134700,7.986134765625,-1.1220133304595947,-5.798068046569824,-0.4599285125732422
1701979937277128000,8.0031279296875,-1.5345654487609863,-5.699888706207275,0.3589029312133789
1701979937294118400,8.020118408203125,-1.5422102212905884,-5.179123878479004,1.473714828491211
1701979937311099000,8.037098876953126,-1.2567710876464844,-4.930641174316406,1.7586994171142578
1701979937328100900,8.054100830078125,-0.8380406498908997,-4.96036958694458,1.3928117752075195
1701979937345089000,8.071089111328124,-0.4902547299861908,-4.923142433166504,0.9609212875366211
1701979937362086000,8.0880859375,-0.4708227515220642,-4.966724395751953,1.9687108993530273
1701979937379071700,8.10507177734375,-1.1401487588882446,-4.799464225769043,4.529309272766113
1701979937396065800,8.122065673828125,-1.90357506275177,-4.351374626159668,5.938985824584961
1701979937413056500,8.139056396484374,-2.623582124710083,-3.9629464149475098,4.749869346618652
1701979937430048300,8.15604833984375,-2.6957380771636963,-4.031707763671875,2.9258861541748047
1701979937447038700,8.173038818359375,-2.042630195617676,-4.491191864013672,1.6283092498779297
1701979937464028200,8.190028076171876,-0.650343120098114,-5.045206069946289,1.6058788299560547
1701979937481021400,8.207021484375,0.42745211720466614,-5.456722259521484,2.0721492767333984
1701979937498014500,8.224014404296875,0.6147432327270508,-5.2281670570373535,2.8499860763549805
1701979937514998300,8.240998291015625,-0.1830371618270874,-5.22243595123291,2.9281911849975586
1701979937531995400,8.257995361328126,-0.8453338742256165,-5.107366561889648,1.9230575561523438
1701979937548986400,8.274986328125,-1.0569034814834595,-5.169301509857178,1.016871452331543
1701979937565978000,8.29197802734375,-0.4184814989566803,-5.275181770324707,0.4394674301147461
1701979937582968600,8.308968505859376,0.4746516942977905,-5.3461127281188965,0.4727182388305664
1701979937599960300,8.325960205078125,0.7285663485527039,-5.440950870513916,0.7671823501586914
1701979937616951800,8.342951904296875,0.4867843985557556,-5.525115013122559,0.6575937271118164
1701979937633934300,8.359934326171874,0.3125593066215515,-5.354353904724121,-0.3098163604736328
1701979937650933800,8.376933837890626,0.311076819896698,-5.097962379455566,-1.2997970581054688
1701979937667925000,8.393925048828125,0.572170615196228,-4.788647651672363,-1.6435394287109375
1701979937684916200,8.410916259765624,0.9425726532936096,-4.440304756164551,-1.4489192962646484
1701979937701907700,8.42790771484375,0.565566897392273,-4.175461769104004,-0.7690277099609375
1701979937718898400,8.4448984375,-0.2930712103843689,-3.7251529693603516,-0.3484172821044922
1701979937735890200,8.46189013671875,-0.5420281887054443,-3.233764171600342,-0.3312511444091797
1701979937752875300,8.478875244140625,-0.12750381231307983,-2.734642267227173,-1.1955127716064453
1701979937769874700,8.495874755859376,0.39249706268310547,-2.4429335594177246,-2.141892910003662
1701979937786863000,8.512863037109375,0.7594249844551086,-2.456327438354492,-2.474395275115967
1701979937803855000,8.529855224609374,1.225644826889038,-2.1237175464630127,-2.2918663024902344
1701979937820846000,8.54684619140625,1.4045383930206299,-1.7374324798583984,-1.8536086082458496
1701979937837837600,8.563837646484375,1.3460931777954102,-1.1490271091461182,-1.2302608489990234
1701979937854828300,8.580828369140624,1.3493449687957764,-0.6643679141998291,-1.3347797393798828
1701979937871820000,8.597820068359376,1.4053831100463867,-0.21910691261291504,-2.1523475646972656
1701979937888810500,8.614810546875,1.2331618070602417,0.03261303901672363,-2.5570454597473145
1701979937905802200,8.63180224609375,1.0855283737182617,0.17543721199035645,-2.1928906440734863
1701979937922789000,8.6487890625,0.9212275743484497,0.52626633644104,-1.0834131240844727
1701979937939785000,8.665784912109375,0.9160022139549255,1.0054757595062256,-0.41934871673583984
1701979937956773600,8.682773681640626,1.3468217849731445,1.1956770420074463,-0.7520160675048828
1701979937973756200,8.699756103515625,2.1096205711364746,1.1904525756835938,-1.4074759483337402
1701979937990758100,8.716758056640625,2.9171340465545654,1.3044767379760742,-1.825232982635498
1701979938007752200,8.733752197265625,3.240743637084961,1.459909200668335,-1.6997041702270508
1701979938024740400,8.750740234375,3.067474365234375,1.545677900314331,-1.1276297569274902
1701979938041732000,8.767732177734375,2.5143165588378906,1.6314764022827148,-0.20579147338867188
1701979938058722800,8.784722900390625,2.574186086654663,1.8679966926574707,0.1028909683227539
1701979938075714800,8.80171484375,2.945700168609619,1.9000403881072998,0.12144184112548828
1701979938092705500,8.81870556640625,3.4659159183502197,1.9777882099151611,0.21479415893554688
1701979938109694700,8.83569482421875,3.8305158615112305,1.9478073120117188,0.3150444030761719
1701979938126690300,8.852690185546875,3.6872291564941406,2.0441434383392334,0.5627574920654297
1701979938143679700,8.8696796875,2.986301898956299,2.245258331298828,0.7328386306762695
1701979938160670200,8.886670166015625,2.243772029876709,2.111997604370117,0.8659472465515137
1701979938177662200,8.903662109375,2.207531690597534,1.5444140434265137,0.90374755859375
1701979938194653000,8.92065283203125,2.713689088821411,1.1939234733581543,0.49584197998046875
1701979938211644400,8.93764453125,3.150538921356201,1.198448657989502,-0.06159067153930664
1701979938228637700,8.9546376953125,3.24039363861084,1.4060354232788086,-0.22487783432006836
1701979938245629200,8.971629150390624,2.6851277351379395,1.3954048156738281,0.15287017822265625
1701979938262615600,8.988615478515625,1.9985592365264893,1.272867202758789,0.6447629928588867
1701979938279607000,9.00560693359375,1.5696477890014648,0.860079288482666,0.9892911911010742
1701979938296602600,9.0226025390625,1.7331771850585938,0.5340695381164551,1.4688849449157715
1701979938313580000,9.039580078125,2.0364298820495605,0.6973996162414551,1.8665642738342285
1701979938330589200,9.056589111328124,2.1808605194091797,0.8785557746887207,2.540402889251709
1701979938347574300,9.07357421875,2.3539879322052,0.8291616439819336,3.265801429748535
1701979938364565000,9.09056494140625,2.363327741622925,0.6059112548828125,4.0029168128967285
1701979938381546200,9.107546142578125,2.0732243061065674,0.39973878860473633,4.818458080291748
1701979938398529000,9.124529052734376,1.6527329683303833,0.48447751998901367,5.211765289306641
1701979938415541800,9.141541748046874,0.9772640466690063,1.1044373512268066,4.622889995574951
1701979938432530000,9.158530029296875,0.8904752731323242,1.822859764099121,3.9828691482543945
1701979938449517300,9.175517333984375,1.0840510129928589,2.1297054290771484,3.963174819946289
1701979938466516700,9.192516845703125,1.9256911277770996,1.7673139572143555,4.741587162017822
1701979938483504400,9.20950439453125,2.327974557876587,1.1727752685546875,5.272926330566406
1701979938500494800,9.226494873046875,2.545569658279419,0.9964761734008789,4.063069820404053
1701979938517486600,9.243486572265626,2.194486379623413,1.2394599914550781,1.7051992416381836
1701979938534477300,9.260477294921875,2.2934417724609375,1.3294291496276855,-0.0710606575012207
1701979938551458600,9.27745849609375,2.7054946422576904,1.5558013916015625,0.04825115203857422
1701979938568459500,9.29445947265625,2.3568482398986816,1.649869441986084,1.484433650970459
1701979938585451800,9.31145166015625,1.1998982429504395,1.704096794128418,3.101468563079834
1701979938602442000,9.32844189453125,-0.3658411502838135,1.8005867004394531,3.378674030303955
1701979938619431700,9.345431640625,-1.819793462753296,2.341492176055908,2.322596549987793
1701979938636421400,9.36242138671875,-2.628413438796997,2.263949394226074,1.6366581916809082
1701979938653419800,9.379419677734376,-2.1490750312805176,1.9095335006713867,1.3329086303710938
1701979938670407200,9.3964072265625,-0.4245622158050537,1.866429328918457,1.3437609672546387
1701979938687399000,9.41339892578125,1.1506332159042358,1.5287284851074219,2.241731643676758
1701979938704385800,9.4303857421875,1.8915657997131348,1.335042953491211,3.317470073699951
1701979938721381400,9.44738134765625,2.4506239891052246,1.6288776397705078,3.289980888366699
1701979938738372000,9.4643720703125,2.4149725437164307,1.8387274742126465,2.8171801567077637
1701979938755363800,9.48136376953125,2.12373423576355,1.7577714920043945,2.4507527351379395
1701979938772354300,9.498354248046875,1.702226161956787,1.7581276893615723,2.220250129699707
1701979938789343500,9.515343505859375,1.4040133953094482,1.8792996406555176,2.1137499809265137
1701979938806339300,9.53233935546875,1.3114075660705566,1.8867945671081543,2.1723990440368652
1701979938823328500,9.54932861328125,1.8344333171844482,1.9524483680725098,1.9763364791870117
1701979938840309200,9.566309326171876,2.7306981086730957,1.9906392097473145,1.5231366157531738
1701979938857311200,9.583311279296876,3.353170871734619,1.9120268821716309,0.9399261474609375
1701979938874302000,9.600302001953125,3.404749870300293,1.5736770629882812,0.8638930320739746
1701979938891293700,9.617293701171874,3.0501515865325928,1.3998994827270508,0.7431387901306152
1701979938908284400,9.634284423828126,2.6198668479919434,1.4246444702148438,0.27659082412719727
1701979938925276000,9.65127587890625,2.1349706649780273,1.6390891075134277,-0.3118572235107422
1701979938942261000,9.668260986328125,1.949702262878418,1.6491029262542725,-0.7486729621887207
1701979938959258600,9.685258544921876,1.629791259765625,1.559762716293335,-0.9452319145202637
1701979938976249300,9.702249267578125,1.007625937461853,1.5312128067016602,-1.350937843322754
1701979938993240800,9.71924072265625,0.5638291835784912,1.4403560161590576,-1.6483068466186523
1701979939010221000,9.736220947265625,0.17718350887298584,1.2879457473754883,-1.9473438262939453
1701979939027214600,9.753214599609375,0.6834065318107605,1.4000144004821777,-1.8499212265014648
1701979939044214300,9.77021435546875,1.450121283531189,1.2925148010253906,-1.2544379234313965
1701979939061205800,9.787205810546874,2.193105459213257,1.0732991695404053,-0.7284250259399414
1701979939078196700,9.80419677734375,2.557671070098877,0.80499267578125,-0.4157228469848633
1701979939095177700,9.821177734375,2.2325124740600586,0.3526268005371094,-0.24546337127685547
1701979939112179000,9.838178955078124,1.3447743654251099,0.05496025085449219,-0.4707202911376953
1701979939129171000,9.8551708984375,0.39670154452323914,-0.008131265640258789,-0.7171268463134766
1701979939146158800,9.872158935546874,0.3136434257030487,0.08847522735595703,-0.7690773010253906
1701979939163144400,9.88914453125,0.8341492414474487,-0.03376936912536621,-0.6326885223388672
1701979939180146700,9.906146728515624,1.3385396003723145,-0.5294516086578369,-0.5679264068603516
1701979939197125000,9.923125,1.8341915607452393,-0.8978111743927002,-0.9985275268554688
1701979939214114000,9.940114013671876,2.3344244956970215,-0.890629768371582,-1.6269927024841309
1701979939231109400,9.957109375,2.5716185569763184,-0.8667762279510498,-1.9513568878173828
1701979939248100000,9.97410009765625,2.8293097019195557,-0.8712146282196045,-1.7488174438476562
1701979939265094000,9.991093994140625,3.038681745529175,-0.8513779640197754,-1.3631658554077148
1701979939282082300,10.008082275390626,3.3968193531036377,-0.9254467487335205,-0.6672153472900391
1701979939299076000,10.025076171875,3.1187026500701904,-0.9540128707885742,-0.3239774703979492
1701979939316067800,10.04206787109375,2.5584616661071777,-1.1588718891143799,-0.46248531341552734
1701979939333056500,10.059056396484374,1.9703505039215088,-1.611173391342163,-0.8516664505004883
1701979939350045200,10.076045166015625,1.9704684019088745,-1.9611256122589111,-1.1754436492919922
1701979939367040300,10.093040283203125,2.348501682281494,-2.3955941200256348,-0.8665285110473633
1701979939384040400,10.11004052734375,2.2958972454071045,-2.7477986812591553,-0.2891817092895508
1701979939401030400,10.127030517578126,1.9095386266708374,-3.3277907371520996,0.15001487731933594
1701979939418021400,10.144021484375,1.5953649282455444,-3.5937061309814453,-0.36495304107666016
1701979939435000800,10.161000732421876,1.0086301565170288,-3.9409117698669434,-1.0576696395874023
1701979939452000300,10.178000244140625,0.2947915196418762,-4.315896987915039,-1.3194427490234375
1701979939468987000,10.19498681640625,-0.3587697148323059,-4.742722511291504,-1.1280927658081055
1701979939485986000,10.211986083984375,-0.6499525308609009,-4.9904351234436035,-0.06212043762207031
1701979939502977500,10.2289775390625,-0.7390265464782715,-5.464097023010254,0.8410816192626953
1701979939519968800,10.24596875,-0.32195404171943665,-5.5660014152526855,0.3853616714477539
1701979939536960300,10.262960205078125,-0.16226907074451447,-5.789642810821533,-0.14395523071289062
1701979939553940500,10.2799404296875,-0.5322896838188171,-5.8646955490112305,-0.33351802825927734
1701979939570942700,10.296942626953125,-1.1309468746185303,-5.99791145324707,0.8011903762817383
1701979939587933200,10.31393310546875,-1.7314565181732178,-6.111246109008789,2.2978410720825195
1701979939604925200,10.33092529296875,-1.447142481803894,-5.813323974609375,3.1027164459228516
1701979939621915600,10.34791552734375,-0.9322761297225952,-5.402872085571289,3.3038034439086914
1701979939638907400,10.364907470703125,-0.6694696545600891,-5.201623439788818,3.0969791412353516
1701979939655888000,10.381887939453126,-1.0038403272628784,-5.483721733093262,3.1595458984375
1701979939672887300,10.39888720703125,-1.3515933752059937,-5.575461387634277,2.9577531814575195
1701979939689882400,10.41588232421875,-1.3348573446273804,-5.501523971557617,2.7131547927856445
1701979939706873900,10.432873779296875,-1.0176267623901367,-5.46821403503418,2.5955238342285156
1701979939723853300,10.449853271484375,-0.2526850700378418,-5.3546977043151855,2.20181941986084
1701979939740854800,10.466854736328125,0.3950319290161133,-5.426667213439941,2.1182689666748047
1701979939757847000,10.483846923828125,0.7032185792922974,-5.727184295654297,2.1076135635375977
1701979939774836200,10.500836181640626,1.1213847398757935,-5.8355207443237305,1.902665138244629
1701979939791828200,10.517828125,0.47275713086128235,-5.894744396209717,1.956756591796875
1701979939808820000,10.534820068359375,-0.7403847575187683,-5.689233779907227,1.6458520889282227
1701979939825810700,10.551810791015624,-1.2637280225753784,-5.631420135498047,0.8226194381713867
1701979939842802700,10.568802734375,-0.6756315231323242,-5.738024711608887,-0.06655693054199219
1701979939859793000,10.58579296875,0.438010036945343,-5.82032585144043,-0.511866569519043
1701979939876784600,10.60278466796875,1.4066964387893677,-5.719151496887207,-0.4618368148803711
1701979939893762600,10.619762451171875,1.6127073764801025,-5.309410095214844,-0.02391529083251953
1701979939910767900,10.636767822265625,0.7522884607315063,-4.886357307434082,0.7194900512695312
1701979939927755000,10.653755126953126,-0.09182485938072205,-4.587893486022949,0.5395851135253906
1701979939944752400,10.67075244140625,-0.2644827663898468,-4.332664489746094,-0.4102354049682617
1701979939961740500,10.687740478515625,0.06609871983528137,-4.139687538146973,-1.1179580688476562
1701979939978732000,10.70473193359375,0.16307491064071655,-3.6709134578704834,-0.8843154907226562
1701979939995712500,10.72171240234375,-0.2459464967250824,-2.9719250202178955,-0.08100223541259766
1701979940012714800,10.73871484375,-0.5426164269447327,-2.456909656524658,0.9619073867797852
1701979940029702700,10.75570263671875,-0.5829799175262451,-2.079423189163208,0.10339927673339844
1701979940046699800,10.77269970703125,-0.09449809789657593,-2.0881683826446533,-1.5004396438598633
1701979940063688000,10.78968798828125,0.4981658458709717,-1.977773666381836,-2.7080607414245605
1701979940080679400,10.806679443359375,0.9213297367095947,-1.538578748703003,-3.1028785705566406
1701979940097670400,10.82367041015625,1.040170669555664,-1.2246131896972656,-2.3304953575134277
1701979940114662100,10.840662109375,0.9623345732688904,-0.919426679611206,-1.6825752258300781
1701979940131649000,10.85764892578125,0.8400033712387085,-0.7143127918243408,-1.9060697555541992
1701979940148644600,10.87464453125,0.9443328380584717,-0.43910956382751465,-2.709974765777588
1701979940165635300,10.89163525390625,1.4399728775024414,-0.3081934452056885,-3.187072277069092
1701979940182626800,10.908626708984375,2.216914653778076,-0.1415729522705078,-3.0861735343933105
1701979940199617800,10.92561767578125,2.5754241943359375,0.04165959358215332,-2.1374645233154297
1701979940216609500,10.942609619140624,2.478847026824951,0.5037972927093506,-0.725102424621582
1701979940233592300,10.95959228515625,2.1227715015411377,0.8535032272338867,0.12188529968261719
1701979940250591700,10.976591796875,2.5234622955322266,1.11248779296875,-0.367279052734375
1701979940267572200,10.993572265625,3.3188724517822266,1.3825757503509521,-0.9176778793334961
1701979940284574500,11.010574462890625,4.15219783782959,1.4704029560089111,-0.9402260780334473
1701979940301565000,11.02756494140625,4.575462818145752,1.5315406322479248,-0.32414674758911133
1701979940318557000,11.044556884765624,4.361241817474365,1.8717432022094727,0.889190673828125
1701979940335547600,11.061547607421875,3.857694387435913,2.1156675815582275,1.452132225036621
1701979940352539400,11.078539306640625,3.68820858001709,2.2718722820281982,1.193188190460205
1701979940369517300,11.095517333984375,3.9035348892211914,2.5197696685791016,0.4266953468322754
1701979940386521300,11.112521240234376,3.9002716541290283,2.4288127422332764,-0.024372577667236328
1701979940403515000,11.129514892578126,3.6722681522369385,2.179490089416504,-0.07879447937011719
1701979940420504300,11.14650439453125,3.4241371154785156,1.8657264709472656,0.07692098617553711
1701979940437495000,11.1634951171875,3.31484055519104,1.6983575820922852,0.2005023956298828
1701979940454484200,11.180484130859375,3.6005194187164307,1.6746962070465088,0.25594043731689453
1701979940471480300,11.197480224609375,4.034903526306152,1.69156813621521,0.3298525810241699
1701979940488469000,11.214468994140624,3.933145523071289,1.5691518783569336,0.3549041748046875
1701979940505460200,11.231460205078125,3.432215690612793,1.358156681060791,0.15346193313598633
1701979940522451500,11.248451416015625,3.0567750930786133,1.2513351440429688,-0.16870403289794922
1701979940539443000,11.26544287109375,2.939575672149658,1.0994367599487305,-0.40184450149536133
1701979940556429000,11.282428955078124,3.148977279663086,0.8997964859008789,-0.17285919189453125
1701979940573425000,11.2994248046875,2.9866130352020264,0.5830063819885254,0.847020149230957
1701979940590416600,11.316416748046874,2.7399466037750244,0.7010059356689453,1.6084861755371094
1701979940607407400,11.333407470703126,2.2764387130737305,0.7337470054626465,1.845827579498291
1701979940624398800,11.35039892578125,2.2022924423217773,0.617678165435791,1.8096094131469727
1701979940641389600,11.3673896484375,2.114243984222412,0.31638288497924805,2.3326520919799805
1701979940658381800,11.3843818359375,1.6444199085235596,0.3929753303527832,2.9062252044677734
1701979940675372300,11.401372314453125,0.7544558048248291,0.47104644775390625,3.748171329498291
1701979940692363800,11.41836376953125,-0.2529182434082031,1.0280842781066895,3.6367807388305664
1701979940709352200,11.435352294921875,-0.847266674041748,1.5280561447143555,3.0556302070617676
1701979940726349300,11.452349365234374,-0.4485759735107422,1.7620410919189453,2.862997055053711
1701979940743334700,11.469334716796874,0.4143257141113281,1.7213444709777832,3.1412057876586914
1701979940760334300,11.486334228515625,1.0457302331924438,1.4597597122192383,4.076648712158203
1701979940777317000,11.503317138671875,1.1792349815368652,1.3745875358581543,4.866213321685791
1701979940794325000,11.520324951171874,1.025613784790039,1.3385858535766602,5.041502952575684
1701979940811289900,11.537289794921875,0.22269201278686523,1.5263066291809082,4.298501014709473
1701979940828290300,11.554290283203125,-0.4711019992828369,1.748976230621338,3.3523097038269043
1701979940845284000,11.5712841796875,-0.6895186901092529,1.9380640983581543,2.704193592071533
1701979940862274600,11.588274658203124,-0.20627427101135254,2.032283306121826,2.592132091522217
1701979940879269000,11.60526904296875,0.366832971572876,1.9755473136901855,3.6074719429016113
1701979940896258800,11.6222587890625,1.2892926931381226,1.8395962715148926,4.532167434692383
1701979940913257200,11.63925732421875,1.8651247024536133,1.5882349014282227,4.026671409606934
1701979940930241300,11.6562412109375,1.9345033168792725,1.4092516899108887,2.667902946472168
1701979940947232300,11.673232177734375,1.5562273263931274,1.3275775909423828,1.6315970420837402
1701979940964223700,11.6902236328125,0.9399824142456055,1.3367962837219238,1.2932558059692383
1701979940981214500,11.70721435546875,0.9051567316055298,1.439539909362793,1.9386043548583984
1701979940998202400,11.724202392578125,1.52255117893219,1.6096959114074707,2.7159552574157715
1701979941015190300,11.741190185546875,2.3664371967315674,1.6643867492675781,2.9632606506347656
1701979941032188700,11.758188720703124,3.1647863388061523,1.7074131965637207,2.473346710205078
1701979941049179600,11.7751796875,3.405857801437378,1.7955341339111328,1.658496379852295
1701979941066171400,11.79217138671875,3.3996505737304688,1.7549939155578613,1.3773484230041504
1701979941083161900,11.809161865234374,2.9310123920440674,1.845602035522461,1.7079105377197266
1701979941100153600,11.826153564453126,2.6177573204040527,1.9601259231567383,2.142181396484375
1701979941117131500,11.843131591796874,2.376289129257202,1.885056495666504,2.3147459030151367
1701979941134129000,11.86012890625,2.6347804069519043,1.7759695053100586,1.6840591430664062
1701979941151114200,11.8771142578125,3.115321397781372,1.7726285457611084,0.6628313064575195
1701979941168110300,11.8941103515625,3.247511386871338,1.707866907119751,-0.010631561279296875
1701979941185105700,11.911105712890626,3.111506462097168,1.5735893249511719,-0.12080240249633789
1701979941202101800,11.928101806640624,2.049640655517578,1.2018604278564453,0.2778902053833008
1701979941219081700,11.945081787109375,1.1607728004455566,0.8909974098205566,0.1698436737060547
1701979941236079600,11.96207958984375,0.8946207761764526,0.9871995449066162,-0.6564173698425293
1701979941253071400,11.9790712890625,1.693462610244751,1.282374620437622,-1.3840150833129883
1701979941270061000,11.99606103515625,2.5250370502471924,1.3172171115875244,-1.6749978065490723
1701979941287050200,12.01305029296875,2.9193830490112305,0.869633674621582,-1.3275527954101562
1701979941304051700,12.0300517578125,2.359215259552002,0.6465578079223633,-0.20026588439941406
1701979941321040100,12.0470400390625,0.9270637035369873,0.12212014198303223,0.32735443115234375
1701979941338031000,12.064031005859375,0.6931430697441101,-0.09308385848999023,-0.4478139877319336
1701979941355018200,12.081018310546876,1.9117941856384277,-0.22548532485961914,-0.8552722930908203
1701979941372013300,12.098013427734376,2.9761252403259277,-0.5287587642669678,-0.8179101943969727
1701979941388993500,12.11499365234375,2.4077529907226562,-0.8845992088317871,-0.7270431518554688
1701979941406004500,12.13200439453125,1.5510259866714478,-1.635303258895874,-0.7847776412963867
1701979941422986500,12.148986572265626,-0.11069953441619873,-1.778538465499878,-1.2839641571044922
1701979941439978200,12.165978271484375,-1.005547046661377,-1.4612460136413574,-1.9812817573547363
1701979941456969200,12.18296923828125,-0.9194280505180359,-1.0189595222473145,-2.5183892250061035
1701979941473951200,12.199951171875,-0.40660011768341064,-0.8135311603546143,-2.5154366493225098
1701979941490954200,12.216954345703124,0.11214179545640945,-1.0417780876159668,-2.085073947906494
1701979941507938300,12.233938232421876,0.8411455750465393,-1.6550326347351074,-1.5476713180541992
1701979941524936700,12.250936767578125,1.6996477842330933,-1.8018592596054077,-1.4720191955566406
1701979941541925600,12.267925537109376,2.385483503341675,-1.793310523033142,-1.4365596771240234
1701979941558916600,12.28491650390625,2.6116127967834473,-2.062673807144165,-1.1677885055541992
1701979941575908400,12.301908447265625,2.465047597885132,-2.6322193145751953,-0.8831386566162109
1701979941592899000,12.318899169921876,1.8831508159637451,-2.895368814468384,-0.7863998413085938
1701979941609890800,12.335890869140625,1.115087866783142,-3.148829221725464,-0.6796445846557617
1701979941626881500,12.352881591796875,0.42552655935287476,-3.2625999450683594,-0.8938188552856445
1701979941643873300,12.369873291015624,0.08244681358337402,-3.7048497200012207,-1.2288169860839844
1701979941660863700,12.38686376953125,0.490020751953125,-4.1651997566223145,-1.5417242050170898
1701979941677855500,12.40385546875,0.6882597208023071,-4.263050079345703,-1.0009698867797852
1701979941694846500,12.420846435546874,0.21037203073501587,-4.501765251159668,0.0204925537109375
1701979941711838500,12.43783837890625,-0.2913700342178345,-4.557119369506836,0.185577392578125
1701979941728829000,12.454828857421875,-0.5967126488685608,-4.999858856201172,-0.04465484619140625
1701979941745820700,12.471820556640624,-0.44968298077583313,-5.600595474243164,-0.14840221405029297
1701979941762811400,12.488811279296876,-0.48595279455184937,-5.359222888946533,-0.17919921875
1701979941779803400,12.505803466796875,-0.7800913453102112,-5.093739032745361,0.5644540786743164
1701979941796793900,12.5227939453125,-1.172919511795044,-5.271824836730957,1.3374958038330078
1701979941813797600,12.539797607421875,-1.1371749639511108,-5.322508335113525,0.8916101455688477
1701979941830774500,12.5567744140625,-0.4507577121257782,-5.001519203186035,-0.2463970184326172
1701979941847769600,12.57376953125,0.12575237452983856,-5.043882846832275,-0.7517251968383789
1701979941864759000,12.590759033203126,0.2682744264602661,-5.312414169311523,-1.326207160949707
1701979941881737000,12.607737060546874,-0.2628588378429413,-5.710009574890137,-0.8411674499511719
1701979941898744000,12.624744140625,-1.3111207485198975,-5.874419212341309,1.7260160446166992
1701979941915733000,12.64173291015625,-1.5130841732025146,-5.064805030822754,4.2013702392578125
1701979941932723700,12.6587236328125,-1.314815878868103,-4.176770210266113,4.840665817260742
1701979941949708300,12.675708251953125,-0.9940916895866394,-4.19623327255249,4.245237350463867
1701979941966702800,12.692702880859375,-0.6052138805389404,-4.847370147705078,3.510472297668457
1701979941983698000,12.709697998046876,-0.8806113004684448,-5.737895488739014,3.9895095825195312
1701979942000689000,12.72668896484375,-1.990501880645752,-5.488616943359375,4.201234817504883
1701979942017680400,12.743680419921875,-2.7918894290924072,-5.234334945678711,3.0111265182495117
1701979942034671400,12.76067138671875,-2.9427995681762695,-5.527935028076172,1.8195695877075195
1701979942051662600,12.77766259765625,-1.8761565685272217,-5.4991912841796875,0.5076093673706055
1701979942068664000,12.7946640625,-0.30359601974487305,-5.642230033874512,0.3230171203613281
1701979942085646800,12.811646728515624,0.3850529193878174,-6.189778804779053,0.6549158096313477
1701979942102643700,12.828643798828125,0.675748884677887,-6.180508613586426,0.8004655838012695
1701979942119628000,12.8456279296875,0.8485264182090759,-5.750778675079346,0.5625123977661133
1701979942136618500,12.862618408203126,0.9902517795562744,-5.740033149719238,0.07209968566894531
1701979942153619700,12.87961962890625,1.0390315055847168,-5.829989433288574,-0.44478511810302734
1701979942170601200,12.896601318359375,0.5815334320068359,-5.605528831481934,-1.273228645324707
1701979942187593000,12.913593017578124,-0.2860441505908966,-5.389704704284668,-1.5157957077026367
1701979942204583400,12.93058349609375,-0.7137599587440491,-4.734126091003418,-1.6870288848876953
1701979942221575200,12.9475751953125,-1.091752052307129,-4.045938014984131,-1.8761091232299805
1701979942238566000,12.96456591796875,-0.7514182925224304,-3.912088632583618,-1.7154450416564941
1701979942255558100,12.98155810546875,0.4562194347381592,-4.339666366577148,-1.7569737434387207
1701979942272546600,12.998546630859375,2.1209731101989746,-4.231771469116211,-1.687880516052246
1701979942289544200,13.015544189453125,2.844618797302246,-3.8233041763305664,-1.0806951522827148
1701979942306529300,13.032529296875,2.4618752002716064,-3.240154266357422,-0.5892305374145508
1701979942323522600,13.0495224609375,1.6738133430480957,-2.5980067253112793,-1.007364273071289
1701979942340502800,13.066502685546874,1.0978455543518066,-1.577993392944336,-2.0094571113586426
1701979942357505000,13.083505126953124,1.3025667667388916,-0.840928316116333,-2.785557746887207
1701979942374496000,13.10049609375,1.7517796754837036,-0.580956220626831,-2.43092679977417
1701979942391487500,13.117487548828125,1.8918557167053223,-0.3673853874206543,-1.2109313011169434
1701979942408478500,13.134478515625,1.5695940256118774,0.17335796356201172,-0.13277244567871094
1701979942425470200,13.15147021484375,0.5208139419555664,0.617175817489624,0.2138681411743164
1701979942442460700,13.168460693359375,0.09556931257247925,0.650327205657959,-0.3479318618774414
1701979942459452700,13.18545263671875,0.2773125469684601,0.5234217643737793,-1.1491398811340332
1701979942476443400,13.202443359375,1.2795581817626953,0.8038225173950195,-1.684290885925293
1701979942493435100,13.21943505859375,2.191899061203003,0.9303665161132812,-1.4459590911865234
1701979942510426000,13.236426025390625,2.7827553749084473,0.7671184539794922,-0.5336170196533203
1701979942527417600,13.25341748046875,3.132030487060547,0.869755744934082,0.6812763214111328
1701979942544406000,13.270406005859375,3.67761492729187,1.1890859603881836,0.8238620758056641
1701979942561402600,13.287402587890625,3.9171807765960693,1.364501953125,0.05553483963012695
1701979942578380300,13.30438037109375,4.20021390914917,1.819967269897461,-0.8636064529418945
1701979942595382500,13.321382568359375,4.421295166015625,2.1210391521453857,-1.1589312553405762
1701979942612373200,13.338373291015625,4.379947185516357,2.1457886695861816,-0.7508950233459473
1701979942629366300,13.3553662109375,3.7805867195129395,1.860710620880127,0.1539912223815918
1701979942646354400,13.3723544921875,3.4722280502319336,1.7616925239562988,0.753873348236084
1701979942663335200,13.389335205078124,3.327575206756592,2.0941720008850098,1.0121574401855469
1701979942680332000,13.40633203125,3.258296489715576,2.5595884323120117,1.035336971282959
1701979942697320200,13.4233203125,3.2413673400878906,2.7531347274780273,1.102029800415039
1701979942714310400,13.440310302734375,3.061180353164673,2.471745014190674,1.544672966003418
1701979942731302000,13.457302001953124,3.0106072425842285,1.9972028732299805,2.313229560852051
1701979942748295400,13.47429541015625,3.1508331298828125,1.968536376953125,2.305936813354492
1701979942765287200,13.491287109375,3.9042129516601562,2.228689193725586,1.7900476455688477
1701979942782278400,13.5082783203125,4.435428619384766,2.4651217460632324,0.9439487457275391
1701979942799270100,13.525270263671874,4.112680912017822,2.3892059326171875,0.6859469413757324
1701979942816258000,13.542258056640625,3.2046008110046387,2.288788318634033,0.8545489311218262
1701979942833251800,13.559251953125,2.163649559020996,1.9113597869873047,1.308128833770752
1701979942850241300,13.5762412109375,1.5788911581039429,1.6383414268493652,1.3325729370117188
1701979942867236400,13.593236328125,1.6051105260849,1.3403878211975098,1.0534515380859375
1701979942884235000,13.610235107421875,2.5045762062072754,1.478006362915039,1.036092758178711
1701979942901225000,13.627224853515624,2.5002286434173584,0.8655605316162109,2.561718463897705
1701979942918215700,13.644215576171876,1.8094855546951294,0.6078681945800781,3.407184600830078
1701979942935207400,13.66120751953125,1.8082377910614014,0.9745750427246094,3.295588493347168
1701979942952198100,13.6781982421875,2.023746967315674,1.3405766487121582,3.056446075439453
1701979942969181000,13.695180908203126,1.4930452108383179,1.4901361465454102,3.7188196182250977
1701979942986180600,13.7121806640625,0.1608591079711914,1.3821163177490234,4.248432636260986
1701979943003172400,13.72917236328125,-1.0687932968139648,1.767904281616211,3.307969570159912
1701979943020163300,13.746163330078126,-1.9558849334716797,1.8468408584594727,1.9318351745605469
1701979943037155000,13.763155029296875,-1.8650732040405273,1.8266115188598633,1.2110061645507812
1701979943054143000,13.78014306640625,-0.770920991897583,1.781348705291748,1.68434476852417
1701979943071138300,13.79713818359375,-0.08814334869384766,1.3305187225341797,3.7290711402893066
1701979943088129500,13.814129638671876,0.0615077018737793,1.2036466598510742,4.974518299102783
1701979943105119700,13.83111962890625,0.33318281173706055,1.5096502304077148,3.7465038299560547
1701979943122101800,13.848101806640624,0.1415245532989502,1.6047019958496094,2.130398750305176
1701979943139102200,13.865102294921876,-0.3883695602416992,1.673384666442871,1.2349672317504883
1701979943156091100,13.882091064453125,-0.6153109073638916,1.8442115783691406,1.2551488876342773
1701979943173082600,13.89908251953125,-0.8792424201965332,1.9982409477233887,2.7371764183044434
1701979943190079500,13.91607958984375,-0.8168540000915527,2.1307501792907715,3.964470386505127
1701979943207058000,13.933057861328125,-0.5970251560211182,2.0366692543029785,3.9846715927124023
1701979943224057900,13.950057861328125,0.32445478439331055,1.9154038429260254,3.1196107864379883
1701979943241049900,13.9670498046875,1.4433773756027222,1.8610405921936035,2.325496196746826
1701979943258040600,13.98404052734375,2.328108310699463,1.7703142166137695,2.306393623352051
1701979943275021800,14.001021728515624,2.597675323486328,1.6760587692260742,3.3488845825195312
1701979943292022800,14.018022705078126,2.478318214416504,1.7843232154846191,4.607008457183838
1701979943309014800,14.035014892578126,2.707852840423584,1.753861904144287,4.184183597564697
1701979943326005500,14.052005615234375,3.113596200942993,1.8262815475463867,2.4632620811462402
1701979943342997500,14.06899755859375,3.5976130962371826,1.6532821655273438,1.2256107330322266
1701979943359987700,14.08598779296875,4.055583477020264,1.8095011711120605,0.5246968269348145
1701979943376979500,14.1029794921875,4.027176856994629,1.8943815231323242,0.7180895805358887
1701979943393961700,14.119961669921874,3.3830599784851074,1.790231704711914,2.190598964691162
1701979943410962000,14.1369619140625,3.103224515914917,1.6141119003295898,2.4859652519226074
1701979943427953200,14.153953125,3.111550807952881,1.2602596282958984,1.4596304893493652
1701979943444944600,14.170944580078125,3.256880760192871,1.1483263969421387,0.1199808120727539
1701979943461935400,14.187935302734376,3.033792495727539,1.364884853363037,-0.704561710357666
1701979943478912000,14.204912109375,2.4469072818756104,1.6560373306274414,-1.2896761894226074
1701979943495917800,14.221917724609375,1.2850394248962402,1.826037883758545,-1.0757637023925781
1701979943512904700,14.23890478515625,0.4200097322463989,2.06660532951355,-0.6704139709472656
1701979943529900300,14.255900390625,0.6010199785232544,1.8296637535095215,-0.30907630920410156
1701979943546892000,14.27289208984375,2.2523093223571777,1.37910795211792,-0.25620365142822266
1701979943563882800,14.2898828125,3.7390224933624268,1.0701103210449219,-0.5269756317138672
1701979943580874800,14.306874755859376,4.320319175720215,0.8442738056182861,-0.8183841705322266
1701979943597865500,14.323865478515625,3.9829747676849365,0.4790940284729004,-0.6531591415405273
1701979943614857200,14.340857177734375,2.9136013984680176,0.1399400234222412,-0.47366905212402344
1701979943631847700,14.35784765625,1.973169207572937,-0.14157462120056152,-0.8629264831542969
1701979943648839700,14.374839599609375,1.751760482788086,-0.3924262523651123,-1.279630184173584
1701979943665830400,14.391830322265625,2.053786277770996,-0.5262231826782227,-1.6988768577575684
1701979943682822100,14.408822265625,1.8856322765350342,-0.9201891422271729,-1.7249836921691895
1701979943699812900,14.425812744140625,1.1522690057754517,-1.1096229553222656,-1.7219452857971191
1701979943716804600,14.4428046875,0.4764479696750641,-1.1139864921569824,-1.5543804168701172
1701979943733798000,14.4597978515625,0.33750617504119873,-1.0847735404968262,-1.4610137939453125
1701979943750784300,14.4767841796875,0.7400025129318237,-1.483633041381836,-1.1634845733642578
1701979943767780400,14.4937802734375,1.3286330699920654,-2.098266124725342,-1.1309423446655273
1701979943784769300,14.510769287109374,2.011651039123535,-2.435493230819702,-1.5768699645996094
1701979943801760300,14.52776025390625,2.5512020587921143,-2.752924680709839,-1.630988597869873
1701979943818752300,14.544752197265625,2.6643731594085693,-2.8918344974517822,-1.1859169006347656
1701979943835742700,14.56174267578125,2.5087482929229736,-3.2115511894226074,-0.6609840393066406
1701979943852734500,14.578734375,2.126847267150879,-3.6304192543029785,-0.01908397674560547
1701979943869726000,14.595725830078125,1.4877535104751587,-4.41512393951416,-0.14484596252441406
1701979943886716000,14.6127158203125,1.1116931438446045,-4.839090347290039,-0.8040895462036133
1701979943903708000,14.6297080078125,0.5828918814659119,-4.898297309875488,-1.2421340942382812
1701979943920699600,14.64669970703125,0.8599995374679565,-5.4506683349609375,-0.9080085754394531
1701979943937690400,14.6636904296875,1.1009835004806519,-6.320773124694824,-0.3475074768066406
1701979943954682000,14.68068212890625,0.9221363663673401,-7.091166019439697,-0.11635780334472656
1701979943971672800,14.6976728515625,0.6749997735023499,-7.3609113693237305,-0.3299551010131836
1701979943988664600,14.71466455078125,0.0795610249042511,-7.350010871887207,-0.22466278076171875
1701979944005655800,14.73165576171875,-0.30949708819389343,-7.081092834472656,0.12562274932861328
1701979944022644200,14.748644287109375,-0.474525511264801,-6.648070335388184,0.18326663970947266
1701979944039637800,14.7656376953125,0.09184274077415466,-6.233548164367676,1.6801414489746094
1701979944056629500,14.78262939453125,0.3109774589538574,-5.975623607635498,3.5521621704101562
1701979944073609500,14.799609375,-0.28312569856643677,-6.004443168640137,4.000668525695801
1701979944090610200,14.816610107421875,-1.3712226152420044,-5.870656967163086,1.1502161026000977
1701979944107604200,14.833604248046875,-2.0083858966827393,-5.727936267852783,-1.4330110549926758
1701979944124595200,14.85059521484375,-2.0325400829315186,-5.812384605407715,-1.5046710968017578
1701979944141585200,14.867585205078125,-1.237317442893982,-6.136186599731445,0.11076927185058594
1701979944158576600,14.88457666015625,-0.9109835028648376,-5.920355796813965,1.5472040176391602
1701979944175556900,14.901556884765625,-1.1154632568359375,-5.754201412200928,2.6409215927124023
1701979944192559600,14.9185595703125,-1.2193208932876587,-5.540897846221924,3.672344207763672
1701979944209549800,14.9355498046875,-1.5105197429656982,-5.498932838439941,4.674654006958008
1701979944226542600,14.95254248046875,-1.5780913829803467,-5.7713847160339355,4.739248275756836
1701979944243530500,14.969530517578125,-1.910475254058838,-6.370074272155762,3.475008010864258
1701979944260522800,14.986522705078125,-1.5153948068618774,-6.881012439727783,1.6144962310791016
1701979944277518800,15.003518798828125,-0.9167442917823792,-6.959926128387451,-0.1688070297241211
1701979944294496300,15.020496337890625,0.15375734865665436,-6.715017795562744,-0.9217853546142578
1701979944311497700,15.037497802734375,0.818565309047699,-6.84415864944458,-0.3447837829589844
1701979944328489500,15.054489501953125,0.578097939491272,-6.563539028167725,1.1254043579101562
1701979944345480000,15.07147998046875,-0.20170724391937256,-5.916275978088379,1.660386085510254
1701979944362472000,15.088471923828125,-0.9096919894218445,-5.688210964202881,0.678196907043457
1701979944379462700,15.105462646484375,-1.0516679286956787,-5.092413902282715,-1.1182432174682617
1701979944396454700,15.12245458984375,-0.3395489752292633,-4.427964210510254,-2.263326644897461
1701979944413447400,15.139447509765626,0.46902185678482056,-3.8763070106506348,-2.040733814239502
1701979944430436900,15.156436767578125,0.6810908317565918,-3.3779077529907227,-1.0902624130249023
1701979944447427600,15.173427490234374,0.3491375148296356,-3.105290651321411,-0.4413309097290039
1701979944464407000,15.190406982421875,0.6124064326286316,-2.8604676723480225,-0.9130535125732422
1701979944481410000,15.20741015625,1.2660192251205444,-2.216182231903076,-1.8567805290222168
1701979944498401800,15.22440185546875,1.3216934204101562,-1.7964410781860352,-2.2927913665771484
1701979944515392500,15.241392578125,0.8249877691268921,-1.2293617725372314,-2.3998942375183105
1701979944532381700,15.258381591796875,0.7657982110977173,-1.0261774063110352,-1.8186283111572266
1701979944549366300,15.2753662109375,1.0608035326004028,-0.7194912433624268,-0.8480072021484375
1701979944566368000,15.292367919921874,1.042497158050537,-0.6336619853973389,0.21947669982910156
1701979944583357700,15.309357666015625,1.6687816381454468,-0.2646045684814453,0.3322458267211914
1701979944600349200,15.32634912109375,2.7982311248779297,-0.0021598339080810547,-0.10411548614501953
1701979944617330700,15.34333056640625,3.3046956062316895,0.06363844871520996,-0.3326234817504883
1701979944634321200,15.360321044921875,2.891709804534912,0.38535118103027344,-0.9564833641052246
1701979944651312000,15.37731201171875,2.3714418411254883,0.6928412914276123,-1.45524263381958
1701979944668305200,15.39430517578125,1.8574262857437134,0.4078853130340576,-1.0870537757873535
1701979944685297200,15.411297119140626,1.9297840595245361,0.10249519348144531,-0.6919703483581543
1701979944702289400,15.428289306640625,2.6720879077911377,0.057576656341552734,-0.944911003112793
1701979944719278000,15.445278076171874,3.386934757232666,0.0029997825622558594,-1.3533296585083008
1701979944736269300,15.462269287109375,3.8018383979797363,0.19395780563354492,-1.6684141159057617
1701979944753262800,15.479262939453125,4.059062480926514,0.2897205352783203,-1.4381732940673828
1701979944770253300,15.49625341796875,3.95577335357666,-0.14314508438110352,-0.5768990516662598
1701979944787242000,15.513241943359375,3.9643447399139404,-0.06724786758422852,-0.18861770629882812
1701979944804244200,15.530244140625,3.7412519454956055,0.2883114814758301,-0.33828020095825195
1701979944821235000,15.54723486328125,3.7481842041015625,0.5840573310852051,-0.22418832778930664
1701979944838226700,15.564226806640624,3.3486216068267822,0.6748852729797363,0.23653650283813477
1701979944855217400,15.581217529296875,3.37481689453125,0.48192644119262695,0.7546176910400391
1701979944872206600,15.59820654296875,3.4373021125793457,0.4866909980773926,0.9348587989807129
1701979944889202400,15.615202392578125,3.653273344039917,0.7992100715637207,0.7735233306884766
1701979944906192000,15.63219189453125,3.7762203216552734,1.0854535102844238,0.6111207008361816
1701979944923182300,15.649182373046875,4.104547023773193,1.2925753593444824,0.7309489250183105
1701979944940174300,15.66617431640625,4.233368873596191,1.338282585144043,1.327789306640625
1701979944957154800,15.68315478515625,3.8789174556732178,1.1762018203735352,1.9471549987792969
1701979944974156800,15.70015673828125,3.3997042179107666,1.195516586303711,2.275709629058838
1701979944991147500,15.7171474609375,3.199631929397583,1.1684927940368652,2.4048566818237305
1701979945008139000,15.734138916015626,2.9411606788635254,1.0734858512878418,2.7184319496154785
1701979945025129700,15.751129638671875,2.2804574966430664,1.26832914352417,3.0158519744873047
1701979945042121500,15.76812158203125,1.7784736156463623,1.1364259719848633,3.454836845397949
1701979945059110000,15.78510986328125,1.069493055343628,0.950676441192627,3.571568489074707
1701979945076106800,15.802106689453124,1.2351858615875244,1.5900392532348633,2.8976736068725586
1701979945093095000,15.819094970703125,1.699941873550415,2.105041027069092,2.8344740867614746
1701979945110086700,15.836086669921874,1.4569151401519775,1.8609938621520996,3.656586170196533
1701979945127077600,15.85307763671875,0.7016565799713135,1.5243158340454102,3.82528018951416
1701979945144069400,15.8700693359375,0.8281979560852051,1.344365119934082,3.427985668182373
1701979945161053200,15.88705322265625,1.7551848888397217,1.5609278678894043,3.1633219718933105
1701979945178051800,15.9040517578125,3.115903377532959,1.2814579010009766,3.5463452339172363
1701979945195032000,15.921031982421875,4.206625938415527,1.0922346115112305,4.096765518188477
1701979945212034000,15.938033935546875,4.229756832122803,0.9430937767028809,4.489438533782959
1701979945229024800,15.955024658203126,3.742302417755127,0.9382162094116211,3.807342529296875
1701979945246016800,15.972016845703125,2.6870734691619873,1.4547467231750488,2.3114662170410156
1701979945263007700,15.9890078125,1.5924522876739502,1.7312536239624023,1.0573740005493164
1701979945279999500,16.00599951171875,0.4101898670196533,2.192147731781006,0.9959030151367188
1701979945296990000,16.022989990234375,-0.6064326763153076,2.2456507682800293,3.0708346366882324
1701979945313978000,16.03997802734375,-1.732717514038086,2.36476993560791,5.285514831542969
1701979945330962000,16.0569619140625,-2.3801822662353516,2.6801185607910156,5.52245569229126
1701979945347964400,16.07396435546875,-2.6976654529571533,2.961243152618408,4.493536472320557
1701979945364953900,16.090953857421876,-2.314340114593506,3.180464744567871,3.3393173217773438
1701979945381946600,16.107946533203126,-1.290496826171875,3.0944712162017822,3.08797550201416
1701979945398937600,16.1249375,0.06350016593933105,3.033003330230713,3.237567901611328
1701979945415929300,16.141929443359373,1.2251577377319336,2.9129581451416016,3.7075881958007812
1701979945432919800,16.158919921875,1.9628551006317139,3.129209280014038,3.8494696617126465
1701979945449911600,16.17591162109375,2.3988077640533447,2.962150812149048,3.2207388877868652
1701979945466902500,16.192902587890625,2.4420266151428223,2.7009646892547607,2.419485092163086
1701979945483894300,16.209894287109375,2.8876140117645264,2.6442348957061768,1.7308964729309082
1701979945500885000,16.226885009765624,3.4024415016174316,2.5994250774383545,1.19533109664917
1701979945517876700,16.243876708984374,4.0058674812316895,2.3059816360473633,1.1155071258544922
1701979945534863400,16.26086328125,4.716108322143555,2.0783565044403076,1.1363391876220703
1701979945551859500,16.277859375,4.967177391052246,1.642643928527832,1.3692049980163574
1701979945568849700,16.294849609375,3.6610207557678223,1.4560136795043945,0.9920740127563477
1701979945585842000,16.311842041015623,2.356565237045288,1.709282636642456,-0.47612953186035156
1701979945602832400,16.328832275390624,1.721405267715454,2.117370843887329,-1.3208203315734863
1701979945619823600,16.34582373046875,2.0074849128723145,2.2464592456817627,-1.4138994216918945
1701979945636816000,16.36281591796875,3.090153694152832,1.9767332077026367,-0.8583979606628418
1701979945653800000,16.379800048828123,4.0071916580200195,1.1458232402801514,-0.2416830062866211
1701979945670794500,16.39679443359375,4.725407123565674,0.6528496742248535,-0.20033740997314453
1701979945687791600,16.41379150390625,4.943716049194336,0.527101993560791,-0.7162694931030273
1701979945704779800,16.43077978515625,4.274755477905273,0.28160738945007324,-0.8752737045288086
1701979945721771800,16.447771728515626,3.365696668624878,-0.05603289604187012,-0.7075958251953125
1701979945738762800,16.4647626953125,3.1271181106567383,-0.5832738876342773,-0.4146108627319336
1701979945755737600,16.481737548828125,3.4862000942230225,-1.115149974822998,-0.22687053680419922
1701979945772747500,16.49874755859375,4.147672176361084,-1.4183239936828613,-0.2823801040649414
1701979945789736400,16.515736328125,4.494254112243652,-1.465822458267212,-0.38350582122802734
1701979945806725400,16.532725341796876,3.999105215072632,-1.8607425689697266,-0.3722362518310547
1701979945823721200,16.54972119140625,3.194542407989502,-2.3234076499938965,-0.5472869873046875
1701979945840710100,16.566710205078124,2.4162850379943848,-2.5949997901916504,-0.7576370239257812
1701979945857701600,16.58370166015625,1.9593664407730103,-2.915632963180542,-1.0084848403930664
1701979945874691000,16.600691162109374,2.022637367248535,-2.8342514038085938,-1.2999210357666016
1701979945891683300,16.617683349609376,2.3965070247650146,-2.8167760372161865,-0.8332290649414062
1701979945908677600,16.634677734375,2.6167056560516357,-3.142578125,0.17774009704589844
1701979945925666800,16.651666748046875,2.372302770614624,-3.48244047164917,0.08254623413085938
1701979945942657500,16.668657470703124,1.72939932346344,-4.028785705566406,-0.4529457092285156
1701979945959649300,16.685649169921874,1.27135169506073,-4.477450847625732,-1.038909912109375
1701979945976642800,16.702642822265624,0.8951481580734253,-4.965139865875244,-1.4374332427978516
1701979945993628700,16.719628662109375,1.418872594833374,-5.318406105041504,-1.0903902053833008
1701979946010620400,16.736620361328125,1.7131738662719727,-5.209260940551758,-0.14909934997558594
1701979946027605500,16.75360546875,1.1377527713775635,-5.058515548706055,0.7687740325927734
1701979946044605000,16.77060498046875,0.5215700268745422,-5.1000471115112305,0.769993782043457
1701979946061596700,16.7875966796875,0.02131938934326172,-5.183631420135498,0.4557981491088867
1701979946078587400,16.80458740234375,-0.32157182693481445,-5.096402168273926,0.3862323760986328
1701979946095579400,16.821579345703125,-0.3103364109992981,-5.271904945373535,0.9902811050415039
1701979946112570000,16.838570068359374,0.039610326290130615,-5.424243450164795,1.5923442840576172
1701979946129558300,16.855558349609375,0.40824174880981445,-5.634098529815674,1.4767084121704102
1701979946146556200,16.87255615234375,0.42664799094200134,-5.861693382263184,0.964177131652832
1701979946163544300,16.88954443359375,0.5828614234924316,-5.968511581420898,0.07921314239501953
1701979946180522200,16.906522216796876,0.40637800097465515,-6.434953212738037,-0.5103445053100586
1701979946197516300,16.923516357421875,-0.393002986907959,-7.243734359741211,-0.07779598236083984
1701979946214507500,16.940507568359376,-1.3857556581497192,-7.228875160217285,0.40114593505859375
1701979946231500000,16.9575,-2.279015302658081,-6.808668613433838,0.9670009613037109
1701979946248493800,16.974493896484375,-2.623711347579956,-6.579308986663818,1.6927824020385742
1701979946265481000,16.99148095703125,-2.324913740158081,-6.476441860198975,2.3651580810546875
1701979946282474000,17.008473876953126,-1.8748135566711426,-6.22813606262207,2.611867904663086
1701979946299466000,17.025466064453123,-1.614366054534912,-6.519144058227539,3.1579627990722656
1701979946316457700,17.042457763671877,-1.499393105506897,-6.518011093139648,3.640944480895996
1701979946333448200,17.0594482421875,-1.037245512008667,-6.202299118041992,3.278278350830078
1701979946350438400,17.0764384765625,-0.6844800710678101,-6.113271236419678,2.809231758117676
1701979946367430100,17.09343017578125,-0.27747756242752075,-6.560208797454834,2.320657730102539
1701979946384423400,17.11042333984375,0.42284953594207764,-6.922085762023926,1.9198436737060547
1701979946401423600,17.127423583984374,1.007871150970459,-6.987004280090332,1.416184425354004
1701979946418412500,17.14441259765625,0.9529665112495422,-7.0614824295043945,1.2619762420654297
1701979946435404300,17.161404296875,0.5947980880737305,-6.805605411529541,0.3652362823486328
1701979946452391400,17.178391357421877,0.9811469912528992,-6.4877448081970215,-1.1205615997314453
1701979946469390300,17.195390380859376,1.2552247047424316,-6.321640491485596,-1.834456443786621
1701979946486367000,17.212366943359374,0.7800467610359192,-6.008560657501221,-1.2069225311279297
1701979946503369500,17.229369384765626,-0.011444643139839172,-5.281373977661133,-0.8258056640625
1701979946520360000,17.24635986328125,-1.04030179977417,-4.64686393737793,-0.8080511093139648
1701979946537351700,17.2633515625,-1.3580710887908936,-3.8091142177581787,-1.1696557998657227
1701979946554342400,17.28034228515625,-0.9936040639877319,-3.5736193656921387,-1.4682559967041016
1701979946571334100,17.297334228515624,-0.46538907289505005,-3.2410295009613037,-1.4818782806396484
1701979946588325000,17.3143251953125,0.33231061697006226,-2.9855966567993164,-0.8448209762573242
1701979946605316600,17.331316650390626,1.1336119174957275,-2.4590442180633545,-0.544215202331543
1701979946622307300,17.348307373046875,2.0953941345214844,-1.7234644889831543,-0.4174633026123047
1701979946639299600,17.365299560546877,2.353715658187866,-1.0719645023345947,-0.6850423812866211
1701979946656290000,17.3822900390625,1.9690251350402832,-0.7017004489898682,-0.9791059494018555
1701979946673281800,17.39928173828125,1.2295963764190674,-0.5223116874694824,-0.9209280014038086
1701979946690272500,17.4162724609375,0.6575635671615601,-0.23552417755126953,-1.2450499534606934
1701979946707264500,17.433264404296875,0.6237155199050903,0.033442020416259766,-1.3801465034484863
1701979946724255000,17.4502548828125,1.0093958377838135,0.19237375259399414,-1.0202603340148926
1701979946741246700,17.467246826171873,1.357744574546814,0.4137082099914551,-0.5627098083496094
1701979946758227000,17.48422705078125,1.9055978059768677,0.7512407302856445,-0.3694772720336914
1701979946775229400,17.5012294921875,2.2580487728118896,0.879784107208252,-0.14305973052978516
1701979946792220200,17.51822021484375,2.798417806625366,0.8383383750915527,-0.2135753631591797
1701979946809212000,17.5352119140625,3.4660348892211914,0.8562202453613281,-0.24999666213989258
1701979946826202600,17.55220263671875,3.7835166454315186,0.9017577171325684,-0.11890792846679688
1701979946843194600,17.569194580078126,3.5328261852264404,1.1045517921447754,-0.06291913986206055
1701979946860182500,17.5861826171875,3.0572028160095215,1.2962698936462402,0.00898122787475586
1701979946877177300,17.60317724609375,2.8221664428710938,1.5913991928100586,-0.11143302917480469
1701979946894158800,17.620158935546876,2.8692359924316406,1.6831865310668945,-0.3393130302429199
1701979946911154400,17.637154541015626,2.8993215560913086,1.6220779418945312,-0.40357112884521484
1701979946928147200,17.654147216796876,2.9846489429473877,1.6406822204589844,-0.17813873291015625
1701979946945144800,17.671144775390626,2.8440423011779785,1.821335792541504,0.2750282287597656
1701979946962132700,17.6881328125,2.823683738708496,2.0784292221069336,0.7428016662597656
1701979946979124500,17.70512451171875,2.7095224857330322,2.099557876586914,1.1021828651428223
1701979946996114000,17.722114013671874,2.978642702102661,2.140010356903076,1.3725361824035645
1701979947013108000,17.73910791015625,3.3661069869995117,2.3469862937927246,1.313413143157959
1701979947030097700,17.75609765625,3.533238172531128,2.4167208671569824,1.2736635208129883
1701979947047089700,17.773089599609374,3.475799083709717,2.3566012382507324,1.2495203018188477
1701979947064080100,17.790080078125,3.051055431365967,2.153524398803711,1.294072151184082
1701979947081069300,17.8070693359375,2.8792476654052734,1.9392313957214355,1.3756752014160156
1701979947098065200,17.824065185546875,2.9691641330718994,1.8571515083312988,1.3776369094848633
1701979947115044000,17.841044189453125,3.0210912227630615,2.044534683227539,1.6091055870056152
1701979947132032300,17.8580322265625,2.7721214294433594,1.566298007965088,2.572751522064209
1701979947149036800,17.875036865234375,2.3218894004821777,1.1662440299987793,2.6359333992004395
1701979947166027500,17.892027587890624,2.247966766357422,1.0578136444091797,2.135857582092285
1701979947183008500,17.909008544921875,2.287252426147461,0.9461755752563477,2.1961917877197266
1701979947199998000,17.925998046875,2.335623025894165,1.0350947380065918,2.9555068016052246
1701979947217004500,17.943004638671876,1.5973385572433472,1.1071534156799316,3.7573399543762207
1701979947233992700,17.95999267578125,0.9955949783325195,1.5975942611694336,3.3995699882507324
1701979947250984200,17.976984130859375,0.8077168464660645,0.8826451301574707,2.8482742309570312
1701979947267975200,17.99397509765625,1.1405322551727295,0.8727622032165527,1.496476173400879
1701979947284970500,18.010970458984374,2.2285680770874023,1.6395201683044434,0.6994462013244629
1701979947301958000,18.0279580078125,2.823399543762207,1.6386804580688477,1.7490391731262207
1701979947318949600,18.04494970703125,2.6327340602874756,1.3310189247131348,3.6399693489074707
1701979947335940000,18.061940185546874,1.7990219593048096,0.8399524688720703,4.341956615447998
1701979947352932000,18.07893212890625,1.3667490482330322,0.14904546737670898,3.879321575164795
1701979947369920500,18.09592041015625,0.8219137191772461,0.22259950637817383,2.6755409240722656
1701979947386916400,18.112916259765626,0.2727377414703369,1.0739059448242188,1.5120501518249512
1701979947403905300,18.1299052734375,-0.411052942276001,1.4442086219787598,1.884260654449463
1701979947420896800,18.146896728515625,-0.8430283069610596,1.6902947425842285,3.1835360527038574
1701979947437888000,18.163887939453126,-0.947737455368042,1.8154659271240234,4.7955121994018555
1701979947454864000,18.18086376953125,-0.9817700386047363,2.217249870300293,5.512363433837891
1701979947471870500,18.197870361328125,-1.0256361961364746,2.5220112800598145,4.598549842834473
1701979947488862200,18.2148623046875,-1.1182355880737305,2.4925971031188965,3.4106979370117188
1701979947505853000,18.23185302734375,-0.6050472259521484,2.0042786598205566,2.9442849159240723
1701979947522844400,18.248844482421877,0.7113305330276489,2.127530097961426,2.637432098388672
1701979947539824600,18.26582470703125,2.0512213706970215,2.3824896812438965,3.254031181335449
1701979947556827100,18.2828271484375,2.291315793991089,2.6554641723632812,4.336192607879639
1701979947573816300,18.29981640625,2.642164468765259,2.962508201599121,4.21475887298584
1701979947590809000,18.31680908203125,2.8098740577697754,2.7476015090942383,3.133328914642334
1701979947607803100,18.33380322265625,2.9539620876312256,2.2963085174560547,2.184732437133789
1701979947624792000,18.3507919921875,3.265697717666626,2.0991954803466797,1.7344675064086914
1701979947641782800,18.36778271484375,3.392761468887329,2.194380760192871,1.963047981262207
1701979947658774800,18.38477490234375,2.6579971313476562,2.150907039642334,2.7391481399536133
1701979947675755000,18.401755126953127,1.5401113033294678,2.068488121032715,3.02850341796875
1701979947692757000,18.418757080078127,1.2060282230377197,1.4624614715576172,2.110927104949951
1701979947709748000,18.435748046875,1.6933510303497314,1.388089656829834,0.41605615615844727
1701979947726739500,18.452739501953126,2.6927759647369385,1.4040570259094238,-0.9267458915710449
1701979947743730200,18.469730224609375,2.975809335708618,0.9975876808166504,-1.2966313362121582
1701979947760722000,18.486721923828124,2.9149081707000732,0.8252096176147461,-0.9627752304077148
1701979947777712600,18.503712646484374,2.0309743881225586,0.6816530227661133,0.11816120147705078
1701979947794705000,18.520704833984375,1.4162994623184204,0.8544692993164062,0.08008766174316406
1701979947811695400,18.5376953125,1.5847351551055908,1.0937731266021729,-0.7552766799926758
1701979947828687000,18.55468701171875,2.5054869651794434,1.155388355255127,-1.1724152565002441
1701979947845678000,18.571677978515623,3.5668396949768066,1.0351126194000244,-1.0607447624206543
1701979947862669800,18.588669921875,4.0465240478515625,0.7170155048370361,-0.8618803024291992
1701979947879660500,18.60566064453125,3.98455810546875,0.04982614517211914,0.18988895416259766
1701979947896652300,18.62265234375,2.9028520584106445,-0.24122881889343262,1.2229900360107422
1701979947913642800,18.639642822265625,1.990175724029541,-0.504948616027832,1.3676977157592773
1701979947930637800,18.656637939453127,1.5849454402923584,-0.7579338550567627,0.3900413513183594
1701979947947622400,18.673622314453127,1.8150405883789062,-0.7685668468475342,-0.9105119705200195
1701979947964617200,18.6906171875,1.853097677230835,-1.0114338397979736,-1.6623835563659668
1701979947981607700,18.707607666015626,1.3762428760528564,-1.615286111831665,-1.7628483772277832
1701979947998599700,18.724599609375,0.37932971119880676,-2.0263640880584717,-1.6897010803222656
1701979948015590400,18.74159033203125,-0.07503306865692139,-2.2955472469329834,-2.108048915863037
1701979948032574700,18.75857470703125,-0.18924489617347717,-2.2188479900360107,-2.6533660888671875
1701979948049572000,18.775572021484376,-0.09415146708488464,-2.3087105751037598,-2.742457389831543
1701979948066566000,18.79256591796875,0.3398195207118988,-2.8181638717651367,-2.4845242500305176
1701979948083555300,18.809555419921875,1.0429216623306274,-3.727125406265259,-1.7399635314941406
1701979948100535300,18.826535400390625,1.592206597328186,-4.341726303100586,-1.050999641418457
1701979948117532700,18.84353271484375,1.8224787712097168,-4.341701507568359,-0.6651058197021484
1701979948134520300,18.860520263671877,1.3405123949050903,-4.296756744384766,-0.7603330612182617
1701979948151515000,18.877514892578127,0.6538988947868347,-4.269930839538574,-1.0721683502197266
1701979948168508700,18.8945087890625,0.39480656385421753,-4.762718200683594,-1.0803985595703125
1701979948185494800,18.911494873046873,1.0441018342971802,-5.104560852050781,-1.1983489990234375
1701979948202489300,18.9284892578125,1.709324598312378,-5.209385395050049,-1.0095539093017578
1701979948219480000,18.94547998046875,1.3832430839538574,-5.166293621063232,-0.3569211959838867
1701979948236472300,18.962472412109374,0.3280763328075409,-5.47243595123291,0.6159076690673828
1701979948253464800,18.97946484375,-0.22109133005142212,-6.620873928070068,0.9331445693969727
1701979948270452700,18.99645263671875,1.2034262418746948,-6.998054504394531,0.2676715850830078
1701979948287453000,19.013452880859376,1.4340533018112183,-6.603229999542236,0.559661865234375
1701979948304442400,19.0304423828125,-0.6106193661689758,-6.761085510253906,2.4013099670410156
1701979948321432800,19.047432861328126,-3.634542942047119,-6.974819183349609,3.836897850036621
1701979948338424800,19.0644248046875,-4.227319240570068,-7.1726298332214355,2.791754722595215
1701979948355415600,19.08141552734375,-1.9782090187072754,-6.3864545822143555,2.700619697570801
1701979948372407600,19.098407470703126,0.09187613427639008,-6.0521440505981445,4.107453346252441
1701979948389398000,19.11539794921875,1.187716007232666,-4.9656267166137695,5.9337568283081055
1701979948406379300,19.132379150390626,-0.07112982869148254,-5.157437801361084,7.076387405395508
1701979948423363300,19.14936328125,-1.8010666370391846,-5.720685005187988,5.942234992980957
1701979948440372200,19.166372314453124,-2.2618839740753174,-6.14279317855835,3.776470184326172
1701979948457363500,19.183363525390625,-1.0882664918899536,-6.34094762802124,1.7825431823730469
1701979948474355000,19.20035498046875,0.3147653639316559,-6.351678371429443,0.8261070251464844
1701979948491345700,19.217345703125,0.8639181852340698,-6.017327308654785,1.0645923614501953
1701979948508335000,19.234335205078125,0.23906178772449493,-5.638482570648193,1.5920705795288086
1701979948525330700,19.25133056640625,-0.8275196552276611,-5.292788505554199,2.239990234375
1701979948542319900,19.26831982421875,-2.8342061042785645,-5.373518943786621,2.438364028930664
1701979948559300000,19.285300048828127,-3.493100643157959,-5.387482643127441,0.8384103775024414
1701979948576302600,19.302302490234375,-2.457552909851074,-5.324504375457764,-0.5529356002807617
1701979948593293300,19.319293212890624,-0.6144392490386963,-4.872664451599121,-1.6051454544067383
1701979948610284800,19.336284912109374,0.8631886839866638,-4.66707706451416,-1.5672931671142578
1701979948627274500,19.3532744140625,1.0158027410507202,-4.476221084594727,-0.19730854034423828
1701979948644268800,19.370268798828125,0.24282540380954742,-4.28028678894043,0.7332477569580078
1701979948661270800,19.387270751953125,-0.5282501578330994,-3.8172292709350586,0.16114139556884766
1701979948678250000,19.40425,-0.7281498312950134,-3.465851306915283,-0.8694524765014648
1701979948695240700,19.42124072265625,-0.21337193250656128,-3.1964364051818848,-1.8513908386230469
1701979948712232700,19.438232666015626,0.610493540763855,-3.247223377227783,-2.5545830726623535
1701979948729223400,19.455223388671875,1.7746708393096924,-3.049342632293701,-2.8443846702575684
1701979948746215200,19.472215087890625,2.3208768367767334,-2.8181509971618652,-2.0996899604797363
1701979948763206000,19.489205810546874,1.9099891185760498,-2.5255894660949707,-0.9835739135742188
1701979948780197600,19.50619775390625,1.139136552810669,-2.3209097385406494,-0.8020639419555664
1701979948797188400,19.523188232421877,0.5865709781646729,-1.96645188331604,-1.860008716583252
1701979948814180000,19.54018017578125,0.5627740621566772,-1.7444603443145752,-2.854621410369873
1701979948831166500,19.55716650390625,1.0352234840393066,-1.4990856647491455,-3.278181552886963
1701979948848169200,19.574169189453126,1.615975260734558,-1.4156949520111084,-3.0753726959228516
1701979948865151500,19.5911513671875,1.9948198795318604,-1.3744759559631348,-2.217839241027832
1701979948882145300,19.608145263671876,2.1579413414001465,-1.2811954021453857,-1.503091812133789
1701979948899136000,19.625135986328125,2.3370625972747803,-0.9570724964141846,-1.894810676574707
1701979948916127700,19.642127685546875,2.7722034454345703,-0.5240819454193115,-2.479971408843994
1701979948933118200,19.6591181640625,2.5638723373413086,-0.1242220401763916,-2.532954692840576
1701979948950097700,19.67609765625,2.2084810733795166,0.22616076469421387,-1.9937915802001953
1701979948967098400,19.693098388671874,1.5411837100982666,0.587073802947998,-0.6276836395263672
1701979948984092700,19.7100927734375,1.0727112293243408,0.9590182304382324,0.7890329360961914
1701979949001083400,19.72708349609375,1.0672378540039062,1.4903228282928467,1.328439712524414
1701979949018075100,19.7440751953125,1.1143213510513306,1.6525273323059082,1.639643669128418
1701979949035055400,19.761055419921874,1.579056739807129,1.6794512271881104,1.3382806777954102
1701979949052057900,19.778057861328126,1.7411024570465088,1.5810699462890625,1.0731229782104492
1701979949069048300,19.79504833984375,1.973129153251648,1.1901946067810059,1.1026506423950195
1701979949086040000,19.8120400390625,2.4233477115631104,1.2028460502624512,0.8215680122375488
1701979949103030800,19.82903076171875,3.0144524574279785,1.435251235961914,0.7095251083374023
1701979949120012000,19.846011962890625,3.2670481204986572,1.9233264923095703,0.7021422386169434
1701979949137011700,19.86301171875,3.2278835773468018,2.082564115524292,1.1059718132019043
1701979949154007000,19.880007080078126,2.7669312953948975,1.886087417602539,1.7792024612426758
1701979949170996200,19.896996337890624,2.556936502456665,1.5644774436950684,1.9954113960266113
1701979949187987700,19.91398779296875,2.9776852130889893,1.7474684715270996,1.8594555854797363
1701979949204978400,19.930978515625,3.624915361404419,1.9961223602294922,1.9801688194274902
1701979949221970400,19.947970458984376,3.997025966644287,2.009420871734619,2.262092113494873
1701979949238961400,19.96496142578125,3.9459967613220215,2.003044605255127,2.827483654022217
1701979949255953000,19.981952880859374,3.51785945892334,1.7959599494934082,3.0558724403381348
1701979949272943600,19.998943603515624,3.1556222438812256,1.4339094161987305,3.153834342956543
1701979949289934000,20.01593408203125,2.6639018058776855,1.0786466598510742,3.2840018272399902
1701979949306928600,20.0329287109375,1.9220659732818604,1.3187031745910645,2.9967422485351562
1701979949323916800,20.049916748046876,0.8847193717956543,1.830578327178955,3.3035483360290527
1701979949340908800,20.06690869140625,0.040669918060302734,2.6420016288757324,3.667971611022949
1701979949357900500,20.083900634765627,0.27784037590026855,2.666515350341797,4.179636478424072
1701979949374896000,20.100896240234373,1.377709984779358,2.287322998046875,4.448881149291992
1701979949391880400,20.11788037109375,3.2168118953704834,2.478954792022705,3.538054943084717
1701979949408876500,20.13487646484375,3.695204257965088,2.783008098602295,2.2683897018432617
1701979949425865700,20.15186572265625,2.856588363647461,3.1921963691711426,1.8642492294311523
1701979949442856400,20.1688564453125,0.922607421875,2.8464879989624023,2.3504300117492676
1701979949459848000,20.185847900390623,0.9472163915634155,2.300175666809082,3.178989887237549
1701979949476839000,20.2028388671875,2.4851326942443848,2.5285139083862305,3.8484253883361816
1701979949493820000,20.21981982421875,2.7306747436523438,2.263101577758789,5.395472049713135
1701979949510818600,20.236818603515626,2.1789252758026123,2.07979154586792,5.518514156341553
1701979949527815400,20.2538154296875,1.1797409057617188,2.1801857948303223,4.475564956665039
1701979949544803800,20.270803955078126,-0.01188206672668457,2.7039999961853027,3.3036556243896484
1701979949561795800,20.2877958984375,-1.6654807329177856,2.896389961242676,3.2244248390197754
1701979949578786600,20.30478662109375,-3.0177011489868164,2.9118595123291016,3.8245792388916016
1701979949595778000,20.321778076171874,-3.849989414215088,2.603087902069092,4.822350025177002
1701979949612756000,20.338755859375,-3.7252345085144043,2.6292881965637207,4.476521968841553
1701979949629760800,20.3557607421875,-3.2185137271881104,3.0220284461975098,3.3018555641174316
1701979949646751200,20.372751220703126,-2.8105735778808594,2.8879733085632324,2.8290843963623047
1701979949663743000,20.389742919921876,-2.631676197052002,2.706852436065674,2.4141974449157715
1701979949680721400,20.406721435546874,-1.7297515869140625,2.5274558067321777,2.5179553031921387
1701979949697716500,20.423716552734376,-0.789487898349762,2.2133278846740723,2.8496670722961426
1701979949714705200,20.440705078125,0.3446353077888489,2.4201979637145996,2.891958236694336
1701979949731698200,20.4576982421875,0.9087762236595154,2.4453964233398438,2.9943041801452637
1701979949748689000,20.47468896484375,0.7274483442306519,2.374133586883545,3.1143651008605957
1701979949765681000,20.491680908203126,0.4813504219055176,2.039674758911133,2.695547580718994
1701979949782673400,20.50867333984375,0.31491971015930176,1.6317729949951172,1.7811036109924316
1701979949799666200,20.525666259765625,1.3115648031234741,1.5190305709838867,1.0211381912231445
1701979949816656100,20.54265625,2.306182861328125,1.2812957763671875,1.3173494338989258
1701979949833644800,20.559644775390623,2.822260856628418,1.0753202438354492,2.450526237487793
1701979949850637600,20.576637451171877,2.6218466758728027,0.6163530349731445,2.987765312194824
1701979949867629300,20.59362939453125,2.656878709793091,0.1634988784790039,1.779088020324707
1701979949884620800,20.610620849609376,2.919597625732422,-0.027469158172607422,0.2757425308227539
1701979949901614000,20.627614013671874,3.0005712509155273,0.006613254547119141,-0.5134124755859375
1701979949918613500,20.644613525390625,2.6179423332214355,-0.09675931930541992,-0.27239322662353516
1701979949935592200,20.66159228515625,2.042461633682251,-0.2726144790649414,-0.03375053405761719
1701979949952594200,20.67859423828125,1.654502034187317,-0.47565436363220215,-0.29956817626953125
1701979949969581600,20.69558154296875,1.715989112854004,-0.5992825031280518,-0.8490610122680664
1701979949986581000,20.7125810546875,1.8406816720962524,-0.5898952484130859,-1.1228408813476562
1701979950003568400,20.729568359375,1.9294806718826294,-0.6989860534667969,-0.6174612045288086
1701979950020559000,20.74655908203125,2.028371810913086,-0.8110237121582031,0.1312093734741211
1701979950037551000,20.763551025390626,2.1412758827209473,-1.081578254699707,0.5002918243408203
1701979950054541600,20.78054150390625,2.361290216445923,-1.1222074031829834,0.10564136505126953
1701979950071533600,20.797533447265625,2.0767369270324707,-1.4355896711349487,-0.7165050506591797
1701979950088524300,20.814524169921874,1.710688591003418,-1.6424089670181274,-1.6621932983398438
1701979950105516300,20.831516357421876,1.4777735471725464,-1.880810022354126,-2.3149008750915527
1701979950122507000,20.848507080078125,1.4526675939559937,-1.992824912071228,-2.5366716384887695
1701979950139498500,20.86549853515625,1.588210940361023,-2.2508726119995117,-2.5265159606933594
1701979950156481500,20.8824814453125,1.8133082389831543,-2.4351487159729004,-2.806692123413086
1701979950173481000,20.89948095703125,1.8464291095733643,-2.8009250164031982,-3.2024316787719727
1701979950190472000,20.916471923828126,1.573961615562439,-3.115185260772705,-3.4283499717712402
1701979950207463400,20.93346337890625,1.203824758529663,-3.2174272537231445,-3.437117576599121
1701979950224454400,20.950454345703125,0.7285342216491699,-3.3061559200286865,-2.897395610809326
1701979950241453600,20.96745361328125,0.759231448173523,-3.3793587684631348,-1.9762463569641113
1701979950258436900,20.984436767578124,1.011041522026062,-3.3545663356781006,-1.1230154037475586
1701979950275428600,21.0014287109375,1.2319811582565308,-3.4828805923461914,-0.6710062026977539
1701979950292419300,21.01841943359375,1.4063440561294556,-3.514577627182007,-0.7060985565185547
1701979950309411000,21.0354111328125,0.9665108919143677,-3.572866916656494,-0.7259654998779297
1701979950326403300,21.0524033203125,0.20056448876857758,-3.58522629737854,-0.37066650390625
1701979950343392500,21.069392578125,-0.7330371737480164,-4.0586018562316895,0.4450531005859375
1701979950360384300,21.08638427734375,-1.364009141921997,-5.0800251960754395,1.1277074813842773
1701979950377380000,21.103380126953127,-0.8180538415908813,-5.583596706390381,0.6599540710449219
1701979950394355500,21.12035546875,0.616983950138092,-5.483551502227783,-0.12370967864990234
1701979950411347200,21.13734716796875,1.307512879371643,-5.85706090927124,-0.11273670196533203
1701979950428340200,21.15434033203125,1.3071181774139404,-6.385843276977539,0.20526885986328125
1701979950445341200,21.171341064453124,0.6244800686836243,-6.84036922454834,0.779179573059082
1701979950462316300,21.18831640625,0.03769354522228241,-6.272319316864014,1.4158134460449219
1701979950479324000,21.205323974609374,-1.0416808128356934,-5.74193000793457,3.4892988204956055
1701979950496314600,21.222314697265624,-1.7622913122177124,-5.380395889282227,5.274828910827637
1701979950513306600,21.239306640625,-1.2532793283462524,-5.189488887786865,4.863042831420898
1701979950530297000,21.256297119140626,-1.203257441520691,-5.135067939758301,3.5799522399902344
1701979950547288800,21.273288818359376,-1.1666233539581299,-5.331504821777344,2.766559600830078
1701979950564280300,21.2902802734375,-0.6760784387588501,-5.215241432189941,2.918233871459961
1701979950581268000,21.30726806640625,-0.3632357120513916,-5.513405799865723,3.0669631958007812
1701979950598264800,21.324264892578125,-0.16947197914123535,-5.694563865661621,2.957195281982422
1701979950615254000,21.34125390625,0.44675979018211365,-5.702911376953125,1.8337574005126953
1701979950632244500,21.358244384765626,0.663886308670044,-5.703076362609863,1.0575428009033203
1701979950649232600,21.375232666015624,0.9123576283454895,-5.642451286315918,0.870387077331543
1701979950666231000,21.39223095703125,0.4952733516693115,-5.310756206512451,1.2320213317871094
1701979950683219000,21.409218994140623,-0.2621889114379883,-5.059782028198242,1.5869054794311523
1701979950700210000,21.4262099609375,-0.4964219927787781,-4.742617130279541,1.327423095703125
1701979950717201200,21.443201171875,-0.27237367630004883,-4.3383588790893555,0.8565559387207031
1701979950734193000,21.46019287109375,0.06717942655086517,-3.932133674621582,0.6092739105224609
1701979950751184000,21.477183837890625,-0.031493961811065674,-3.835498571395874,0.3670644760131836
1701979950768174600,21.494174560546874,-0.5871137380599976,-3.6474452018737793,-0.04967212677001953
1701979950785166300,21.511166259765623,-0.9862101078033447,-3.261566638946533,-0.4164419174194336
1701979950802157300,21.5281572265625,-0.9025325179100037,-2.914806604385376,-0.8020086288452148
1701979950819149000,21.545149169921874,-0.4246557652950287,-2.6519346237182617,-1.066756248474121
