time,seconds_elapsed,z,y,x
1702061334098498800,0.196498779296875,-0.012688159942626953,-2.8336148262023926,-1.354845404624939
1702061334115497700,0.213497802734375,-0.9604134559631348,-3.5343775749206543,-1.190577745437622
1702061334132493300,0.230493408203125,-2.0105795860290527,-4.044267177581787,-0.7232940793037415
1702061334149483300,0.247483154296875,-3.497981071472168,-4.8216753005981445,-0.884722888469696
1702061334166480100,0.264480224609375,-4.6570539474487305,-5.543949604034424,-0.4575382471084595
1702061334183474000,0.281473876953125,-3.881002902984619,-6.311601638793945,-0.8366882801055908
1702061334200469200,0.29846923828125,-2.3153791427612305,-5.812250137329102,-1.2581546306610107
1702061334217466600,0.315466552734375,-1.3942105770111084,-5.316084861755371,-0.5834240913391113
1702061334234455300,0.332455322265625,-1.0965008735656738,-5.688735008239746,0.821922779083252
1702061334251451400,0.349451416015625,-1.8210554122924805,-5.864346504211426,1.7607741355895996
1702061334268441300,0.36644140625,-2.0180506706237793,-5.779451370239258,1.815537452697754
1702061334285437700,0.383437744140625,-1.232095718383789,-5.5268754959106445,1.3880901336669922
1702061334302433000,0.40043310546875,-0.7601959705352783,-4.849293231964111,0.7382936477661133
1702061334319419000,0.4174189453125,-0.7972948551177979,-4.442022800445557,1.0477962493896484
1702061334336422100,0.434422119140625,-0.9305250644683838,-3.9734745025634766,2.167379856109619
1702061334353411800,0.451411865234375,-0.4883749485015869,-3.973397731781006,3.2790017127990723
1702061334370413300,0.468413330078125,0.3917837142944336,-4.0735626220703125,3.7566137313842773
1702061334387392300,0.485392333984375,1.6615848541259766,-3.7503905296325684,3.4210662841796875
1702061334404385000,0.502385009765625,2.0225729942321777,-3.283728837966919,2.7735376358032227
1702061334421387300,0.51938720703125,1.5386147499084473,-3.2743771076202393,2.781315803527832
1702061334438384000,0.536384033203125,0.9695756435394287,-3.2630386352539062,2.53183650970459
1702061334455378200,0.553378173828125,0.47765541076660156,-3.221538782119751,1.905440330505371
1702061334472377000,0.570377197265625,0.2942934036254883,-3.2776761054992676,1.103928565979004
1702061334489364700,0.58736474609375,0.37442898750305176,-3.368321657180786,0.5240554809570312
1702061334506361000,0.604361083984375,0.6703321933746338,-3.530228853225708,0.3671903610229492
1702061334523354400,0.621354248046875,0.9256246089935303,-3.7787904739379883,0.7546367645263672
1702061334540339000,0.6383388671875,1.2143583297729492,-3.891199827194214,0.9290180206298828
1702061334557339400,0.65533935546875,1.3218591213226318,-3.929750680923462,0.5774478912353516
1702061334574335200,0.672335205078125,0.8910033702850342,-4.169275283813477,0.3355379104614258
1702061334591331800,0.689331787109375,0.1255577802658081,-4.383697509765625,0.40458106994628906
1702061334608328000,0.706327880859375,-0.38011372089385986,-4.334319114685059,0.28339576721191406
1702061334625317600,0.723317626953125,-0.0819467306137085,-4.009035110473633,0.009870529174804688
1702061334642313000,0.74031298828125,0.7282308340072632,-3.521683692932129,-0.20927047729492188
1702061334659298600,0.757298583984375,1.437373161315918,-3.097527027130127,-0.3314065933227539
1702061334676300500,0.774300537109375,1.8349289894104004,-2.8574626445770264,-0.5670175552368164
1702061334693293600,0.79129345703125,1.7972415685653687,-2.941378593444824,-1.088170051574707
1702061334710289200,0.8082890625,1.9091417789459229,-3.286550998687744,-2.2185797691345215
1702061334727281000,0.825281005859375,2.346188545227051,-4.009683132171631,-2.686234474182129
1702061334744275700,0.842275634765625,2.886951446533203,-4.870870590209961,-1.7265825271606445
1702061334761272300,0.859272216796875,2.6995291709899902,-5.24658203125,-0.8893051147460938
1702061334778260700,0.8762607421875,2.339888095855713,-5.4375176429748535,-0.913604736328125
1702061334795257900,0.8932578125,2.708512783050537,-5.785669803619385,-1.4841909408569336
1702061334812253200,0.910253173828125,2.6446192264556885,-5.6854777336120605,-1.9301996231079102
1702061334829238800,0.92723876953125,2.0292000770568848,-6.205527305603027,-1.5672149658203125
1702061334846244400,0.944244384765625,1.167093276977539,-7.029616832733154,-0.41744041442871094
1702061334863229400,0.9612294921875,0.07151469588279724,-7.413156032562256,0.4682178497314453
1702061334880229000,0.97822900390625,-0.41673558950424194,-7.416917324066162,0.5939044952392578
1702061334897218000,0.995218017578125,-0.029093295335769653,-7.208078384399414,0.8010711669921875
1702061334914216200,1.01221630859375,0.546128511428833,-7.381875038146973,0.8238353729248047
1702061334931201000,1.029200927734375,0.6995406150817871,-7.509255409240723,0.5039224624633789
1702061334948201000,1.046200927734375,-0.02728348597884178,-7.370120525360107,0.01638317108154297
1702061334965197600,1.063197509765625,-0.8683263659477234,-7.2795329093933105,-0.5721473693847656
1702061334982193200,1.080193115234375,-1.2865347862243652,-7.470241546630859,-0.5399723052978516
1702061334999177700,1.097177734375,-0.7167149186134338,-8.12333869934082,0.7228851318359375
1702061335016180500,1.114180419921875,0.5468493700027466,-9.037209510803223,2.2794189453125
1702061335033173200,1.13117333984375,1.022599458694458,-9.780977249145508,3.4249343872070312
1702061335050169300,1.14816943359375,1.6662490367889404,-10.027508735656738,3.7782020568847656
1702061335067158500,1.165158447265625,1.8358274698257446,-10.242578506469727,3.8682050704956055
1702061335084157400,1.182157470703125,0.897700309753418,-10.947887420654297,3.7923412322998047
1702061335101140700,1.199140625,0.5546513795852661,-11.49150562286377,3.0597686767578125
1702061335118138400,1.216138427734375,1.2291761636734009,-11.834769248962402,1.3354902267456055
1702061335135138600,1.233138671875,2.6781749725341797,-11.472334861755371,-0.656764030456543
1702061335152134000,1.2501337890625,2.990171194076538,-11.179750442504883,-1.557875633239746
1702061335169123600,1.26712353515625,2.4482645988464355,-11.279034614562988,-0.9807443618774414
1702061335186120700,1.28412060546875,1.504635214805603,-11.31077766418457,-0.0033893585205078125
1702061335203112700,1.30111279296875,1.0203207731246948,-11.174671173095703,0.13864421844482422
1702061335220104400,1.3181044921875,0.860986590385437,-10.64651107788086,-0.5838260650634766
1702061335237103400,1.335103271484375,0.8376044034957886,-10.589847564697266,-1.1643409729003906
1702061335254102300,1.352102294921875,1.2532007694244385,-10.812640190124512,-1.2007827758789062
1702061335271089000,1.3690888671875,1.8427766561508179,-11.049334526062012,-0.7459115982055664
1702061335288082000,1.38608203125,2.1342592239379883,-10.718766212463379,-0.506617546081543
1702061335305075000,1.403074951171875,2.448580265045166,-9.498566627502441,-1.1310062408447266
1702061335322070000,1.420070068359375,2.621307611465454,-8.747302055358887,-1.7583389282226562
1702061335339064300,1.437064208984375,2.604517936706543,-8.695149421691895,-1.9372587203979492
1702061335356059600,1.4540595703125,2.3531229496002197,-8.767906188964844,-1.9609012603759766
1702061335373058300,1.471058349609375,2.5111989974975586,-8.462629318237305,-2.2510251998901367
1702061335390038500,1.48803857421875,3.1561949253082275,-7.400720596313477,-2.557842254638672
1702061335407043300,1.505043212890625,3.256579637527466,-6.281214237213135,-2.319952964782715
1702061335424035600,1.52203564453125,2.645014762878418,-5.824909687042236,-1.9589452743530273
1702061335441031000,1.539031005859375,2.045799493789673,-5.5512285232543945,-1.9945697784423828
1702061335458020600,1.5560205078125,1.779855728149414,-5.219235420227051,-2.483828544616699
1702061335475019500,1.57301953125,1.8494970798492432,-4.921763896942139,-3.0405139923095703
1702061335492012800,1.5900126953125,2.189244508743286,-4.611541271209717,-3.2226486206054688
1702061335509000400,1.60700048828125,2.5011377334594727,-4.377567291259766,-2.8210268020629883
1702061335526002400,1.62400244140625,3.089796543121338,-4.3155598640441895,-2.581024169921875
1702061335542983200,1.640983154296875,3.2000575065612793,-4.111537933349609,-2.594827651977539
1702061335559985700,1.657985595703125,3.1733500957489014,-3.991459846496582,-2.762120246887207
1702061335576982000,1.67498193359375,3.5737273693084717,-4.186042785644531,-2.777867317199707
1702061335593967600,1.691967529296875,4.221004486083984,-4.018280029296875,-2.8133554458618164
1702061335610971000,1.708970947265625,4.549736499786377,-3.855086326599121,-2.581449508666992
1702061335627961300,1.72596142578125,4.406830787658691,-3.741403102874756,-2.276266098022461
1702061335644957400,1.74295751953125,4.195117950439453,-3.4523229598999023,-2.4182968139648438
1702061335661949700,1.75994970703125,3.9842758178710938,-3.086982250213623,-3.0267887115478516
1702061335678946000,1.776946044921875,3.9474380016326904,-2.7692501544952393,-3.557476043701172
1702061335695940400,1.7939404296875,3.9587981700897217,-2.3647871017456055,-3.8658828735351562
1702061335712933000,1.81093310546875,3.557965040206909,-2.2580692768096924,-3.563532829284668
1702061335729925400,1.82792529296875,3.090953826904297,-2.3476102352142334,-3.0042247772216797
1702061335746912800,1.844912841796875,3.020658493041992,-2.223875045776367,-2.80161190032959
1702061335763915300,1.861915283203125,3.184391975402832,-2.095606803894043,-3.0952095985412598
1702061335780898000,1.87889794921875,3.594362497329712,-1.8680899143218994,-3.584075927734375
1702061335797903000,1.895903076171875,3.8612523078918457,-1.5681793689727783,-3.8799877166748047
1702061335814885600,1.9128857421875,3.6236932277679443,-1.8178441524505615,-3.221437931060791
1702061335831890400,1.929890380859375,2.7845447063446045,-1.8440160751342773,-2.368208885192871
1702061335848885500,1.946885498046875,1.9812037944793701,-1.6892433166503906,-1.830352783203125
1702061335865884200,1.96388427734375,1.5771582126617432,-1.5645418167114258,-1.48809814453125
1702061335882873300,1.980873291015625,1.339322566986084,-1.8713574409484863,-0.8185510635375977
1702061335899861500,1.997861572265625,1.1142826080322266,-2.3251266479492188,-0.14557170867919922
1702061335916862000,2.014862060546875,0.5939619541168213,-2.355238914489746,0.4813270568847656
1702061335933855000,2.03185498046875,0.2138301581144333,-1.813201904296875,1.2545242309570312
1702061335950848500,2.0488486328125,-0.5853619575500488,-1.109785556793213,2.1183152198791504
1702061335967842800,2.0658427734375,-2.110260486602783,-1.0318636894226074,3.4105443954467773
1702061335984819500,2.0828193359375,-3.768761157989502,-1.1802701950073242,4.141363620758057
1702061336001831700,2.099831787109375,-4.507930755615234,-1.023533821105957,2.9591498374938965
1702061336018823000,2.116822998046875,-4.629465579986572,-0.456235408782959,1.038945198059082
1702061336035820300,2.1338203125,-4.509433746337891,-0.05053424835205078,0.3172473907470703
1702061336052813000,2.15081298828125,-4.295691013336182,0.2618527412414551,0.4531378746032715
1702061336069805600,2.1678056640625,-4.3902177810668945,0.5821728706359863,0.47512340545654297
1702061336086802000,2.184802001953125,-4.529299736022949,1.0498504638671875,0.7768998146057129
1702061336103795000,2.201794921875,-4.088283538818359,1.618086814880371,1.0938167572021484
1702061336120790500,2.21879052734375,-3.539026975631714,2.0234389305114746,1.543869972229004
1702061336137780200,2.2357802734375,-3.2783539295196533,2.1193580627441406,2.7191109657287598
1702061336154772500,2.2527724609375,-3.327760934829712,2.4704761505126953,3.814178466796875
1702061336171762700,2.2697626953125,-3.9031386375427246,2.8860554695129395,4.359838485717773
1702061336188762600,2.2867626953125,-4.71732759475708,3.1265463829040527,4.189941883087158
1702061336205759200,2.30375927734375,-5.187573432922363,3.005464553833008,3.4172897338867188
1702061336222754800,2.3207548828125,-4.743190288543701,2.8932886123657227,2.5667009353637695
1702061336239744500,2.33774462890625,-3.768915891647339,2.600529193878174,2.3067736625671387
1702061336256739300,2.3547392578125,-2.6483511924743652,2.1813244819641113,2.7658114433288574
1702061336273737200,2.3717373046875,-1.9670217037200928,1.9187722206115723,3.4490699768066406
1702061336290731300,2.388731201171875,-1.436772108078003,1.737173080444336,3.6726112365722656
1702061336307720700,2.405720703125,-0.8817667961120605,1.4706807136535645,3.1058616638183594
1702061336324717000,2.422717041015625,0.0045569539070129395,0.7920103073120117,2.37612247467041
1702061336341699300,2.43969921875,0.9308985471725464,0.16113853454589844,1.5177960395812988
1702061336358705400,2.456705322265625,2.01592755317688,-0.19573974609375,0.8948702812194824
1702061336375697200,2.473697265625,2.448531150817871,-0.38034486770629883,0.7770962715148926
1702061336392695800,2.49069580078125,2.543159008026123,-0.4278988838195801,0.7762761116027832
1702061336409684200,2.507684326171875,2.370129346847534,-0.7731213569641113,0.7351593971252441
1702061336426682000,2.52468212890625,1.8945016860961914,-1.3455939292907715,0.24074745178222656
1702061336443675000,2.5416748046875,1.5266159772872925,-1.860398292541504,-0.6161651611328125
1702061336460670500,2.55867041015625,1.8408550024032593,-2.1891660690307617,-1.5845413208007812
1702061336477660200,2.57566015625,2.9949584007263184,-2.091649055480957,-1.9190940856933594
1702061336494657000,2.592656982421875,3.604569673538208,-1.8915596008300781,-1.8115310668945312
1702061336511652600,2.609652587890625,3.6079659461975098,-2.240042209625244,-1.1443510055541992
1702061336528642600,2.626642578125,3.2867605686187744,-2.772226095199585,-0.726170539855957
1702061336545638700,2.643638671875,3.287569046020508,-2.8289966583251953,-1.030684471130371
1702061336562624500,2.66062451171875,3.358861207962036,-2.821775436401367,-1.3451318740844727
1702061336579624400,2.67762451171875,3.2987661361694336,-3.140810489654541,-1.4445457458496094
1702061336596621800,2.694621826171875,3.2662546634674072,-3.891383409500122,-1.2610034942626953
1702061336613614600,2.711614501953125,4.032589912414551,-4.394843101501465,-1.2594423294067383
1702061336630611000,2.72861083984375,4.7223286628723145,-4.665679931640625,-1.371321678161621
1702061336647600600,2.7456005859375,4.875706195831299,-4.933717727661133,-1.691518783569336
1702061336664597000,2.762596923828125,4.995920658111572,-5.208193778991699,-2.6189398765563965
1702061336681592300,2.77959228515625,5.268294334411621,-5.550004482269287,-3.3401527404785156
1702061336698582500,2.79658251953125,5.36049747467041,-5.904325008392334,-3.7555665969848633
1702061336715584000,2.813583984375,5.121523380279541,-6.197946548461914,-3.5547757148742676
1702061336732574500,2.830574462890625,4.413572311401367,-6.2554426193237305,-3.225358009338379
1702061336749564200,2.847564208984375,3.6850147247314453,-6.216902256011963,-3.15217924118042
1702061336766561800,2.864561767578125,3.1460089683532715,-6.369502544403076,-3.262068748474121
1702061336783554800,2.881554931640625,2.8767876625061035,-6.754059791564941,-3.4801182746887207
1702061336800550700,2.898550537109375,2.951843738555908,-7.281057357788086,-3.6351757049560547
1702061336817547300,2.91554736328125,2.974076509475708,-7.416679859161377,-3.695103645324707
1702061336834537000,2.932536865234375,3.1393544673919678,-7.020683765411377,-3.5086002349853516
1702061336851531000,2.949531005859375,3.3225107192993164,-6.994362831115723,-2.9912428855895996
1702061336868523800,2.966523681640625,3.336907148361206,-7.242989540100098,-2.4397964477539062
1702061336885518600,2.9835185546875,3.0045175552368164,-7.578921794891357,-2.233414649963379
1702061336902514700,3.0005146484375,2.682387590408325,-7.4741902351379395,-2.729524612426758
1702061336919504400,3.01750439453125,2.208608865737915,-7.293493270874023,-3.4248228073120117
1702061336936501500,3.03450146484375,1.4336401224136353,-7.448907375335693,-3.6966071128845215
1702061336953491500,3.051491455078125,1.1573742628097534,-7.776973724365234,-3.394597053527832
1702061336970490600,3.06849072265625,0.937629222869873,-8.556842803955078,-2.851365089416504
1702061336987480300,3.085480224609375,0.9395384192466736,-9.411920547485352,-2.621034622192383
1702061337004467500,3.102467529296875,0.9659889340400696,-9.900938987731934,-2.498138427734375
1702061337021471200,3.11947119140625,0.8745197057723999,-10.040329933166504,-2.228236198425293
1702061337038461700,3.136461669921875,0.45205384492874146,-9.821368217468262,-1.7359275817871094
1702061337055464000,3.1534638671875,-0.5135164260864258,-9.877135276794434,-1.3016672134399414
1702061337072453600,3.17045361328125,-0.8988286852836609,-9.75110149383545,-1.3931455612182617
1702061337089435400,3.187435302734375,-0.5718293786048889,-9.609199523925781,-1.4592714309692383
1702061337106443500,3.204443603515625,-0.19449245929718018,-8.829965591430664,-1.4085159301757812
1702061337123434000,3.22143408203125,-0.06498277187347412,-9.278841972351074,-0.8865671157836914
1702061337140429600,3.2384296875,0.4536111652851105,-9.621648788452148,-0.33545494079589844
1702061337157423000,3.255423095703125,1.1703660488128662,-8.905784606933594,0.09305191040039062
1702061337174417700,3.272417724609375,1.3469715118408203,-9.257467269897461,0.9687204360961914
1702061337191402000,3.289402099609375,0.441488653421402,-10.295062065124512,1.3799161911010742
1702061337208407800,3.30640771484375,-0.41071897745132446,-9.919450759887695,0.3105030059814453
1702061337225399300,3.3233994140625,-0.9305745959281921,-9.87863826751709,-0.19188785552978516
1702061337242393900,3.340393798828125,-0.456800639629364,-9.446748733520508,-0.09412574768066406
1702061337259387600,3.3573876953125,-0.20494192838668823,-9.38717269897461,0.27857494354248047
1702061337276373800,3.374373779296875,-0.166362464427948,-9.513712882995605,0.26904869079589844
1702061337293375200,3.391375244140625,0.2022114396095276,-9.773476600646973,-0.19855308532714844
1702061337310367200,3.4083671875,1.1788873672485352,-10.525788307189941,-0.4945650100708008
1702061337327366000,3.425365966796875,1.5331239700317383,-11.343361854553223,-0.48007774353027344
1702061337344363000,3.442363037109375,0.8545535802841187,-11.286917686462402,-0.5440702438354492
1702061337361351200,3.45935107421875,0.18766674399375916,-10.448413848876953,-1.1120004653930664
1702061337378345700,3.476345703125,-0.27432915568351746,-9.717734336853027,-1.3206396102905273
1702061337395339500,3.493339599609375,-0.45746728777885437,-9.576638221740723,-0.9662485122680664
1702061337412333600,3.51033349609375,-0.36489441990852356,-9.965217590332031,-0.5029335021972656
1702061337429327000,3.5273271484375,0.06617932766675949,-10.368563652038574,-0.7535572052001953
1702061337446321700,3.54432177734375,0.681333065032959,-10.10039234161377,-1.665980339050293
1702061337463304400,3.561304443359375,0.9943272471427917,-9.179119110107422,-2.761322498321533
1702061337480311600,3.5783115234375,0.9289667010307312,-8.541494369506836,-2.8861560821533203
1702061337497309700,3.595309814453125,0.4768564701080322,-8.087618827819824,-2.977189064025879
1702061337514297600,3.612297607421875,0.37494784593582153,-8.20274543762207,-3.228219985961914
1702061337531291600,3.629291748046875,1.1067354679107666,-7.8069748878479,-3.980563163757324
1702061337548275000,3.64627490234375,2.1630306243896484,-7.096098899841309,-4.729903221130371
1702061337565278000,3.66327783203125,2.4851813316345215,-6.270689010620117,-5.399073600769043
1702061337582270700,3.680270751953125,1.8303717374801636,-5.486191749572754,-5.727287292480469
1702061337599271200,3.697271240234375,0.7309279441833496,-5.289092540740967,-5.175887107849121
1702061337616261600,3.71426171875,0.4526592493057251,-5.186429023742676,-4.350594520568848
1702061337633255000,3.7312548828125,0.7599655985832214,-4.756762981414795,-4.060216903686523
1702061337650249500,3.74824951171875,1.3531665802001953,-4.256624221801758,-4.071036338806152
1702061337667243500,3.765243408203125,1.9586963653564453,-3.9847288131713867,-4.234610557556152
1702061337684237300,3.7822373046875,2.2369797229766846,-3.826274871826172,-4.102063179016113
1702061337701228300,3.799228271484375,2.1232666969299316,-3.9147915840148926,-3.237335205078125
1702061337718228000,3.81622802734375,2.0903122425079346,-3.9263956546783447,-2.306736946105957
1702061337735202300,3.833202392578125,2.401974678039551,-3.9362831115722656,-1.7883024215698242
1702061337752215600,3.850215576171875,2.8877530097961426,-3.739622116088867,-1.9014320373535156
1702061337769207000,3.86720703125,3.509343147277832,-3.5330731868743896,-2.1720361709594727
1702061337786201300,3.884201416015625,4.100827217102051,-3.4602248668670654,-2.1814794540405273
1702061337803195100,3.901195068359375,4.547128200531006,-3.537808656692505,-1.927107810974121
1702061337820189200,3.918189208984375,4.76076602935791,-3.587106704711914,-1.3852033615112305
1702061337837172200,3.935172119140625,4.956673622131348,-3.187005043029785,-1.145700454711914
1702061337854177300,3.95217724609375,5.138335227966309,-2.660581588745117,-1.2756032943725586
1702061337871170800,3.9691708984375,5.14327335357666,-2.0125412940979004,-1.7726058959960938
1702061337888166000,3.986165771484375,4.887079238891602,-2.13765287399292,-1.8257665634155273
1702061337905159000,4.003158935546875,4.2818427085876465,-2.121027946472168,-1.8561458587646484
1702061337922153200,4.0201533203125,4.256303787231445,-1.8842487335205078,-1.532771110534668
1702061337939147300,4.037147216796875,4.324424743652344,-1.439955711364746,-1.1389894485473633
1702061337956138500,4.054138427734375,4.153497695922852,-0.976198673248291,-0.9964900016784668
1702061337973137400,4.071137451171875,3.8671436309814453,-0.8735690116882324,-0.9712066650390625
1702061337990129400,4.08812939453125,3.285454750061035,-1.105036735534668,-0.829899787902832
1702061338007123200,4.105123291015625,2.362337589263916,-0.964970588684082,-0.9404430389404297
1702061338024117000,4.122116943359375,1.2208374738693237,-0.8847846984863281,-1.0164098739624023
1702061338041110800,4.13911083984375,0.2975574731826782,-1.0125441551208496,-0.8637056350708008
1702061338058105300,4.156105224609375,-0.3804267644882202,-1.2267394065856934,-0.487548828125
1702061338075099100,4.17309912109375,-0.66014564037323,-1.552945613861084,0.36226367950439453
1702061338092093000,4.190093017578125,-0.7552474737167358,-1.1326980590820312,0.9464635848999023
1702061338109076500,4.207076416015625,-1.005053162574768,-0.7331414222717285,1.505157470703125
1702061338126075100,4.2240751953125,-1.6566314697265625,-0.5953292846679688,1.8454170227050781
1702061338143075000,4.241074951171875,-2.03726863861084,-0.980959415435791,2.29777193069458
1702061338160068900,4.25806884765625,-2.250760078430176,-0.8064975738525391,2.798448085784912
1702061338177062700,4.275062744140625,-2.508251667022705,-0.09427404403686523,2.85634708404541
1702061338194058200,4.292058349609375,-2.9342641830444336,0.22667503356933594,2.8272056579589844
1702061338211049700,4.3090498046875,-3.081723690032959,0.353665828704834,2.003936767578125
1702061338228044800,4.326044921875,-1.9982634782791138,0.2577033042907715,1.0748052597045898
1702061338245038800,4.343038818359375,-0.9932544231414795,0.5837984085083008,0.6220612525939941
1702061338262033200,4.360033203125,-1.069855809211731,1.307349681854248,0.8023567199707031
1702061338279027000,4.37702685546875,-2.132229804992676,1.790891170501709,1.5533223152160645
1702061338296020700,4.394020751953125,-3.0334935188293457,2.126004695892334,1.703169822692871
1702061338313012200,4.41101220703125,-2.9521069526672363,2.4649109840393066,1.5815677642822266
1702061338330009600,4.428009521484375,-2.056957244873047,2.8759422302246094,1.8113455772399902
1702061338347004700,4.445004638671875,-1.3896816968917847,2.898292064666748,2.349863052368164
1702061338363996700,4.46199658203125,-1.2614519596099854,2.4955849647521973,2.973052978515625
1702061338380988000,4.47898779296875,-1.265175223350525,1.8997020721435547,3.304934024810791
1702061338397987600,4.495987548828125,-1.33513605594635,1.5406970977783203,3.019557476043701
1702061338414978800,4.512978759765625,-1.5290449857711792,1.393176555633545,2.507462978363037
1702061338431972900,4.529972900390625,-1.997122049331665,1.1828746795654297,2.107426166534424
1702061338448966400,4.54696630859375,-2.4455785751342773,1.0324106216430664,1.7846183776855469
1702061338465961000,4.5639609375,-2.5496315956115723,0.9412708282470703,1.5480084419250488
1702061338482954800,4.580954833984375,-2.1889328956604004,0.34979867935180664,1.6937150955200195
1702061338499948800,4.59794873046875,-1.3990318775177002,-0.39438724517822266,1.8499116897583008
1702061338516942300,4.6149423828125,-0.28806740045547485,-0.8964509963989258,1.7053818702697754
1702061338533940200,4.631940185546875,1.0367873907089233,-1.1402950286865234,1.3342375755310059
1702061338550927600,4.648927734375,1.8775734901428223,-1.1770787239074707,0.7255983352661133
1702061338567921400,4.66592138671875,2.2005984783172607,-1.3809466361999512,0.2310047149658203
1702061338584918300,4.682918212890625,2.355612277984619,-1.6648106575012207,-0.10559463500976562
1702061338601912800,4.699912841796875,2.6289243698120117,-1.8021626472473145,-0.5974693298339844
1702061338618906600,4.71690673828125,2.8165454864501953,-1.722461223602295,-1.2821235656738281
1702061338635900700,4.733900634765625,2.79854154586792,-1.5863151550292969,-2.014455795288086
1702061338652894200,4.750894287109375,2.5536723136901855,-1.8126444816589355,-2.4643282890319824
1702061338669888800,4.767888671875,2.1901540756225586,-2.5534555912017822,-2.539198398590088
1702061338686882600,4.784882568359375,2.82932448387146,-3.179774045944214,-2.3190431594848633
1702061338703873800,4.801873779296875,3.7943735122680664,-3.15590500831604,-2.1219725608825684
1702061338720872700,4.818872802734375,4.2142791748046875,-3.086618185043335,-2.1208810806274414
1702061338737864700,4.83586474609375,4.238091468811035,-3.0745158195495605,-2.461280345916748
1702061338754858500,4.8528583984375,3.8158702850341797,-3.2814085483551025,-2.9627294540405273
1702061338771852300,4.869852294921875,3.3254899978637695,-3.6224167346954346,-3.578644275665283
1702061338788835600,4.886835693359375,2.730955123901367,-3.8375277519226074,-4.004802227020264
1702061338805841000,4.9038408203125,2.207321882247925,-3.9140849113464355,-3.9803242683410645
1702061338822834400,4.92083447265625,2.0971198081970215,-4.000399589538574,-3.665055274963379
1702061338839828500,4.937828369140625,2.4189653396606445,-4.051779747009277,-3.139828681945801
1702061338856822300,4.954822265625,2.7868545055389404,-4.325523376464844,-2.674483299255371
1702061338873816600,4.971816650390625,3.0207901000976562,-4.788616180419922,-2.524783134460449
1702061338890810400,4.988810302734375,2.9715113639831543,-5.441041946411133,-2.4979543685913086
1702061338907804400,5.005804443359375,2.75661039352417,-6.006880760192871,-2.3522543907165527
1702061338924798200,5.022798095703125,2.1674182415008545,-6.24256706237793,-2.1226654052734375
1702061338941792500,5.03979248046875,1.8663103580474854,-6.093039035797119,-2.075127601623535
1702061338958786300,5.056786376953125,1.6861647367477417,-5.883150100708008,-2.2309365272521973
1702061338975778600,5.073778564453125,1.7243067026138306,-6.162062644958496,-2.2126293182373047
1702061338992775700,5.090775634765625,1.6559383869171143,-6.515257358551025,-2.2897748947143555
1702061339009768400,5.1077685546875,2.1009886264801025,-6.862417697906494,-2.174726963043213
1702061339026762200,5.12476220703125,2.714848041534424,-6.579495429992676,-2.018096446990967
1702061339043753700,5.141753662109375,2.983586549758911,-6.274142265319824,-1.949197769165039
1702061339060752600,5.158752685546875,2.934718608856201,-6.1921563148498535,-2.0314416885375977
1702061339077742600,5.17574267578125,2.522737979888916,-6.5225934982299805,-1.9455499649047852
1702061339094740200,5.192740234375,1.8322577476501465,-6.69249963760376,-2.0889949798583984
1702061339111732200,5.209732177734375,1.3215632438659668,-7.236599922180176,-2.2208642959594727
1702061339128725800,5.226725830078125,0.8444548845291138,-8.130804061889648,-1.8892788887023926
1702061339145720300,5.24372021484375,0.5086002349853516,-8.602089881896973,-1.3817148208618164
1702061339162714000,5.260714111328125,0.2435862421989441,-8.472713470458984,-1.0723962783813477
1702061339179708200,5.277708251953125,-0.018209874629974365,-8.316617012023926,-0.5825185775756836
1702061339196713500,5.29471337890625,-0.5230764746665955,-8.75255298614502,-0.32167720794677734
1702061339213696300,5.3116962890625,-0.5345301032066345,-9.126909255981445,-0.8965787887573242
1702061339230690000,5.32868994140625,-0.4066105782985687,-9.425156593322754,-1.832566261291504
1702061339247684000,5.34568408203125,-0.7219526171684265,-9.232361793518066,-2.369709014892578
1702061339264667400,5.36266748046875,-1.28725004196167,-9.227724075317383,-1.9141035079956055
1702061339281669600,5.379669677734375,-1.4837883710861206,-9.417862892150879,-1.3099098205566406
1702061339298668500,5.39666845703125,-1.264814853668213,-9.512292861938477,-0.05255126953125
1702061339315659800,5.41365966796875,-1.0189993381500244,-9.319783210754395,1.8602476119995117
1702061339332653800,5.43065380859375,-1.1486427783966064,-9.06213665008545,2.877835273742676
1702061339349648100,5.447648193359375,-2.0462472438812256,-9.667145729064941,2.993197441101074
1702061339366642200,5.46464208984375,-2.16121768951416,-10.286056518554688,2.931929588317871
1702061339383636000,5.481635986328125,-1.0711344480514526,-10.629854202270508,2.5029125213623047
1702061339400629500,5.49862939453125,-0.43285274505615234,-10.689395904541016,1.7069034576416016
1702061339417623800,5.515623779296875,-0.4945129156112671,-10.2207612991333,0.30251407623291016
1702061339434617900,5.532617919921875,-0.5109552145004272,-9.555871963500977,-0.9434690475463867
1702061339451612000,5.54961181640625,-0.04105401039123535,-9.132567405700684,-1.4771356582641602
1702061339468605400,5.56660546875,0.9122225046157837,-9.107992172241211,-1.0768280029296875
1702061339485600000,5.58360009765625,1.4873000383377075,-9.296364784240723,-0.09823417663574219
1702061339502594000,5.600593994140625,1.2891229391098022,-9.552245140075684,0.7112207412719727
1702061339519587600,5.617587646484375,0.9724145531654358,-9.39827823638916,0.4948005676269531
1702061339536581400,5.634581298828125,0.9202759861946106,-8.493841171264648,-0.6069612503051758
1702061339553576000,5.651575927734375,1.144944190979004,-7.686478137969971,-1.40777587890625
1702061339570569700,5.66856982421875,1.2318059206008911,-7.592878818511963,-1.5203542709350586
1702061339587563500,5.6855634765625,1.3696823120117188,-7.933926582336426,-1.1432209014892578
1702061339604557600,5.7025576171875,1.4759747982025146,-8.068157196044922,-0.7960929870605469
1702061339621551900,5.7195517578125,2.074014902114868,-7.318612575531006,-1.238168716430664
1702061339638535200,5.73653515625,2.7056643962860107,-6.504916191101074,-1.8121347427368164
1702061339655539700,5.753539794921875,2.735962390899658,-5.896537780761719,-2.254438877105713
1702061339672524000,5.77052392578125,2.3303134441375732,-5.745212078094482,-2.442873954772949
1702061339689527800,5.78752783203125,1.678377389907837,-5.647078990936279,-2.5603394508361816
1702061339706521900,5.80452197265625,1.6145377159118652,-5.230588436126709,-2.4759979248046875
1702061339723515400,5.821515380859375,1.9755337238311768,-4.6492414474487305,-2.3109793663024902
1702061339740509200,5.83850927734375,2.2596120834350586,-4.43378210067749,-2.1547956466674805
1702061339757503700,5.855503662109375,2.310157299041748,-4.301145076751709,-2.033963203430176
1702061339774497500,5.87249755859375,2.277322769165039,-4.153953552246094,-2.1481504440307617
1702061339791491600,5.88949169921875,2.346670150756836,-3.7934060096740723,-2.48342227935791
1702061339808485000,5.906485107421875,2.284093141555786,-3.3717970848083496,-2.734201431274414
1702061339825479700,5.923479736328125,2.239095449447632,-3.0914359092712402,-2.6206188201904297
1702061339842473200,5.94047314453125,2.457280158996582,-3.055788993835449,-2.33419132232666
1702061339859467300,5.95746728515625,2.960968017578125,-3.096794605255127,-2.116436004638672
1702061339876461000,5.9744609375,3.724151611328125,-2.9637744426727295,-2.1663103103637695
1702061339893453300,5.991453369140625,4.435042381286621,-2.665909767150879,-2.339113712310791
1702061339910451700,6.00845166015625,4.577875137329102,-2.2599897384643555,-2.49735689163208
1702061339927455500,6.02545556640625,4.071438312530518,-2.228506326675415,-2.5635271072387695
1702061339944434200,6.04243408203125,3.406662940979004,-2.14547061920166,-2.526177406311035
1702061339961434000,6.05943408203125,3.2555112838745117,-1.9374794960021973,-2.4024200439453125
1702061339978425300,6.07642529296875,3.457059144973755,-1.61857008934021,-2.451510429382324
1702061339995419100,6.093419189453125,3.6255900859832764,-1.4865825176239014,-2.4844722747802734
1702061340012413000,6.110412841796875,3.617987871170044,-1.7196784019470215,-2.363461494445801
1702061340029407700,6.12740771484375,3.4373831748962402,-2.016524314880371,-2.2455339431762695
1702061340046401300,6.1444013671875,3.0359582901000977,-1.9714913368225098,-2.2351231575012207
1702061340063395000,6.16139501953125,2.558168649673462,-1.8940632343292236,-2.0156707763671875
1702061340080388900,6.178388916015625,2.345890522003174,-1.7043330669403076,-1.8340635299682617
1702061340097383400,6.195383544921875,2.750840187072754,-1.4168198108673096,-1.8801345825195312
1702061340114377200,6.212377197265625,2.997987747192383,-2.014871120452881,-1.4317431449890137
1702061340131371000,6.22937109375,3.036289691925049,-2.262939453125,-1.350271224975586
1702061340148364800,6.24636474609375,3.206388473510742,-1.9864587783813477,-1.050267219543457
1702061340165359400,6.263359375,3.0317935943603516,-1.53778076171875,-0.040348052978515625
1702061340182353200,6.280353271484375,2.3793892860412598,-1.1919465065002441,1.3055191040039062
1702061340199347000,6.297346923828125,1.9675118923187256,-1.2824859619140625,2.0933942794799805
1702061340216340700,6.3143408203125,1.9074625968933105,-1.3825559616088867,1.8839149475097656
1702061340233335300,6.331335205078125,1.7545766830444336,-0.8908824920654297,1.0564947128295898
1702061340250329000,6.3483291015625,1.0616563558578491,-0.48824501037597656,0.5991544723510742
1702061340267326500,6.365326416015625,0.16988897323608398,-0.26191139221191406,0.998847484588623
1702061340284313300,6.382313232421875,-0.5704236030578613,0.21172189712524414,2.066287040710449
1702061340301308700,6.39930859375,-1.3038851022720337,0.290132999420166,3.6334195137023926
1702061340318307000,6.41630712890625,-2.345942497253418,0.6183462142944336,3.7753806114196777
1702061340335299000,6.433299072265625,-3.2889552116394043,0.9745240211486816,2.2818078994750977
1702061340352292600,6.450292724609375,-3.5157718658447266,1.3083996772766113,0.56976318359375
1702061340369274600,6.467274658203125,-3.10642671585083,1.5903310775756836,-0.05265188217163086
1702061340386252300,6.484252197265625,-2.269561290740967,1.4863581657409668,0.8226466178894043
1702061340403277600,6.501277587890625,-1.7890806198120117,1.1292190551757812,2.178290367126465
1702061340420268500,6.5182685546875,-0.9337443113327026,1.0141215324401855,2.326986312866211
1702061340437263000,6.53526318359375,-0.37483489513397217,1.0609498023986816,1.3113274574279785
1702061340454256600,6.552256591796875,-0.1965923309326172,1.2254233360290527,0.19957971572875977
1702061340471251000,6.5692509765625,-0.15390515327453613,1.6091704368591309,-0.12651348114013672
1702061340488244500,6.586244384765625,-0.2097792625427246,1.7998642921447754,0.8524618148803711
1702061340505238000,6.603238037109375,-0.5485031604766846,1.8313851356506348,2.454893112182617
1702061340522233900,6.62023388671875,-1.0684818029403687,1.7851595878601074,3.3629860877990723
1702061340539226600,6.6372265625,-1.5503146648406982,1.5364890098571777,3.361170768737793
1702061340556220400,6.654220458984375,-1.9936718940734863,1.220872402191162,2.7418055534362793
1702061340573212400,6.67121240234375,-2.3066844940185547,1.0354599952697754,1.9090251922607422
1702061340590211300,6.68821142578125,-2.40152645111084,0.992800235748291,1.3886075019836426
1702061340607202600,6.70520263671875,-2.1683521270751953,0.8445215225219727,1.3470025062561035
1702061340624196000,6.722196044921875,-1.3775725364685059,0.6259474754333496,1.7925238609313965
1702061340641190700,6.739190673828125,-0.5787515640258789,0.4151802062988281,2.3770036697387695
1702061340658184200,6.75618408203125,-0.051270127296447754,0.12640762329101562,2.391651153564453
1702061340675179000,6.773178955078125,0.24886584281921387,-0.11387872695922852,1.532884120941162
1702061340692172000,6.790172119140625,0.6129322052001953,-0.41236162185668945,0.7344832420349121
1702061340709166800,6.807166748046875,1.0335261821746826,-0.6965503692626953,0.29968738555908203
1702061340726160400,6.824160400390625,1.5693411827087402,-0.7830066680908203,0.09629011154174805
1702061340743154400,6.841154541015625,1.9687681198120117,-0.820737361907959,0.6032595634460449
1702061340760148000,6.85814794921875,2.1425716876983643,-0.5773730278015137,0.9485368728637695
1702061340777142800,6.875142822265625,2.0832595825195312,-1.0312938690185547,1.019505500793457
1702061340794136300,6.89213623046875,1.5472850799560547,-1.7557692527770996,0.3835887908935547
1702061340811130400,6.90913037109375,1.327305555343628,-2.549808979034424,-0.4512910842895508
1702061340828111400,6.926111328125,2.1774375438690186,-2.730212688446045,-1.1851081848144531
1702061340845118500,6.943118408203125,3.1573190689086914,-2.2286412715911865,-2.0541419982910156
1702061340862112300,6.9601123046875,3.420137405395508,-1.7635741233825684,-2.6967291831970215
1702061340879106000,6.97710595703125,2.8886911869049072,-1.8100864887237549,-2.8728694915771484
1702061340896100000,6.99410009765625,2.107037305831909,-1.9661593437194824,-2.9786319732666016
1702061340913094400,7.011094482421875,1.4710214138031006,-1.9689967632293701,-3.342895030975342
1702061340930088000,7.028087890625,1.737748384475708,-1.9355754852294922,-3.387946128845215
1702061340947082200,7.045082275390625,2.6651980876922607,-1.8116633892059326,-2.837656021118164
1702061340964075800,7.06207568359375,3.4162955284118652,-1.8646790981292725,-2.020667552947998
1702061340981070300,7.0790703125,3.6526498794555664,-2.3291704654693604,-1.6358108520507812
1702061340998064000,7.096064208984375,3.3311877250671387,-2.6326541900634766,-1.9952726364135742
1702061341015058000,7.113057861328125,2.8702621459960938,-2.6399691104888916,-2.5469141006469727
1702061341032051700,7.1300517578125,2.592200517654419,-2.642202377319336,-2.5292439460754395
1702061341049042200,7.147042236328125,2.400947093963623,-2.936735153198242,-1.9688472747802734
1702061341066044200,7.164044189453125,2.338909149169922,-3.3528518676757812,-1.5059051513671875
1702061341083033900,7.181033935546875,2.505411148071289,-3.9900026321411133,-1.1918830871582031
1702061341100026400,7.1980263671875,2.648082733154297,-4.4355149269104,-1.1162261962890625
1702061341117023200,7.215023193359375,2.7762579917907715,-4.662895202636719,-1.2934741973876953
1702061341134025700,7.232025634765625,2.781435489654541,-4.697750091552734,-1.538254737854004
1702061341151009500,7.249009521484375,2.5152955055236816,-4.819190979003906,-1.5905275344848633
1702061341168003600,7.266003662109375,2.4740679264068604,-4.849524974822998,-1.8624153137207031
1702061341184995800,7.282995849609375,2.8939733505249023,-4.972933769226074,-2.1943612098693848
1702061341201993700,7.29999365234375,3.868274688720703,-4.92604923248291,-2.585555076599121
1702061341218979000,7.31697900390625,4.886459827423096,-4.80767822265625,-2.732466697692871
1702061341235979300,7.333979248046875,5.627951622009277,-4.719211578369141,-2.3673596382141113
1702061341252973800,7.350973876953125,5.731568336486816,-4.709994316101074,-1.4922971725463867
1702061341269967600,7.367967529296875,5.324481964111328,-4.738155364990234,-0.9897308349609375
1702061341286960000,7.384960205078125,4.355669975280762,-5.251780986785889,-1.0276422500610352
1702061341303956700,7.401956787109375,3.7851667404174805,-5.892772674560547,-1.5281705856323242
1702061341320949800,7.41894970703125,3.113259792327881,-6.1322784423828125,-2.10162353515625
1702061341337943600,7.435943603515625,2.386937141418457,-6.260543346405029,-2.118971824645996
1702061341354937600,7.4529375,1.618571162223816,-6.784982204437256,-1.6166987419128418
1702061341371931100,7.46993115234375,1.3584702014923096,-6.990447998046875,-1.5028057098388672
1702061341388923600,7.486923583984375,1.1985212564468384,-7.229372024536133,-1.5212068557739258
1702061341405921300,7.50392138671875,1.3700367212295532,-7.220322608947754,-1.4333429336547852
1702061341422911500,7.520911376953125,1.2596745491027832,-7.1655802726745605,-1.0812091827392578
1702061341439904500,7.537904541015625,0.9679622650146484,-6.953216075897217,-0.12042999267578125
1702061341456904200,7.554904296875,0.536919116973877,-6.077685356140137,0.9315423965454102
1702061341473884700,7.571884765625,0.23566293716430664,-5.571088790893555,1.7282114028930664
1702061341490889200,7.58888916015625,0.38372802734375,-5.955381393432617,1.9145050048828125
1702061341507883300,7.60588330078125,0.5309696197509766,-6.734085559844971,0.9943552017211914
1702061341524875000,7.622875,0.560376763343811,-7.5332722663879395,-0.9919557571411133
1702061341541871000,7.63987109375,0.4280487298965454,-7.9638352394104,-2.6187472343444824
1702061341558865200,7.656865234375,0.6571056842803955,-7.974822998046875,-2.6442813873291016
1702061341575859000,7.67385888671875,0.40822088718414307,-8.017571449279785,-0.7508172988891602
1702061341592853200,7.690853271484375,-0.06287777423858643,-8.101465225219727,1.3626699447631836
1702061341609847300,7.707847412109375,-0.43989992141723633,-7.837157249450684,2.409055709838867
1702061341626830800,7.724830810546875,-0.7050583362579346,-7.32540225982666,2.442302703857422
1702061341643835000,7.7418349609375,-0.7676770687103271,-7.165592193603516,2.383260726928711
1702061341660829200,7.7588291015625,-0.5520319938659668,-7.2806620597839355,2.8261756896972656
1702061341677823000,7.775822998046875,-0.11854743957519531,-7.812866687774658,3.3509702682495117
1702061341694817000,7.792817138671875,0.07209813594818115,-8.47049331665039,3.011995315551758
1702061341711810600,7.809810546875,0.16152775287628174,-8.738492965698242,1.4603118896484375
1702061341728805400,7.826805419921875,0.4200807809829712,-8.531030654907227,-0.2682342529296875
1702061341745799000,7.843798828125,0.6135779619216919,-8.383810997009277,-1.3248186111450195
1702061341762792700,7.860792724609375,0.5942137837409973,-8.43185806274414,-1.509354591369629
1702061341779786500,7.877786376953125,0.5036178827285767,-8.548479080200195,-1.3665437698364258
1702061341796780800,7.89478076171875,0.5593377351760864,-8.575770378112793,-1.1418704986572266
1702061341813764000,7.91176416015625,1.166049838066101,-8.299121856689453,-1.2290105819702148
1702061341830766300,7.928766357421875,1.6928157806396484,-7.511061191558838,-1.779332160949707
1702061341847764700,7.9457646484375,1.6784257888793945,-6.522358417510986,-2.2340774536132812
1702061341864759000,7.962759033203125,1.358391284942627,-6.010654449462891,-2.1013059616088867
1702061341881748700,7.979748779296875,0.9465245008468628,-6.138026237487793,-1.5369682312011719
1702061341898744600,7.99674462890625,1.1426928043365479,-6.0210981369018555,-1.174825668334961
1702061341915738400,8.01373828125,1.7925546169281006,-5.571569442749023,-1.0162010192871094
1702061341932732700,8.030732666015625,2.164041519165039,-4.970269680023193,-0.8009843826293945
1702061341949726500,8.0477265625,1.8220185041427612,-4.389520645141602,-0.7052688598632812
1702061341966720500,8.064720458984375,1.3766955137252808,-3.9184186458587646,-1.0864248275756836
1702061341983714300,8.08171435546875,1.1445308923721313,-3.4964675903320312,-1.5836191177368164
1702061342000708600,8.09870849609375,1.322984218597412,-3.127851963043213,-1.8819794654846191
1702061342017702400,8.115702392578125,1.6777757406234741,-2.815887451171875,-1.8455638885498047
1702061342034696400,8.132696533203125,1.9627580642700195,-2.7190206050872803,-1.5327043533325195
1702061342051690000,8.14968994140625,2.233954429626465,-2.581271171569824,-1.3749761581420898
1702061342068682000,8.166681884765625,2.656078338623047,-2.376038074493408,-1.2986927032470703
1702061342085681000,8.183680908203126,2.8661623001098633,-2.027423620223999,-1.402205467224121
1702061342102672400,8.20067236328125,2.884902000427246,-1.586216688156128,-1.7719192504882812
1702061342119666000,8.217666015625,2.7984066009521484,-1.2613937854766846,-2.0121164321899414
1702061342136660200,8.23466015625,2.601742744445801,-0.9573874473571777,-2.0124635696411133
1702061342153654300,8.251654296875,2.391106367111206,-0.6812725067138672,-1.8815031051635742
1702061342170648000,8.26864794921875,2.241924285888672,-0.765160322189331,-1.6606864929199219
1702061342187641900,8.285641845703125,2.4954605102539062,-1.0113494396209717,-1.7268104553222656
1702061342204636700,8.30263671875,3.1017813682556152,-1.0620741844177246,-2.0441431999206543
1702061342221617000,8.319616943359375,3.8349790573120117,-0.9425020217895508,-2.355189323425293
1702061342238626600,8.33662646484375,3.9145162105560303,-0.7057902812957764,-2.3429250717163086
1702061342255617500,8.353617431640625,3.4981279373168945,-0.5270869731903076,-1.9783658981323242
1702061342272612400,8.3706123046875,3.031392812728882,-0.5151481628417969,-1.793900489807129
1702061342289606100,8.387606201171875,2.867788553237915,-0.3521592617034912,-1.9631156921386719
1702061342306597600,8.40459765625,3.0099172592163086,-0.2679898738861084,-2.308889389038086
1702061342323596000,8.421595947265626,3.3638269901275635,0.023178815841674805,-2.706937789916992
1702061342340588000,8.438588134765626,3.337247848510742,0.3453361988067627,-2.909909248352051
1702061342357581800,8.455581787109375,2.7782070636749268,0.11218500137329102,-2.514331817626953
1702061342374575900,8.472575927734376,2.176504135131836,-0.37345147132873535,-1.643040657043457
1702061342391569400,8.4895693359375,1.8151029348373413,-0.576763391494751,-1.1488661766052246
1702061342408562200,8.506562255859375,2.1046876907348633,-0.23222684860229492,-1.2139530181884766
1702061342425557800,8.523557861328126,2.3212106227874756,0.18418622016906738,-1.0506772994995117
1702061342442553900,8.540553955078124,2.062694787979126,0.3741340637207031,-0.6646265983581543
1702061342459545300,8.55754541015625,1.518033742904663,-0.05853605270385742,-0.1555643081665039
1702061342476540000,8.574539794921876,0.8353910446166992,-0.7753000259399414,0.03885364532470703
1702061342493533700,8.59153369140625,0.7542283535003662,-1.1731481552124023,-0.1682901382446289
1702061342510527700,8.60852783203125,1.30906081199646,-1.0767788887023926,-0.4416069984436035
1702061342527521300,8.625521240234375,1.6848278045654297,-0.7915806770324707,0.07270336151123047
1702061342544515600,8.642515625,0.9652471542358398,-0.7269525527954102,1.4328107833862305
1702061342561509600,8.659509521484376,0.01700758934020996,-0.5941014289855957,2.039457321166992
1702061342578503200,8.676503173828126,-0.6063203811645508,-0.4453315734863281,1.7970314025878906
1702061342595497000,8.6934970703125,-0.3729712963104248,-0.3185920715332031,1.3316655158996582
1702061342612489000,8.710489013671875,0.7593502998352051,0.12397050857543945,1.4177980422973633
1702061342629488000,8.727488037109374,1.458841323852539,0.4722480773925781,2.364933490753174
1702061342646479000,8.74447900390625,1.0077097415924072,-0.02786111831665039,3.8512558937072754
1702061342663473000,8.761472900390626,0.249969482421875,-0.2620067596435547,3.617992877960205
1702061342680467500,8.778467529296876,-0.14780402183532715,0.03239727020263672,2.584662914276123
1702061342697461200,8.795461181640626,-0.4048500061035156,0.061509132385253906,2.1519832611083984
1702061342714444500,8.812444580078125,-1.1639814376831055,-0.6328482627868652,2.069166660308838
1702061342731448800,8.82944873046875,-1.7740302085876465,-0.8160548210144043,1.3837857246398926
1702061342748443400,8.846443359375,-1.8864312171936035,-0.820183277130127,0.6881775856018066
1702061342765437200,8.863437255859376,-1.6352722644805908,-0.5654354095458984,0.17928028106689453
1702061342782431000,8.880430908203126,-1.0276689529418945,-0.2718806266784668,0.3483433723449707
1702061342799424500,8.897424560546876,-0.8314781188964844,0.05468130111694336,1.1127610206604004
1702061342816419000,8.914419189453126,-1.2995715141296387,0.03923511505126953,2.4327263832092285
1702061342833410300,8.931410400390625,-1.6782833337783813,-0.10918378829956055,3.125823974609375
1702061342850409500,8.948409423828124,-1.696097493171692,-0.17777204513549805,2.863201141357422
1702061342867400700,8.965400634765626,-1.4181307554244995,-0.28615665435791016,2.236445903778076
1702061342884395000,8.98239501953125,-1.1544785499572754,-0.36560487747192383,1.6416420936584473
1702061342901389000,8.99938916015625,-0.7735170125961304,-0.3547649383544922,1.2307333946228027
1702061342918382600,9.016382568359376,-0.7253787517547607,-0.4391798973083496,1.3051462173461914
1702061342935376400,9.03337646484375,-0.9059151411056519,-0.42311620712280273,1.9135894775390625
1702061342952371000,9.050370849609376,-0.7500144243240356,-0.34766101837158203,2.266663074493408
1702061342969364700,9.06736474609375,-0.2675434350967407,-0.31389522552490234,1.8263373374938965
1702061342986358500,9.084358642578126,0.2773393392562866,-0.27259302139282227,0.9624557495117188
1702061343003342300,9.10134228515625,0.6556588411331177,-0.19240283966064453,0.042435646057128906
1702061343020347600,9.11834765625,1.0556241273880005,0.048702239990234375,-0.5912637710571289
1702061343037340400,9.13534033203125,1.3730849027633667,0.21314001083374023,-0.5737009048461914
1702061343054334500,9.15233447265625,1.5424959659576416,0.18317794799804688,-0.044597625732421875
1702061343071328300,9.169328369140626,1.8234776258468628,0.14700937271118164,0.24624061584472656
1702061343088324900,9.186324951171875,2.177934169769287,0.1225748062133789,-0.07201957702636719
1702061343105302500,9.203302490234375,2.446643352508545,0.08451700210571289,-0.6272110939025879
1702061343122310400,9.220310302734376,2.630906105041504,0.04442262649536133,-1.107309341430664
1702061343139304000,9.237303955078126,2.6178994178771973,-0.10457754135131836,-1.1473731994628906
1702061343156296000,9.2542958984375,2.3498189449310303,-0.20680665969848633,-1.1310806274414062
1702061343173294600,9.271294677734375,2.29750919342041,-0.31365156173706055,-1.2881126403808594
1702061343190286000,9.2882861328125,2.506354331970215,-0.22138357162475586,-1.7311058044433594
1702061343207280000,9.305280029296876,2.8228211402893066,-0.21798014640808105,-2.093557834625244
1702061343224274200,9.322274169921876,2.906496286392212,-0.3825681209564209,-2.288158416748047
1702061343241268000,9.33926806640625,2.8567209243774414,-0.635565996170044,-2.3576107025146484
1702061343258262000,9.356261962890626,2.7215425968170166,-0.9062566757202148,-2.30548095703125
1702061343275253200,9.373253173828125,2.612114906311035,-1.21567964553833,-2.075948715209961
1702061343292252700,9.390252685546875,2.702496290206909,-1.3122293949127197,-1.7424888610839844
1702061343309244000,9.407243896484376,3.1172752380371094,-1.3113758563995361,-1.677722454071045
1702061343326238000,9.424238037109374,3.521089792251587,-1.3871967792510986,-1.8138017654418945
1702061343343231500,9.4412314453125,3.654114246368408,-1.6801636219024658,-2.1042275428771973
1702061343360226000,9.45822607421875,3.4389634132385254,-1.9430460929870605,-2.716769218444824
1702061343377219600,9.475219482421876,3.164232015609741,-2.109990358352661,-3.1983466148376465
1702061343394209500,9.49220947265625,3.0191550254821777,-2.1994144916534424,-3.393054962158203
1702061343411211500,9.50921142578125,3.3179352283477783,-2.1912026405334473,-3.3701186180114746
1702061343428202000,9.526201904296874,3.5727086067199707,-2.266798973083496,-3.0798497200012207
1702061343445196000,9.543196044921874,3.596069812774658,-2.4857993125915527,-2.6491289138793945
1702061343462189600,9.560189453125,3.414585590362549,-2.6436281204223633,-2.4479665756225586
1702061343479183400,9.577183349609374,3.192911148071289,-2.6810333728790283,-2.283736228942871
1702061343496175000,9.594175048828125,2.7197277545928955,-2.8183109760284424,-2.005183219909668
1702061343513174300,9.61117431640625,2.1047909259796143,-3.0560317039489746,-1.8456816673278809
1702061343530165500,9.62816552734375,2.431955337524414,-3.551161527633667,-1.654932975769043
1702061343547159300,9.6451591796875,3.446800708770752,-3.6756391525268555,-1.6235017776489258
1702061343564141300,9.662141357421875,4.15615177154541,-3.808178186416626,-1.4004220962524414
1702061343581149000,9.67914892578125,3.9245471954345703,-4.296690940856934,-1.160989761352539
1702061343598141200,9.69614111328125,3.6535401344299316,-5.080824851989746,-1.1202707290649414
1702061343615135000,9.713135009765624,3.002121925354004,-5.682979106903076,-1.4091968536376953
1702061343632129300,9.73012939453125,2.459507465362549,-5.972589492797852,-1.778315544128418
1702061343649122000,9.7471220703125,1.7871768474578857,-6.250777244567871,-1.9042987823486328
1702061343666117000,9.7641171875,1.0917690992355347,-6.618656158447266,-1.6698451042175293
1702061343683111200,9.781111083984374,0.20620179176330566,-7.436349868774414,-1.330430030822754
1702061343700106200,9.798106201171874,-0.5188480615615845,-8.021642684936523,-1.270101547241211
1702061343717097700,9.81509765625,-0.8823928833007812,-7.831676959991455,-1.2002649307250977
1702061343734093000,9.832093017578124,-1.3225054740905762,-7.882733345031738,-0.022533416748046875
1702061343751091000,9.849091064453125,-1.2898145914077759,-7.996978759765625,0.8591375350952148
1702061343768081200,9.8660810546875,-0.275104284286499,-8.0331392288208,0.8210210800170898
1702061343785073400,9.883073486328126,1.8028342723846436,-8.772379875183105,0.7653255462646484
1702061343802070800,9.90007080078125,4.200948715209961,-8.941513061523438,0.24420833587646484
1702061343819062500,9.9170625,5.070195198059082,-9.13444709777832,-0.2532062530517578
1702061343836056800,9.934056884765624,4.162607669830322,-9.460797309875488,-0.4278688430786133
1702061343853048300,9.95104833984375,2.64778995513916,-9.262775421142578,-0.33572959899902344
1702061343870047200,9.968047119140625,0.8961168527603149,-8.79493236541748,0.3001241683959961
1702061343887038200,9.9850380859375,-0.7928304672241211,-8.089202880859375,0.8805427551269531
1702061343904032800,10.00203271484375,-1.5377342700958252,-7.225375175476074,0.8276538848876953
1702061343921026600,10.019026611328124,-0.7866630554199219,-6.698114395141602,0.7554759979248047
1702061343938021600,10.036021728515625,0.21522915363311768,-6.509002685546875,0.5792179107666016
1702061343955026400,10.0530263671875,0.8864803314208984,-6.710955619812012,0.4825620651245117
1702061343972006100,10.070006103515626,1.470084547996521,-6.980628967285156,0.685826301574707
1702061343989005000,10.087005126953125,1.671696662902832,-7.054485321044922,0.8811330795288086
1702061344005996500,10.10399658203125,1.353823184967041,-6.5052809715271,0.4169607162475586
1702061344022990000,10.120989990234374,0.9531439542770386,-5.829208850860596,-0.3045969009399414
1702061344039984600,10.137984619140624,0.7640454769134521,-5.3745269775390625,-0.9347591400146484
1702061344056978200,10.154978271484374,0.9577354192733765,-5.304704189300537,-1.1578664779663086
1702061344073972200,10.17197216796875,1.3557748794555664,-5.538034439086914,-1.0848569869995117
1702061344090965800,10.1889658203125,1.728339672088623,-5.672070026397705,-0.9572534561157227
1702061344107960600,10.205960693359375,2.154477119445801,-5.3329644203186035,-0.9582653045654297
1702061344124955000,10.222954833984375,2.2672853469848633,-4.755434989929199,-1.2613325119018555
1702061344141948200,10.2399482421875,2.0885865688323975,-4.447902679443359,-1.7006464004516602
1702061344158941700,10.256941650390624,1.764880895614624,-4.290889739990234,-2.081371784210205
1702061344175925800,10.27392578125,1.9773648977279663,-3.9119672775268555,-2.4099388122558594
1702061344192930000,10.290929931640624,2.2911200523376465,-3.3832075595855713,-2.5758047103881836
1702061344209923800,10.307923828125,2.3275845050811768,-3.0580286979675293,-2.3116493225097656
1702061344226917400,10.32491748046875,2.1433990001678467,-2.842087507247925,-1.7693071365356445
1702061344243912000,10.341911865234374,2.028472423553467,-2.5438849925994873,-1.4672584533691406
1702061344260905700,10.35890576171875,2.0596671104431152,-2.1832242012023926,-1.6108050346374512
1702061344277899500,10.3758994140625,2.173903465270996,-1.7951552867889404,-2.1129722595214844
1702061344294893300,10.392893310546874,2.458284854888916,-1.5274126529693604,-2.5007667541503906
1702061344311877000,10.409877197265626,2.819333076477051,-1.4243700504302979,-2.5988049507141113
1702061344328879600,10.426879638671876,3.045149803161621,-1.361405849456787,-2.3187694549560547
1702061344345875000,10.443875,3.2568602561950684,-1.1756751537322998,-1.766251564025879
1702061344362871800,10.460871826171875,3.6128900051116943,-0.906775951385498,-1.476226806640625
1702061344379863600,10.477863525390624,3.7131102085113525,-0.6315813064575195,-1.4393982887268066
1702061344396855600,10.49485546875,3.3446173667907715,-0.4776268005371094,-1.6324467658996582
1702061344413853200,10.511853271484375,2.745359182357788,-0.507148265838623,-1.771073818206787
1702061344430845000,10.528844970703124,2.4434401988983154,-0.48604536056518555,-1.6167974472045898
1702061344447839500,10.545839599609375,2.9356210231781006,-0.33324718475341797,-1.1742010116577148
1702061344464823300,10.5628232421875,3.311697483062744,0.04796028137207031,-0.8330354690551758
1702061344481827000,10.5798271484375,3.07187557220459,0.30103111267089844,-0.6229124069213867
1702061344498820900,10.59682080078125,2.9792678356170654,0.3297262191772461,-0.617919921875
1702061344515815400,10.6138154296875,2.9093880653381348,0.5080442428588867,-0.9453506469726562
1702061344532809000,10.63080908203125,3.216676712036133,0.8321828842163086,-1.2747669219970703
1702061344549803000,10.647802978515625,3.4128785133361816,1.0180573463439941,-1.2292470932006836
1702061344566796800,10.664796875,3.436934471130371,1.1037850379943848,-1.0172233581542969
1702061344583791000,10.681791015625,3.2601351737976074,1.2452049255371094,-0.8943428993225098
1702061344600785000,10.698784912109375,3.2245326042175293,1.255401611328125,-0.8630919456481934
1702061344617778700,10.71577880859375,3.1067354679107666,1.0997142791748047,-1.0398235321044922
1702061344634772500,10.7327724609375,3.089951992034912,0.9507489204406738,-1.308204174041748
1702061344651767300,10.749767333984375,3.1738924980163574,0.8527379035949707,-1.2772083282470703
1702061344668758500,10.766758544921874,2.729673147201538,0.4907803535461426,-0.6261882781982422
1702061344685746400,10.783746337890625,1.9590837955474854,0.30973100662231445,-0.004168987274169922
1702061344702748400,10.80074853515625,1.305714726448059,0.15401124954223633,0.4733295440673828
1702061344719742700,10.81774267578125,1.0360217094421387,0.11261796951293945,0.7623677253723145
1702061344736736500,10.834736572265625,0.884421706199646,0.13494014739990234,0.829981803894043
1702061344753730600,10.85173046875,0.6599619388580322,-0.057451725006103516,0.9945120811462402
1702061344770720300,10.86872021484375,0.3015831708908081,-0.3141961097717285,1.4134273529052734
1702061344787722500,10.885722412109375,0.004518032073974609,-0.20360183715820312,1.9188618659973145
1702061344804712400,10.90271240234375,-0.10283970832824707,0.06836605072021484,2.3255748748779297
1702061344821706200,10.919706298828125,-0.05988645553588867,0.1928424835205078,2.796349048614502
1702061344838697500,10.936697509765626,0.22825050354003906,0.28307628631591797,2.9817333221435547
1702061344855697000,10.95369677734375,0.6157933473587036,0.3044576644897461,2.863215923309326
1702061344872688000,10.970688232421875,1.0264066457748413,0.2798604965209961,2.525811195373535
1702061344889682200,10.98768212890625,0.981182336807251,0.18124818801879883,2.2018280029296875
1702061344906676000,11.004676025390625,0.24364566802978516,0.20796585083007812,1.8554291725158691
1702061344923670300,11.021670166015625,-0.7989227771759033,0.43990516662597656,1.3532872200012207
1702061344940664300,11.038664306640625,-1.702972412109375,0.6886482238769531,0.8891510963439941
1702061344957658000,11.055658203125,-1.881251573562622,0.826261043548584,0.7114810943603516
1702061344974651600,11.072651611328125,-1.42872953414917,0.40384721755981445,1.1856184005737305
1702061344991646200,11.089646240234375,-0.7359209060668945,-0.20819473266601562,1.9760627746582031
1702061345008639700,11.1066396484375,-0.33765530586242676,-0.5252728462219238,2.2535557746887207
1702061345025635800,11.1236357421875,-0.3961162567138672,-0.47690486907958984,1.9082307815551758
1702061345042627300,11.14062744140625,-0.6509430408477783,-0.18894243240356445,1.362687587738037
1702061345059611400,11.157611328125,-1.1081782579421997,0.01898193359375,1.1819491386413574
1702061345076615700,11.17461572265625,-1.5354182720184326,0.10266256332397461,1.461484432220459
1702061345093609500,11.191609375,-1.7641607522964478,0.06670618057250977,1.802990436553955
1702061345110603300,11.208603271484375,-1.7173069715499878,0.017137527465820312,1.8931598663330078
1702061345127597600,11.22559765625,-1.3074134588241577,-0.010245323181152344,1.7776908874511719
1702061345144591400,11.24259130859375,-0.6570611000061035,-0.040683746337890625,1.7536273002624512
1702061345161585400,11.25958544921875,0.1696617603302002,-0.018913745880126953,1.8359460830688477
1702061345178576400,11.276576416015626,0.664171576499939,-0.04294776916503906,1.944298267364502
1702061345195576000,11.293576171875,1.0283153057098389,0.17576265335083008,1.8027400970458984
1702061345212567600,11.310567626953125,0.921040952205658,0.27895307540893555,1.5096650123596191
1702061345229561000,11.32756103515625,0.7054411172866821,0.351651668548584,0.9711370468139648
1702061345246557000,11.344556884765625,0.5740939378738403,0.5440425872802734,0.4346609115600586
1702061345263547400,11.36154736328125,0.6890584230422974,0.6645598411560059,0.3197059631347656
1702061345280543000,11.37854296875,0.9139755368232727,0.8469915390014648,0.3916506767272949
1702061345297537000,11.395537109375,1.1067999601364136,1.0231342315673828,0.45607519149780273
1702061345314530800,11.41253076171875,1.2647112607955933,0.9023704528808594,0.49758386611938477
1702061345331525000,11.429525146484375,1.5429140329360962,0.6906366348266602,0.17904138565063477
1702061345348518700,11.4465185546875,1.9688212871551514,0.6658291816711426,-0.5159955024719238
1702061345365513000,11.463512939453125,2.507719039916992,0.8860845565795898,-1.2743854522705078
1702061345382506500,11.480506591796875,2.82120418548584,1.0917086601257324,-1.5936040878295898
1702061345399501000,11.4975009765625,2.8139584064483643,1.3090720176696777,-1.4870758056640625
1702061345416505600,11.514505615234375,2.757302761077881,1.378652572631836,-1.1918745040893555
1702061345433488600,11.531488525390625,2.682446002960205,1.215418815612793,-1.0728363990783691
1702061345450482200,11.548482177734375,2.7769336700439453,0.8427295684814453,-1.2630510330200195
1702061345467476700,11.565476806640625,2.9908695220947266,0.539186954498291,-1.7587080001831055
1702061345484470800,11.582470703125,3.2704148292541504,0.3490614891052246,-2.0174083709716797
1702061345501464600,11.599464599609375,3.092226505279541,0.17005634307861328,-1.6618890762329102
1702061345518458000,11.6164580078125,2.481259346008301,-0.028045177459716797,-0.9637231826782227
1702061345535452400,11.633452392578125,1.897706389427185,-0.33737707138061523,-0.4652128219604492
1702061345552449300,11.65044921875,1.6723309755325317,-0.6399052143096924,-0.47385501861572266
1702061345569437200,11.667437255859374,1.827553391456604,-1.0767195224761963,-0.7443761825561523
1702061345586433800,11.684433837890625,2.1780059337615967,-1.4209566116333008,-1.3150010108947754
1702061345603428400,11.701428466796875,2.529468059539795,-1.7894551753997803,-1.7898435592651367
1702061345620422100,11.718422119140625,2.6140494346618652,-2.1543853282928467,-1.989156723022461
1702061345637416000,11.735416015625,2.6192245483398438,-2.543745756149292,-1.7132558822631836
1702061345654409700,11.75240966796875,2.899600028991699,-2.821059226989746,-1.4160594940185547
1702061345671403000,11.769403076171875,3.249016284942627,-2.9995388984680176,-1.280623435974121
1702061345688399400,11.7863994140625,3.247924327850342,-3.3247201442718506,-1.2177734375
1702061345705388000,11.803387939453126,3.0380263328552246,-3.446598529815674,-1.3175363540649414
1702061345722385400,11.820385498046875,2.7056055068969727,-3.4488236904144287,-1.332998275756836
1702061345739374600,11.83737451171875,2.432499408721924,-3.675133228302002,-1.101334571838379
1702061345756371200,11.85437109375,2.7703402042388916,-4.242258071899414,-1.1676578521728516
1702061345773370400,11.871370361328125,3.342944860458374,-4.543118000030518,-1.3778953552246094
1702061345790361300,11.888361328125,3.3135008811950684,-4.423087120056152,-1.4258947372436523
1702061345807345700,11.905345703125,2.6823649406433105,-4.250498294830322,-1.2209367752075195
1702061345824349700,11.922349609375,1.6198291778564453,-4.473980903625488,-0.8576993942260742
1702061345841341000,11.9393408203125,0.8513491153717041,-4.915370941162109,-0.7425355911254883
1702061345858339600,11.956339599609375,0.45238590240478516,-5.429739952087402,-1.17047119140625
1702061345875331600,11.97333154296875,0.9668593406677246,-5.770666122436523,-1.7644023895263672
1702061345892325400,11.990325439453125,2.0605692863464355,-5.6889448165893555,-2.3710503578186035
1702061345909319400,12.0073193359375,2.505974769592285,-5.790092945098877,-2.3149099349975586
1702061345926309000,12.02430908203125,1.9970996379852295,-6.261626243591309,-1.6336584091186523
1702061345943311000,12.04131103515625,1.059743881225586,-6.833724021911621,-1.2025213241577148
1702061345960301000,12.058301025390625,0.4144350290298462,-7.385232448577881,-1.2089662551879883
1702061345977295000,12.075295166015625,1.0552237033843994,-7.6587138175964355,-1.2724723815917969
1702061345994288600,12.09228857421875,2.0817811489105225,-7.462627410888672,-1.293898582458496
1702061346011283200,12.109283203125,1.6025362014770508,-7.230539321899414,-1.1039810180664062
1702061346028277200,12.12627734375,-0.09337663650512695,-7.444159507751465,-0.3851938247680664
1702061346045270800,12.143270751953125,-0.8435235023498535,-7.580960273742676,0.4742288589477539
1702061346062264300,12.160264404296875,-0.3194613456726074,-7.670908451080322,1.2113752365112305
1702061346079259100,12.177259033203125,0.8931128978729248,-7.482889175415039,1.5536842346191406
1702061346096252700,12.194252685546875,1.2951312065124512,-7.363229751586914,1.7372713088989258
1702061346113243600,12.21124365234375,0.9024827480316162,-7.429612636566162,1.452519416809082
1702061346130243300,12.228243408203125,0.267458438873291,-7.301843643188477,0.7286062240600586
1702061346147234800,12.24523486328125,-0.33522987365722656,-7.025387763977051,0.49041080474853516
1702061346164228400,12.262228271484375,-1.153759241104126,-6.850379467010498,0.8377227783203125
1702061346181225700,12.279225830078126,-1.7215399742126465,-6.711021423339844,1.7120742797851562
1702061346198202400,12.296202392578126,-1.8357231616973877,-6.546204566955566,2.302605628967285
1702061346215210500,12.31321044921875,-1.3396317958831787,-6.57568883895874,1.9023008346557617
1702061346232204300,12.330204345703125,-0.3997774124145508,-6.903287887573242,1.0987863540649414
1702061346249198300,12.3471982421875,0.5562574863433838,-7.091763496398926,0.3346529006958008
1702061346266192000,12.36419189453125,1.1820396184921265,-6.934079170227051,-0.0284423828125
1702061346283186400,12.3811865234375,1.2018821239471436,-6.515562057495117,0.0024251937866210938
1702061346300177400,12.398177490234374,1.2395539283752441,-5.950886249542236,-0.05067634582519531
1702061346317176600,12.415176513671875,1.4651817083358765,-5.5942864418029785,-0.22701454162597656
1702061346334167800,12.432167724609375,1.6259002685546875,-5.513468265533447,-0.5109291076660156
1702061346351162000,12.449162109375,1.8847522735595703,-5.350009441375732,-1.1668758392333984
1702061346368158000,12.466157958984375,1.7037742137908936,-5.1323394775390625,-1.967097282409668
1702061346385148000,12.48314794921875,1.39487886428833,-4.7852702140808105,-2.4334278106689453
1702061346402143500,12.5001435546875,1.0260740518569946,-4.13339900970459,-2.667908191680908
1702061346419137800,12.5171376953125,1.022377848625183,-3.5142438411712646,-2.7193355560302734
1702061346436131600,12.534131591796875,1.327599048614502,-3.0631773471832275,-2.519782066345215
1702061346453125600,12.551125732421875,1.7026045322418213,-2.936079502105713,-2.3013744354248047
1702061346470119200,12.568119140625,1.9262044429779053,-2.9973740577697754,-2.217535972595215
1702061346487113700,12.58511376953125,2.012881278991699,-2.901259183883667,-2.3388900756835938
1702061346504120800,12.602120849609374,2.1180920600891113,-2.592043399810791,-2.413820266723633
1702061346521101300,12.619101318359375,2.20351505279541,-2.003803253173828,-2.3689756393432617
1702061346538095000,12.63609521484375,2.120572328567505,-1.5682868957519531,-2.079671859741211
1702061346555089700,12.653089599609375,2.093735694885254,-1.4818339347839355,-1.891892433166504
1702061346572083200,12.670083251953125,2.3686554431915283,-1.5388951301574707,-2.03664493560791
1702061346589066500,12.68706640625,2.802488327026367,-1.532782793045044,-2.3299403190612793
1702061346606071000,12.704071044921875,3.27238392829895,-1.4087979793548584,-2.5384817123413086
1702061346623065300,12.7210654296875,3.5973427295684814,-1.0603067874908447,-2.595022201538086
1702061346640059100,12.73805908203125,3.236298084259033,-0.8770327568054199,-2.3805623054504395
1702061346657053000,12.755052978515625,2.686493396759033,-0.8373403549194336,-2.0933961868286133
1702061346674046700,12.772046630859375,2.3542022705078125,-0.7414236068725586,-1.9726810455322266
1702061346691041300,12.789041259765625,2.203620433807373,-0.5201549530029297,-1.9618940353393555
1702061346708034600,12.80603466796875,2.288081407546997,-0.33237695693969727,-1.881941795349121
1702061346725028600,12.823028564453125,2.4788315296173096,-0.08434534072875977,-1.7506036758422852
1702061346742010400,12.84001025390625,2.655806541442871,0.027319908142089844,-1.4510650634765625
1702061346759008000,12.857008056640625,2.737886428833008,-0.03708839416503906,-0.9602999687194824
1702061346776013300,12.874013427734376,3.018319606781006,-0.05312824249267578,-0.6711039543151855
1702061346793004500,12.891004638671875,3.4394419193267822,0.1591324806213379,-0.6326360702514648
1702061346809998000,12.907998046875,3.8401665687561035,0.3088340759277344,-0.526911735534668
1702061346826992600,12.92499267578125,4.082989692687988,0.42165660858154297,-0.3318209648132324
1702061346843986400,12.941986328125,3.9094486236572266,0.5018925666809082,-0.12650728225708008
1702061346860980200,12.958980224609375,3.4104385375976562,0.24590158462524414,0.047246456146240234
1702061346877974000,12.97597412109375,2.865363121032715,0.16019678115844727,-0.050665855407714844
1702061346894968300,12.99296826171875,2.7789251804351807,0.4858560562133789,-0.044356346130371094
1702061346911951600,13.00995166015625,2.8861136436462402,0.8096375465393066,0.4610910415649414
1702061346928956200,13.0269560546875,2.7322869300842285,1.0111517906188965,1.1873507499694824
1702061346945945600,13.043945556640624,2.2664358615875244,0.9304189682006836,1.6652822494506836
1702061346962948400,13.0609482421875,1.7355276346206665,0.49254608154296875,1.9258112907409668
1702061346979937800,13.077937744140625,1.37295401096344,0.31844186782836914,1.512911319732666
1702061346996932000,13.09493212890625,1.2142999172210693,0.43709850311279297,1.024458885192871
1702061347013925400,13.11192529296875,1.1476166248321533,0.7413825988769531,1.0666875839233398
1702061347030920000,13.128919921875,0.8919391632080078,1.0899724960327148,1.7992658615112305
1702061347047913700,13.145913818359375,0.45331311225891113,1.0758624076843262,2.832890510559082
1702061347064907800,13.16290771484375,0.1828608512878418,0.7368049621582031,2.974940776824951
1702061347081901300,13.1799013671875,0.5899486541748047,0.7262692451477051,2.2064871788024902
1702061347098896000,13.196895751953125,1.1634528636932373,1.0760059356689453,1.6000804901123047
1702061347115889700,13.2138896484375,1.3078445196151733,1.4371442794799805,1.6506414413452148
1702061347132880600,13.230880615234375,0.6519758701324463,1.5420513153076172,2.2635955810546875
1702061347149879800,13.2478798828125,-0.2941751480102539,1.225876808166504,2.895371913909912
1702061347166871600,13.26487158203125,-0.9491302967071533,0.9729909896850586,2.406492233276367
1702061347183855600,13.281855712890625,-1.0880506038665771,0.9117889404296875,1.403864860534668
1702061347200859100,13.298859130859375,-0.9623928070068359,0.7445464134216309,1.0610504150390625
1702061347217852700,13.315852783203125,-0.8660249710083008,0.6234035491943359,0.8395700454711914
1702061347234847200,13.33284716796875,-0.9088571071624756,0.7104878425598145,0.8518896102905273
1702061347251841000,13.349841064453125,-0.9814431667327881,0.9148712158203125,1.3975543975830078
1702061347268834800,13.366834716796875,-1.0178945064544678,0.6995267868041992,2.107804298400879
1702061347285828600,13.38382861328125,-0.9383077621459961,0.32465219497680664,2.660252571105957
1702061347302823700,13.40082373046875,-0.7278521060943604,0.19019079208374023,2.9385085105895996
1702061347319816400,13.41781640625,-0.8836088180541992,0.2556004524230957,2.986316204071045
1702061347336810500,13.434810546875,-0.9816524982452393,0.19002342224121094,3.0108776092529297
1702061347353804500,13.451804443359375,-0.6735455989837646,0.2365398406982422,3.1382603645324707
1702061347370780400,13.468780517578125,-0.3815274238586426,0.3074836730957031,3.1107263565063477
1702061347387792600,13.485792724609375,0.09698033332824707,0.4409499168395996,3.1385741233825684
1702061347404783400,13.502783447265625,0.48827433586120605,0.29180908203125,3.257455825805664
1702061347421783300,13.519783203125,0.5225862264633179,-0.09011507034301758,2.9481124877929688
1702061347438764000,13.536763916015625,0.6814079284667969,-0.3527064323425293,2.113100051879883
1702061347455768600,13.5537685546875,1.0666342973709106,-0.42351627349853516,1.422612190246582
1702061347472762400,13.570762451171875,1.574398398399353,-0.3158102035522461,1.0356025695800781
1702061347489756000,13.587755859375,2.07413911819458,-0.24067258834838867,0.8088235855102539
1702061347506750500,13.60475048828125,2.1671509742736816,-0.37289953231811523,0.6755552291870117
1702061347523744300,13.621744140625,1.6903014183044434,-0.5821967124938965,0.5799417495727539
1702061347540733200,13.638733154296874,1.6981253623962402,-0.46065759658813477,0.2052774429321289
1702061347557731800,13.65573193359375,1.9303078651428223,-0.23505640029907227,-0.30159997940063477
1702061347574726100,13.67272607421875,2.223529100418091,-0.13081026077270508,-0.7281322479248047
1702061347591720000,13.689719970703125,2.364323616027832,-0.12850236892700195,-0.9143657684326172
1702061347608713700,13.706713623046875,2.243004322052002,-0.1428847312927246,-0.9830918312072754
1702061347625707500,13.72370751953125,2.222106456756592,-0.08094596862792969,-1.2785139083862305
1702061347642702000,13.7407021484375,2.0076022148132324,-0.03425741195678711,-1.6573753356933594
1702061347659695600,13.757695556640625,1.7784110307693481,0.08588600158691406,-2.235896587371826
1702061347676689400,13.774689453125,1.662379264831543,0.07230806350708008,-2.6987247467041016
1702061347693686500,13.7916865234375,2.276796579360962,-0.29581546783447266,-2.392124652862549
1702061347710674400,13.80867431640625,2.7840023040771484,-0.5263128280639648,-1.599196434020996
1702061347727671300,13.82567138671875,2.9570839405059814,-0.5387673377990723,-1.366415023803711
1702061347744665600,13.84266552734375,2.7587387561798096,-0.49216556549072266,-1.9243097305297852
1702061347761650000,13.85964990234375,2.3761789798736572,-0.5197415351867676,-2.720895767211914
1702061347778653400,13.8766533203125,2.1029677391052246,-0.7499775886535645,-3.3700199127197266
1702061347795647200,13.893647216796875,2.324371576309204,-1.0785341262817383,-3.4806947708129883
1702061347812646700,13.910646728515625,2.456146001815796,-1.1969304084777832,-3.074460983276367
1702061347829634800,13.927634765625,2.451171875,-1.2775859832763672,-2.491872787475586
1702061347846629000,13.944629150390625,2.346059799194336,-1.440321445465088,-2.1587142944335938
1702061347863623000,13.961622802734375,2.0335705280303955,-1.5701065063476562,-1.98394775390625
1702061347880616700,13.97861669921875,1.9246913194656372,-1.9295573234558105,-1.7166566848754883
1702061347897600300,13.995600341796875,1.6566959619522095,-2.2303097248077393,-1.6228046417236328
1702061347914605000,14.01260498046875,1.308780550956726,-2.4635531902313232,-1.6504096984863281
1702061347931598800,14.029598876953125,1.1125575304031372,-2.838116407394409,-1.6389827728271484
1702061347948578300,14.046578369140626,1.0300517082214355,-3.0152859687805176,-1.601881980895996
1702061347965586200,14.063586181640625,0.8952043652534485,-3.241642713546753,-1.552408218383789
1702061347982580700,14.080580810546875,0.530768871307373,-3.6096081733703613,-1.426318645477295
1702061347999574300,14.09757421875,0.08089815080165863,-3.9244821071624756,-1.3238821029663086
1702061348016553200,14.11455322265625,-0.2589159905910492,-4.0842180252075195,-1.355142593383789
1702061348033559300,14.131559326171875,-0.683558464050293,-4.304187774658203,-1.5120124816894531
1702061348050559000,14.14855908203125,-1.0988174676895142,-4.579972267150879,-1.744633674621582
1702061348067559400,14.165559326171875,-1.43409264087677,-4.758625030517578,-2.1173458099365234
1702061348084541400,14.18254150390625,-1.822609543800354,-4.944375038146973,-2.3707828521728516
1702061348101537800,14.199537841796875,-2.154709577560425,-5.167946815490723,-2.7057743072509766
1702061348118535000,14.216534912109376,-2.020623207092285,-5.381214141845703,-3.142435073852539
1702061348135526100,14.233526123046875,-1.4951409101486206,-5.4658918380737305,-3.6372365951538086
1702061348152520000,14.25052001953125,-1.0979639291763306,-5.583001613616943,-4.094454765319824
1702061348169496000,14.26749609375,-1.1148686408996582,-6.468294143676758,-4.112144470214844
1702061348186505500,14.28450537109375,-1.1212742328643799,-7.16922664642334,-3.8333377838134766
1702061348203501800,14.301501708984375,-1.0614676475524902,-7.499449729919434,-3.1523866653442383
1702061348220493300,14.318493408203125,-1.33376145362854,-7.245153427124023,-2.183350086212158
1702061348237491700,14.33549169921875,-2.0624396800994873,-6.898035526275635,-0.8536272048950195
1702061348254483700,14.352483642578125,-2.786768674850464,-6.731649875640869,0.5709352493286133
1702061348271477500,14.3694775390625,-3.3621535301208496,-6.849090099334717,1.6781911849975586
1702061348288471300,14.38647119140625,-3.246391773223877,-7.369535446166992,2.0452919006347656
1702061348305459700,14.403459716796876,-3.4429445266723633,-7.815498352050781,1.6349849700927734
1702061348322459400,14.42045947265625,-3.9455933570861816,-7.950445652008057,0.7496252059936523
1702061348339453400,14.437453369140625,-4.813709259033203,-7.962116718292236,0.2940940856933594
1702061348356447000,14.454447021484375,-4.8556718826293945,-7.580590724945068,0.5239725112915039
1702061348373440800,14.471440673828125,-5.089518070220947,-7.310774803161621,1.3868112564086914
1702061348390424800,14.4884248046875,-5.209935665130615,-7.4731011390686035,2.153594970703125
1702061348407429000,14.50542919921875,-4.725968360900879,-7.415816307067871,1.7152080535888672
1702061348424412400,14.522412353515625,-3.5336599349975586,-7.15016508102417,0.6637363433837891
1702061348441416400,14.53941650390625,-2.3390369415283203,-6.888077259063721,-0.016693115234375
1702061348458411000,14.556410888671875,-1.6598610877990723,-6.550002574920654,-0.19083881378173828
1702061348475402000,14.573402099609375,-1.6174901723861694,-6.459958076477051,0.07981204986572266
1702061348492391400,14.590391357421876,-1.8622485399246216,-6.435555934906006,0.1998443603515625
1702061348509392400,14.607392333984375,-1.940185546875,-6.295622825622559,-0.2183675765991211
1702061348526388200,14.62438818359375,-1.7013473510742188,-5.857949256896973,-1.0445318222045898
1702061348543382000,14.641382080078126,-1.3513785600662231,-5.461167335510254,-1.6688594818115234
1702061348560371500,14.658371337890625,-0.8135477304458618,-5.247841835021973,-2.001143455505371
1702061348577368000,14.6753681640625,-0.302595853805542,-5.068857669830322,-2.140836715698242
1702061348594362400,14.6923623046875,0.1675456315279007,-4.814703941345215,-2.3053483963012695
1702061348611356200,14.709356201171875,0.5556595325469971,-4.722820281982422,-2.2336673736572266
1702061348628350200,14.72635009765625,0.758294939994812,-4.418723106384277,-2.1044321060180664
1702061348645343700,14.74334375,0.7852859497070312,-3.9326722621917725,-2.104660987854004
1702061348662338300,14.76033837890625,0.6047278642654419,-3.503373861312866,-2.178610324859619
1702061348679317200,14.777317138671876,0.5373258590698242,-3.16219162940979,-2.1904549598693848
1702061348696326000,14.794325927734375,0.6993260383605957,-2.919062614440918,-2.0202255249023438
1702061348713319400,14.8113193359375,0.7495616674423218,-2.5031087398529053,-1.9154996871948242
1702061348730314000,14.82831396484375,0.6313669681549072,-2.2761547565460205,-1.9621176719665527
1702061348747307500,14.8453076171875,0.4386059045791626,-2.0465056896209717,-2.1244187355041504
1702061348764301600,14.862301513671875,0.6541553735733032,-1.7886271476745605,-2.1750383377075195
1702061348781295000,14.879295166015625,1.0446516275405884,-1.3251585960388184,-2.2419586181640625
1702061348798289700,14.89628955078125,1.0107014179229736,-0.9720625877380371,-2.356466293334961
1702061348815283500,14.913283447265625,0.6371794939041138,-0.8171472549438477,-2.284374713897705
1702061348832279300,14.930279296875,0.3305222988128662,-0.6228528022766113,-2.1385717391967773
1702061348849266400,14.947266357421874,0.5721631050109863,-0.4118828773498535,-2.1327829360961914
1702061348866265300,14.964265380859375,1.197317123413086,-0.41551685333251953,-2.115035057067871
1702061348883248600,14.98124853515625,1.6859585046768188,-0.6414570808410645,-1.931391716003418
1702061348900253000,14.9982529296875,2.014326572418213,-0.6804442405700684,-1.8164410591125488
1702061348917249300,15.015249267578126,2.426689863204956,-0.581151008605957,-1.588552474975586
1702061348934241300,15.0322412109375,2.766296625137329,-0.3521919250488281,-1.3573551177978516
1702061348951235000,15.049235107421875,3.013493537902832,0.03301382064819336,-0.9955334663391113
1702061348968228900,15.066228759765625,2.9299662113189697,0.1448211669921875,-0.4652256965637207
1702061348985212000,15.0832119140625,2.7670016288757324,-0.051293373107910156,-0.32658815383911133
1702061349002217000,15.100217041015625,2.8543026447296143,0.1466836929321289,-0.743833065032959
1702061349019210500,15.11721044921875,3.446258544921875,0.35111236572265625,-0.6734108924865723
1702061349036204500,15.13420458984375,3.7292840480804443,0.6469850540161133,-0.37779998779296875
1702061349053198300,15.1511982421875,3.5907652378082275,0.9030642509460449,-0.017800331115722656
1702061349070192600,15.168192626953125,3.241051197052002,0.8235030174255371,0.27419376373291016
1702061349087188500,15.1851884765625,2.9753265380859375,0.7142186164855957,0.06189107894897461
1702061349104179700,15.2021796875,3.154855966567993,0.6897602081298828,-0.20452499389648438
1702061349121173800,15.219173828125,3.5874106884002686,0.6388125419616699,-0.14813804626464844
1702061349138168600,15.23616845703125,3.7244648933410645,0.6540541648864746,0.2578921318054199
1702061349155162000,15.253162109375,3.1597986221313477,0.49376916885375977,0.8610572814941406
1702061349172156000,15.270156005859375,2.4952383041381836,0.24636507034301758,1.1216793060302734
1702061349189149700,15.287149658203125,2.27327561378479,0.19664621353149414,0.8343420028686523
1702061349206144500,15.30414453125,2.6712698936462402,0.25536251068115234,0.9250822067260742
1702061349223137800,15.3211376953125,2.6874022483825684,0.30594396591186523,1.87797212600708
1702061349240131800,15.3381318359375,1.9010484218597412,0.029237747192382812,3.193387508392334
1702061349257121800,15.355121826171874,1.1612942218780518,-0.21181821823120117,3.6230406761169434
1702061349274123500,15.37212353515625,0.8416407108306885,-0.1375885009765625,3.1656103134155273
1702061349291111000,15.38911083984375,0.8902480602264404,0.06941795349121094,2.4907727241516113
1702061349308110000,15.406110107421876,0.8349671363830566,0.25388669967651367,2.187530517578125
1702061349325101300,15.423101318359375,0.2689852714538574,0.10862922668457031,2.4378561973571777
1702061349342095600,15.440095703125,-0.3513460159301758,-0.05536317825317383,2.7259063720703125
1702061349359092000,15.457092041015626,-0.4389383792877197,0.3800196647644043,2.4726438522338867
1702061349376080600,15.47408056640625,0.09195590019226074,0.7310023307800293,2.2486400604248047
1702061349393077000,15.491076904296875,0.8380398750305176,0.8839554786682129,2.290572166442871
1702061349410071600,15.508071533203125,1.118483543395996,0.7803487777709961,2.66658353805542
1702061349427065000,15.525065185546875,1.0266220569610596,0.5259757041931152,3.238208293914795
1702061349444059100,15.54205908203125,0.586925745010376,0.18964004516601562,3.4441323280334473
1702061349461052700,15.559052734375,0.3193397521972656,-0.052048683166503906,3.1357979774475098
1702061349478044400,15.57604443359375,-0.08775043487548828,0.10331487655639648,2.739163398742676
1702061349495043600,15.593043701171876,-0.29950499534606934,0.494687557220459,2.460522174835205
1702061349512024300,15.6100244140625,-0.4096949100494385,0.6758565902709961,2.536195755004883
1702061349529028000,15.627028076171875,-0.48163485527038574,0.6072134971618652,2.800016403198242
1702061349546023000,15.64402294921875,-0.4069035053253174,0.5299720764160156,3.116776466369629
1702061349563012600,15.6610126953125,-0.5128228664398193,0.5268874168395996,3.2924647331237793
1702061349580014300,15.678014404296874,-0.676501989364624,0.5591111183166504,3.2309117317199707
1702061349597004000,15.695004150390625,-0.7026576995849609,0.6190018653869629,2.9004740715026855
1702061349613998600,15.71199853515625,-0.30933594703674316,0.7600054740905762,2.463390827178955
1702061349630991600,15.72899169921875,0.5375607013702393,0.8155102729797363,2.2038731575012207
1702061349647985700,15.745985595703125,1.6566977500915527,0.6821355819702148,2.2857842445373535
1702061349664981200,15.762981201171876,2.5131962299346924,0.5972795486450195,2.649237632751465
1702061349681974300,15.779974365234375,2.9157683849334717,0.6213469505310059,2.931974411010742
1702061349698967800,15.7969677734375,2.8008899688720703,0.715247631072998,2.5912227630615234
1702061349715961900,15.8139619140625,2.421151638031006,0.7442412376403809,1.779430866241455
1702061349732955400,15.830955322265625,1.9956629276275635,0.6977715492248535,0.9969305992126465
1702061349749950000,15.847949951171875,2.037262439727783,0.6023797988891602,0.6063504219055176
1702061349766943700,15.86494384765625,2.4985952377319336,0.5580687522888184,0.5091805458068848
1702061349783937500,15.8819375,2.976949691772461,0.5258946418762207,0.5843281745910645
1702061349800928000,15.898927978515625,3.236203908920288,0.5871047973632812,0.7279276847839355
1702061349817929200,15.91592919921875,3.146409511566162,0.6070446968078613,0.7960987091064453
1702061349834919400,15.93291943359375,2.7300689220428467,0.5882072448730469,0.43547582626342773
1702061349851913500,15.94991357421875,2.2596163749694824,0.5186653137207031,-0.31116628646850586
1702061349868907000,15.966906982421875,2.0538411140441895,0.49109411239624023,-1.1781797409057617
1702061349885891000,15.98389111328125,2.2384297847747803,0.30564069747924805,-1.5251855850219727
1702061349902895400,16.000895263671875,2.3955795764923096,0.10065793991088867,-1.3561859130859375
1702061349919889000,16.017888916015625,2.200788736343384,0.13192176818847656,-1.1352729797363281
1702061349936870000,16.034869873046876,1.661147117614746,0.20011472702026367,-1.0385427474975586
1702061349953869300,16.051869384765624,1.2267392873764038,0.19842815399169922,-1.1565213203430176
1702061349970870800,16.068870849609375,0.9344687461853027,0.03427839279174805,-1.4334650039672852
1702061349987864800,16.08586474609375,0.9827550053596497,-0.44226503372192383,-1.5386829376220703
1702061350004855300,16.102855224609375,1.4945064783096313,-1.0620408058166504,-1.3490233421325684
1702061350021856000,16.11985595703125,2.1418213844299316,-1.2921690940856934,-1.3184986114501953
1702061350038837200,16.136837158203125,2.341327667236328,-1.4362828731536865,-1.391859531402588
1702061350055835600,16.153835693359376,2.035393476486206,-1.7583489418029785,-1.3315849304199219
1702061350072838100,16.170838134765624,1.629617691040039,-2.211545467376709,-1.1564416885375977
1702061350089828600,16.18782861328125,1.4127304553985596,-2.50130295753479,-1.0841445922851562
1702061350106822400,16.204822509765624,1.046765685081482,-2.677156448364258,-0.9802570343017578
1702061350123816200,16.221816162109373,0.5656884908676147,-2.5201756954193115,-0.5243215560913086
1702061350140807200,16.23880712890625,0.36578524112701416,-2.531301736831665,-0.23073482513427734
1702061350157807000,16.25580712890625,0.6435047388076782,-2.7427351474761963,-0.26447010040283203
1702061350174798000,16.272798095703124,0.7857666611671448,-3.3124449253082275,-0.4052724838256836
1702061350191792000,16.289792236328125,1.022643804550171,-3.7671878337860107,-0.8078269958496094
1702061350208785700,16.30678564453125,1.1056801080703735,-4.106917858123779,-1.4755229949951172
1702061350225772000,16.32377197265625,0.843721330165863,-4.4101715087890625,-2.08522891998291
1702061350242772000,16.34077197265625,0.4112548828125,-4.674471378326416,-2.61086368560791
1702061350259769600,16.35776953125,0.4590173363685608,-4.9680495262146,-2.6818008422851562
1702061350276761300,16.37476123046875,0.6887109279632568,-4.954737186431885,-2.3670578002929688
1702061350293755600,16.391755615234374,0.8409981727600098,-4.885514259338379,-1.8773765563964844
1702061350310749400,16.40874951171875,0.9560467600822449,-5.033114910125732,-1.4883193969726562
1702061350327743200,16.4257431640625,0.7929909229278564,-5.418312072753906,-1.256709098815918
1702061350344737000,16.442737060546875,0.3475877046585083,-5.780410289764404,-1.309988021850586
1702061350361731300,16.4597314453125,-0.4117480516433716,-5.945138454437256,-1.4619817733764648
1702061350378722800,16.476722900390627,-1.3165252208709717,-5.9339189529418945,-1.8281059265136719
1702061350395721500,16.493721435546874,-1.884415864944458,-5.916048049926758,-2.000250816345215
1702061350412712700,16.510712646484375,-2.3132333755493164,-6.112383842468262,-1.448063850402832
1702061350429703400,16.527703369140625,-2.3501172065734863,-6.429726600646973,-0.9248895645141602
1702061350446705000,16.544704833984376,-2.6129534244537354,-6.813593864440918,-0.5739574432373047
1702061350463694800,16.56169482421875,-2.4511005878448486,-6.776471138000488,-0.16519451141357422
1702061350480688400,16.5786884765625,-1.5412425994873047,-6.471867561340332,0.07392406463623047
1702061350497683000,16.595682861328125,-0.2699117064476013,-6.360809803009033,0.4819469451904297
1702061350514676700,16.6126767578125,0.12072873115539551,-6.3993754386901855,0.8113365173339844
1702061350531670500,16.62967041015625,-0.010296337306499481,-6.40431022644043,0.6717891693115234
1702061350548664000,16.6466640625,-0.5888932347297668,-6.573690414428711,0.5037288665771484
1702061350565658600,16.66365869140625,-1.4121079444885254,-6.544381141662598,0.5251169204711914
1702061350582652400,16.68065234375,-2.1639411449432373,-6.3795671463012695,1.0486164093017578
1702061350599646200,16.697646240234373,-2.399754285812378,-6.127161502838135,1.893758773803711
1702061350616639700,16.7146396484375,-2.4891397953033447,-6.154023170471191,2.5335683822631836
1702061350633634300,16.73163427734375,-2.3898119926452637,-5.962228775024414,2.103961944580078
1702061350650628000,16.748628173828124,-1.9135663509368896,-5.9077959060668945,1.354440689086914
1702061350667622000,16.765621826171873,-1.3119962215423584,-6.0444135665893555,1.100900650024414
1702061350684615400,16.782615478515623,-1.023833990097046,-6.094642639160156,1.3524713516235352
1702061350701610000,16.79960986328125,-1.0028467178344727,-5.947507858276367,1.352116584777832
1702061350718603800,16.816603759765623,-0.9023652672767639,-5.682300567626953,0.6653900146484375
1702061350735597600,16.83359765625,-0.7634627819061279,-5.3102569580078125,-0.39987850189208984
1702061350752586000,16.8505859375,-0.6470494270324707,-5.0598602294921875,-1.3281402587890625
1702061350769588200,16.867588134765626,-0.5938255190849304,-5.098485946655273,-1.713059902191162
1702061350786579200,16.8845791015625,-0.9041371941566467,-5.212195873260498,-1.7393693923950195
1702061350803573200,16.9015732421875,-1.0129761695861816,-4.795185089111328,-2.149777412414551
1702061350820566000,16.91856591796875,-0.7280638217926025,-4.1529541015625,-2.520824432373047
1702061350837562400,16.935562255859374,-0.1440204679965973,-3.567303419113159,-2.511734962463379
1702061350854555100,16.95255517578125,0.6242474913597107,-3.3303468227386475,-2.261122703552246
1702061350871549000,16.969548828125,1.0931422710418701,-3.46808123588562,-1.7212762832641602
1702061350888542500,16.98654248046875,1.3752957582473755,-3.4526045322418213,-1.5484619140625
1702061350905527000,17.003527099609375,1.4435126781463623,-3.1154496669769287,-1.8099489212036133
1702061350922530800,17.02053076171875,1.5844955444335938,-2.681425094604492,-1.9919767379760742
1702061350939524600,17.037524658203125,1.7309420108795166,-2.3828349113464355,-1.7570514678955078
1702061350956508000,17.0545078125,1.6236436367034912,-2.2150142192840576,-0.9204311370849609
1702061350973513000,17.071512939453125,1.3105990886688232,-1.7990615367889404,-0.40981197357177734
1702061350990508800,17.0885087890625,0.946273684501648,-1.356200933456421,-0.49860286712646484
1702061351007498200,17.105498291015625,0.9710932374000549,-1.1219065189361572,-0.9350376129150391
1702061351024494000,17.122494140625,1.4388282299041748,-0.8508422374725342,-1.3839483261108398
1702061351041488400,17.13948828125,1.9727234840393066,-0.6465137004852295,-1.5796537399291992
1702061351058482200,17.156482177734375,2.219109058380127,-0.5021944046020508,-1.5747861862182617
1702061351075476200,17.173476318359373,2.3497989177703857,-0.3130683898925781,-1.4661478996276855
1702061351092469800,17.1904697265625,2.4823882579803467,-0.17549467086791992,-1.2177276611328125
1702061351109464300,17.20746435546875,2.6752021312713623,-0.05594301223754883,-1.0033950805664062
1702061351126457900,17.224457763671875,2.749117612838745,0.2540745735168457,-1.028696060180664
1702061351143452000,17.241451904296873,2.39799427986145,0.37638282775878906,-1.1279640197753906
1702061351160445400,17.258445556640623,1.7187879085540771,0.5013556480407715,-1.1739544868469238
1702061351177439700,17.275439697265625,1.1386449337005615,0.6097245216369629,-1.0483908653259277
1702061351194433500,17.29243359375,0.7498793601989746,0.6489486694335938,-0.7384519577026367
1702061351211424300,17.30942431640625,0.8461129665374756,0.7500405311584473,-0.3022737503051758
1702061351228421000,17.326421142578123,1.3152601718902588,0.8967142105102539,0.09568166732788086
1702061351245405200,17.3434052734375,1.967729926109314,0.9932746887207031,0.43152570724487305
1702061351262409200,17.3604091796875,2.7099196910858154,1.085352897644043,0.6861696243286133
1702061351279395600,17.3773955078125,3.1732046604156494,1.137784481048584,0.7493023872375488
1702061351296396800,17.394396728515623,3.1909995079040527,1.1822996139526367,0.7493033409118652
1702061351313391400,17.411391357421873,2.948974847793579,1.309835433959961,0.7261571884155273
1702061351330385200,17.42838525390625,2.576573371887207,1.5330805778503418,0.7150216102600098
1702061351347379000,17.44537890625,2.4432525634765625,1.868335485458374,0.7728815078735352
1702061351364372500,17.46237255859375,2.3231961727142334,1.9573259353637695,1.0389208793640137
1702061351381367300,17.4793671875,2.2425050735473633,1.7236900329589844,1.135366439819336
1702061351398360800,17.49636083984375,2.0691282749176025,1.3837847709655762,1.03501558303833
1702061351415356700,17.513356689453126,2.0386428833007812,1.23146390914917,0.5526032447814941
1702061351432346400,17.530346435546875,1.901283860206604,1.2377300262451172,0.18987083435058594
1702061351449342500,17.547342529296873,1.6129329204559326,1.2211308479309082,0.5722155570983887
1702061351466336500,17.56433642578125,1.1419570446014404,0.8412332534790039,1.1988186836242676
1702061351483330300,17.581330322265625,0.8216078281402588,0.5340971946716309,1.1678824424743652
1702061351500323800,17.59832373046875,0.6916801929473877,0.4829540252685547,0.781583309173584
1702061351517318400,17.615318359375,0.6106290817260742,0.7309861183166504,0.3565802574157715
1702061351534301400,17.632301513671877,0.5143036842346191,1.1246271133422852,0.6209793090820312
1702061351551306000,17.649305908203125,0.33677053451538086,0.9768848419189453,1.6756315231323242
1702061351568299800,17.6662998046875,0.5519108772277832,0.6256585121154785,2.7298107147216797
1702061351585294000,17.683294189453125,1.1703176498413086,0.49190235137939453,3.302532196044922
1702061351602288000,17.7002880859375,1.7443158626556396,0.4105367660522461,3.2965407371520996
1702061351619281700,17.71728173828125,1.9062461853027344,0.43564558029174805,2.850274085998535
1702061351636275200,17.734275146484375,1.6320583820343018,0.556337833404541,2.628006935119629
1702061351653269800,17.751269775390625,1.0999817848205566,0.5487117767333984,3.6476197242736816
1702061351670253300,17.76825341796875,0.6347243785858154,0.5632796287536621,4.8716607093811035
1702061351687257900,17.7852578125,0.3397977352142334,0.665769100189209,5.177420616149902
1702061351704250600,17.802250732421875,0.15885281562805176,0.5790562629699707,4.674536228179932
1702061351721245400,17.819245361328125,0.06024646759033203,0.40903759002685547,4.062930583953857
1702061351738239200,17.8362392578125,-0.12772178649902344,0.22816038131713867,3.562178611755371
1702061351755233000,17.85323291015625,-0.41159939765930176,0.16591691970825195,3.6507487297058105
1702061351772226600,17.8702265625,-0.8132178783416748,0.21164989471435547,4.262035369873047
1702061351789221000,17.88722119140625,-0.8453009128570557,0.43892812728881836,4.3520331382751465
1702061351806215000,17.90421484375,-0.7513787746429443,0.510678768157959,3.8494105339050293
1702061351823208700,17.921208740234373,-0.5240540504455566,0.5719413757324219,3.0083155632019043
1702061351840202200,17.9382021484375,-0.10733866691589355,0.7036147117614746,2.2685279846191406
1702061351857197300,17.955197265625,0.19489812850952148,0.7693214416503906,1.847651481628418
1702061351874195200,17.9721953125,0.5803368091583252,0.7504739761352539,1.9897994995117188
1702061351891184400,17.989184326171873,0.684483528137207,0.6845035552978516,2.7757444381713867
1702061351908178200,18.00617822265625,0.758713960647583,0.5508589744567871,3.13578462600708
1702061351925172500,18.02317236328125,1.1453783512115479,0.5128192901611328,2.5166473388671875
1702061351942166300,18.040166259765623,1.7225922346115112,0.6413249969482422,1.4896636009216309
1702061351959160000,18.05716015625,2.1401994228363037,0.7826638221740723,0.8242254257202148
1702061351976153600,18.074153564453123,2.2125470638275146,0.9180455207824707,0.5398116111755371
1702061351993148200,18.091148193359373,2.0462889671325684,1.0362920761108398,0.5230827331542969
1702061352010142200,18.10814208984375,1.8191839456558228,0.8074307441711426,1.0390725135803223
1702061352027135700,18.1251357421875,1.7044438123703003,0.43210363388061523,1.2144222259521484
1702061352044129300,18.14212939453125,1.6464824676513672,0.294095516204834,0.2403726577758789
1702061352061111600,18.159111572265626,2.0774986743927,0.8072209358215332,-1.2511892318725586
1702061352078117600,18.17611767578125,2.558685779571533,1.5742785930633545,-2.0187625885009766
1702061352095111400,18.193111328125,2.6814565658569336,1.8764619827270508,-1.7049541473388672
1702061352112105000,18.21010498046875,2.577385663986206,1.6344614028930664,-0.6839046478271484
1702061352129099500,18.227099609375,2.5069046020507812,1.4940028190612793,0.04623889923095703
1702061352146101500,18.2441015625,2.790408134460449,1.4233112335205078,-0.08545207977294922
1702061352163087000,18.261087158203125,3.2617249488830566,1.2801380157470703,-0.626917839050293
1702061352180080600,18.27808056640625,3.9677791595458984,1.0244717597961426,-1.039778709411621
1702061352197060900,18.295060791015626,4.425886154174805,0.7659955024719238,-1.1311931610107422
1702061352214066400,18.31206640625,4.220286846160889,0.4165029525756836,-0.9275531768798828
1702061352231065300,18.3290654296875,3.602942943572998,0.10717940330505371,-0.8290252685546875
1702061352248056300,18.346056396484375,2.8518259525299072,-0.04126620292663574,-1.0889949798583984
1702061352265050600,18.363050537109373,2.335628032684326,-0.05143117904663086,-1.7183504104614258
1702061352282046000,18.3800458984375,1.8711239099502563,-0.19529438018798828,-2.2267184257507324
1702061352299037000,18.397036865234377,1.6705714464187622,-0.4667041301727295,-2.6024274826049805
1702061352316030200,18.4140302734375,1.7829740047454834,-0.7798936367034912,-2.8083019256591797
1702061352333026600,18.431026611328125,1.884429693222046,-0.9900155067443848,-2.6902060508728027
1702061352350020400,18.448020263671875,1.722631573677063,-1.3194756507873535,-2.055074691772461
1702061352367014100,18.46501416015625,1.1230591535568237,-1.7800092697143555,-1.5418815612792969
1702061352384007700,18.482007568359375,0.4938927888870239,-2.1110620498657227,-1.393631935119629
1702061352401002500,18.49900244140625,0.4499211311340332,-2.2523090839385986,-1.4168643951416016
1702061352417996000,18.51599609375,0.7741060853004456,-2.757845401763916,-1.362910270690918
1702061352434989300,18.5329892578125,0.9881212115287781,-3.147646427154541,-1.8124265670776367
1702061352451973400,18.549973388671877,0.8611410856246948,-3.638796806335449,-2.202787399291992
1702061352468978000,18.56697802734375,0.4551384449005127,-4.008284568786621,-2.5342330932617188
1702061352485971700,18.5839716796875,0.11757320165634155,-3.9291086196899414,-2.420224189758301
1702061352502965800,18.6009658203125,0.07984906435012817,-3.9094557762145996,-1.85725736618042
1702061352519959000,18.617958984375,0.05044907331466675,-4.425244331359863,-1.2033720016479492
1702061352536943000,18.634943115234375,0.08741062879562378,-5.3216400146484375,-1.1566171646118164
1702061352553944600,18.651944580078126,0.21954500675201416,-6.050665378570557,-1.5290870666503906
1702061352570943700,18.66894384765625,0.16373807191848755,-6.35434103012085,-2.131270408630371
1702061352587934700,18.685934814453127,-0.11692965030670166,-6.581873893737793,-2.322281837463379
1702061352604929300,18.70292919921875,-1.2064924240112305,-6.6767497062683105,-0.9787578582763672
1702061352621923000,18.719923095703123,-2.3486177921295166,-6.646315574645996,1.0620908737182617
1702061352638916900,18.736916748046873,-2.6821682453155518,-6.701396465301514,2.21840763092041
1702061352655910400,18.753910400390627,-2.1927099227905273,-6.551939010620117,1.726461410522461
1702061352672907800,18.77090771484375,-1.5033100843429565,-6.417675018310547,0.31414031982421875
1702061352689895700,18.787895751953126,-0.8579769134521484,-6.829176902770996,-0.7887496948242188
1702061352706879000,18.80487890625,-0.727889895439148,-7.632304668426514,-0.528071403503418
1702061352723886000,18.821885986328127,-1.2558263540267944,-8.133421897888184,0.8068437576293945
1702061352740880600,18.838880615234373,-1.9557323455810547,-8.159823417663574,1.6215486526489258
1702061352757874200,18.855874267578123,-2.180783748626709,-7.596308708190918,0.9530677795410156
1702061352774868200,18.8728681640625,-2.191439151763916,-7.257727146148682,0.015832901000976562
1702061352791861800,18.88986181640625,-1.803213357925415,-6.8208770751953125,-0.6366806030273438
1702061352808856600,18.906856689453125,-1.374229073524475,-6.677468299865723,-0.021805763244628906
1702061352825849900,18.923849853515627,-1.6002321243286133,-6.7588276863098145,1.2854928970336914
1702061352842833200,18.940833251953126,-1.845839023590088,-6.875241279602051,2.1390514373779297
1702061352859837400,18.95783740234375,-1.8079402446746826,-6.86659049987793,1.865732192993164
1702061352876829400,18.974829345703125,-1.6074367761611938,-6.787511348724365,0.7224750518798828
1702061352893825500,18.991825439453127,-1.1671843528747559,-6.240199565887451,-0.8233518600463867
1702061352910822100,19.008822265625,-0.9913379549980164,-5.71827507019043,-1.782135009765625
1702061352927810600,19.025810546875,-1.098252296447754,-5.6636457443237305,-1.9706392288208008
1702061352944803300,19.04280322265625,-0.8126239776611328,-5.898942947387695,-1.465017318725586
1702061352961801200,19.05980126953125,-0.23144841194152832,-6.0827836990356445,-0.7176618576049805
1702061352978794200,19.076794189453125,0.44541245698928833,-5.951785087585449,-0.7146883010864258
1702061352995788800,19.093788818359375,1.0997214317321777,-5.102792263031006,-1.5685811042785645
1702061353012783000,19.110783203125,1.2892049551010132,-4.406872272491455,-2.3378148078918457
1702061353029769700,19.127769775390625,1.2495555877685547,-4.005557537078857,-2.6382694244384766
1702061353046773200,19.144773193359374,1.2121586799621582,-3.70820951461792,-2.582427501678467
1702061353063764500,19.161764404296875,0.7655181288719177,-3.7827627658843994,-1.7294354438781738
1702061353080758800,19.1787587890625,0.39308077096939087,-3.6236190795898438,-1.165252685546875
1702061353097752600,19.195752685546875,0.3194640278816223,-3.3778443336486816,-1.1207637786865234
1702061353114733800,19.21273388671875,0.6523683667182922,-2.9260470867156982,-1.4490375518798828
1702061353131735600,19.229735595703126,1.134174108505249,-2.32896089553833,-1.7133140563964844
1702061353148734500,19.246734375,1.277472972869873,-1.799091100692749,-1.8050880432128906
1702061353165728500,19.263728515625,0.9641432166099548,-1.6543762683868408,-1.489211082458496
1702061353182719500,19.280719482421876,0.5942108035087585,-1.5641670227050781,-1.0851964950561523
1702061353199718100,19.29771826171875,0.6573355197906494,-1.5063514709472656,-0.6720199584960938
1702061353216710100,19.314710205078125,0.9787212014198303,-1.2309389114379883,-0.5019474029541016
1702061353233693700,19.331693603515625,1.13246750831604,-0.5129475593566895,-1.0622882843017578
1702061353250698000,19.348697998046877,1.3051490783691406,-0.0870823860168457,-1.5251379013061523
1702061353267691300,19.365691162109375,0.9832034111022949,0.13521289825439453,-1.582876205444336
1702061353284685800,19.382685791015625,0.7913038730621338,0.21395206451416016,-1.1701059341430664
1702061353301679600,19.3996796875,1.1073617935180664,0.25101327896118164,-0.6429815292358398
1702061353318669600,19.416669677734376,1.4613544940948486,0.371065616607666,-0.34376049041748047
1702061353335671000,19.433671142578124,1.7714097499847412,0.5583000183105469,-0.5048089027404785
1702061353352661500,19.45066162109375,2.002734422683716,0.7334127426147461,-0.8588528633117676
1702061353369644500,19.46764453125,2.3309848308563232,0.7085075378417969,-1.0004572868347168
1702061353386649000,19.484649169921877,2.9062185287475586,0.7846212387084961,-0.7722225189208984
1702061353403643000,19.501642822265627,3.022214412689209,0.8123950958251953,-0.09637594223022461
1702061353420637000,19.518636962890625,2.8536629676818848,1.0507559776306152,0.38405323028564453
1702061353437630700,19.535630615234375,2.7294328212738037,1.517427921295166,0.23697137832641602
1702061353454624800,19.552624755859377,3.1357855796813965,1.7285113334655762,0.15159225463867188
1702061353471618300,19.569618408203127,3.3524374961853027,1.6383891105651855,0.4133906364440918
1702061353488612600,19.586612548828125,3.4013874530792236,1.3269481658935547,0.39942359924316406
1702061353505597000,19.603596923828125,3.2966413497924805,1.0742359161376953,-0.020947933197021484
1702061353522600400,19.620600341796877,3.234255075454712,0.9451260566711426,-0.2313990592956543
1702061353539594000,19.637593994140627,2.9236392974853516,1.134131908416748,-0.03257131576538086
1702061353556588500,19.654588623046877,2.3621826171875,0.856748104095459,1.2053546905517578
1702061353573579500,19.67157958984375,2.0732829570770264,0.4039463996887207,2.352876663208008
1702061353590578400,19.688578369140625,2.1334962844848633,0.5594444274902344,2.5526552200317383
1702061353607569700,19.705569580078127,2.5494508743286133,0.6150364875793457,2.6124954223632812
1702061353624564000,19.72256396484375,2.903794288635254,0.5751543045043945,2.824521541595459
1702061353641557800,19.739557861328127,3.085139274597168,0.40853118896484375,3.5430188179016113
1702061353658551600,19.756551513671877,2.9549849033355713,0.11165189743041992,4.2891526222229
1702061353675545300,19.77354541015625,2.7450618743896484,0.15089178085327148,4.34776496887207
1702061353692539600,19.79053955078125,2.1607985496520996,0.42710208892822266,4.082395076751709
1702061353709533400,19.807533447265627,1.8090600967407227,0.6095786094665527,3.942385196685791
1702061353726524700,19.824524658203124,1.585031270980835,0.4649171829223633,4.023689270019531
1702061353743523600,19.841523681640624,1.4600000381469727,0.5290813446044922,3.9255919456481934
1702061353760515300,19.858515380859377,1.280322551727295,0.9340620040893555,3.47654390335083
1702061353777509000,19.875509033203127,1.0470125675201416,1.4424505233764648,2.9652462005615234
1702061353794503000,19.8925029296875,1.0050292015075684,1.5065011978149414,2.623136520385742
1702061353811496400,19.909496337890626,1.4911017417907715,1.067277431488037,2.6183528900146484
1702061353828491000,19.926490966796877,2.4584970474243164,0.69683837890625,2.8189992904663086
1702061353845484500,19.943484619140627,3.027064800262451,0.41848325729370117,3.3601269721984863
1702061353862478600,19.960478515625,2.6506588459014893,0.5804524421691895,3.7707533836364746
1702061353879472000,19.97747216796875,1.472686529159546,0.42801523208618164,3.90458345413208
1702061353896466700,19.994466796875,0.19430947303771973,0.3513650894165039,2.947856903076172
1702061353913460200,20.011460205078127,-0.6786746978759766,0.4885430335998535,1.6570544242858887
1702061353930454300,20.028454345703125,-0.997901439666748,0.8637485504150391,1.2257957458496094
1702061353947447800,20.04544775390625,-1.2737550735473633,1.255225658416748,1.8545126914978027
1702061353964442400,20.0624423828125,-1.6656303405761719,1.5786161422729492,3.2953639030456543
1702061353981434400,20.079434326171874,-1.7578542232513428,1.5670199394226074,4.26643180847168
1702061353998431500,20.096431396484373,-1.2992053031921387,1.4597282409667969,3.8938441276550293
1702061354015419600,20.113419677734374,-0.25802183151245117,1.3934664726257324,3.009553909301758
1702061354032417800,20.130417724609377,0.9695422649383545,1.5144391059875488,2.3454642295837402
1702061354049411600,20.14741162109375,1.9810409545898438,1.6785950660705566,2.3219408988952637
1702061354066405400,20.1644052734375,2.298426628112793,1.836085319519043,2.6725997924804688
1702061354083399200,20.181399169921875,2.0285933017730713,1.8238286972045898,3.126708984375
1702061354100393700,20.198393798828125,1.6190197467803955,1.6512303352355957,3.225409984588623
1702061354117387000,20.215386962890626,1.6026148796081543,1.4780597686767578,2.596900463104248
1702061354134381000,20.232381103515625,2.160076379776001,1.499013900756836,1.7816886901855469
1702061354151374800,20.249374755859375,2.9018988609313965,1.5057506561279297,1.2765631675720215
1702061354168369200,20.266369140625,3.441970109939575,1.369469165802002,1.221280574798584
1702061354185363000,20.283363037109375,3.484779119491577,0.9953384399414062,1.4829206466674805
1702061354202356500,20.3003564453125,3.2245607376098633,0.5659761428833008,1.4569048881530762
1702061354219350800,20.317350830078126,2.93095326423645,0.26140832901000977,0.859412670135498
1702061354236344800,20.3343447265625,2.9141578674316406,0.10702085494995117,0.15409612655639648
1702061354253338600,20.351338623046875,3.1769909858703613,0.12072420120239258,-0.49602317810058594
1702061354270332200,20.368332275390625,3.3035829067230225,0.0859832763671875,-0.7456960678100586
1702061354287326000,20.385325927734375,3.0519766807556152,-0.14858102798461914,-0.5504312515258789
1702061354304315400,20.4023154296875,2.2915966510772705,-0.578249454498291,-0.21423625946044922
1702061354321314000,20.41931396484375,1.1840479373931885,-0.6763110160827637,-0.5212888717651367
1702061354338308000,20.43630810546875,-0.03756403923034668,-0.6765727996826172,-1.3320274353027344
1702061354355301600,20.453301513671875,-0.7335553169250488,-0.9513759613037109,-1.9694890975952148
1702061354372296200,20.470296142578125,-0.4511955976486206,-1.0774123668670654,-2.2070236206054688
1702061354389290000,20.4872900390625,0.3553802967071533,-1.1004886627197266,-1.9765777587890625
1702061354406275300,20.504275390625,0.811576247215271,-1.3967416286468506,-1.476790428161621
1702061354423263000,20.521262939453123,0.8909775018692017,-1.7745044231414795,-1.1472563743591309
1702061354440271600,20.538271728515625,0.6337356567382812,-1.935628890991211,-1.3801517486572266
1702061354457265400,20.555265380859375,0.09771490097045898,-2.0220868587493896,-1.8556771278381348
1702061354474259500,20.572259521484376,-0.08347296714782715,-2.1225175857543945,-2.160881996154785
1702061354491253000,20.5892529296875,0.6803135871887207,-2.222594976425171,-2.0747337341308594
1702061354508247600,20.60624755859375,1.482282042503357,-2.322671890258789,-1.8699169158935547
1702061354525241000,20.623240966796875,1.747278094291687,-2.536463499069214,-1.6639041900634766
1702061354542235100,20.640235107421876,1.8349286317825317,-2.7699100971221924,-1.5717182159423828
1702061354559228700,20.657228759765626,1.5656132698059082,-3.1488585472106934,-1.7138886451721191
1702061354576223000,20.674222900390625,1.2607988119125366,-3.2692105770111084,-2.1170425415039062
1702061354593216800,20.691216796875,1.0822086334228516,-3.3120532035827637,-2.2048230171203613
1702061354610210300,20.708210205078124,0.7550128698348999,-3.583336353302002,-1.78326416015625
1702061354627201500,20.725201416015626,0.4865177869796753,-4.0391845703125,-1.1842041015625
1702061354644201200,20.742201171875,0.2983858585357666,-4.320126056671143,-0.8179035186767578
1702061354661192200,20.759192138671875,0.34570324420928955,-4.29842472076416,-0.7135543823242188
1702061354678186200,20.776186279296876,0.20920825004577637,-4.285620212554932,-0.7615299224853516
1702061354695178800,20.7931787109375,-0.013745903968811035,-3.9683449268341064,-1.083282470703125
1702061354712175400,20.81017529296875,-0.40302515029907227,-3.730109691619873,-1.3304319381713867
1702061354729168100,20.827168212890626,-0.16751384735107422,-3.6525189876556396,-1.3107376098632812
1702061354746162000,20.844161865234376,0.8388926982879639,-4.155691623687744,-0.80584716796875
1702061354763155500,20.861155517578126,1.698408603668213,-4.735040664672852,-0.5366010665893555
1702061354780149800,20.878149658203125,1.8660120964050293,-5.0936150550842285,-0.9075717926025391
1702061354797143600,20.8951435546875,1.5854510068893433,-5.45075798034668,-1.6702032089233398
1702061354814137300,20.912137451171876,0.887489378452301,-5.847291946411133,-2.471970558166504
1702061354831131100,20.929131103515626,0.3088507652282715,-6.137298583984375,-2.442941665649414
1702061354848125400,20.94612548828125,-0.13172388076782227,-6.549501419067383,-0.8942527770996094
1702061354865119000,20.963118896484374,-0.854127049446106,-6.7649736404418945,1.336256980895996
1702061354882113300,20.98011328125,-2.121243715286255,-6.483020305633545,3.5307435989379883
1702061354899106600,20.9971064453125,-3.213502883911133,-6.228076934814453,4.9176177978515625
1702061354916101000,21.01410107421875,-3.5499229431152344,-6.330694198608398,4.892233848571777
1702061354933095000,21.031094970703126,-3.035196304321289,-6.877934455871582,4.319043159484863
1702061354950088700,21.048088623046876,-1.6826343536376953,-7.504922866821289,3.444948196411133
1702061354967082200,21.065082275390626,-0.5550829172134399,-7.865958213806152,2.2801990509033203
1702061354984076500,21.08207666015625,0.012501716613769531,-7.804670333862305,1.0338010787963867
1702061355001074000,21.099073974609375,0.3433295488357544,-7.553945541381836,0.014896392822265625
1702061355018060800,21.116060791015624,0.5415326952934265,-7.249936580657959,-0.6342926025390625
1702061355035058200,21.13305810546875,0.5424262881278992,-6.9273834228515625,-0.8086891174316406
1702061355052052200,21.15005224609375,0.1596846580505371,-6.653122901916504,-0.7767305374145508
1702061355069035500,21.167035400390624,-0.20549774169921875,-6.006235599517822,-1.1692695617675781
1702061355086039800,21.184039794921876,-0.10158610343933105,-5.324785232543945,-1.8018040657043457
1702061355103033600,21.20103369140625,0.4427318572998047,-4.826825141906738,-2.2309751510620117
1702061355120028000,21.21802783203125,1.2050362825393677,-4.465398788452148,-2.3675460815429688
1702061355137022000,21.23502197265625,1.6875803470611572,-4.176939964294434,-2.045599937438965
1702061355154015500,21.252015380859376,1.6312830448150635,-3.8664653301239014,-1.7411789894104004
1702061355171009000,21.269009033203126,1.30655038356781,-3.3814494609832764,-1.923560619354248
1702061355188003600,21.286003662109376,0.8254348039627075,-2.8259825706481934,-2.221672534942627
1702061355204997000,21.3029970703125,0.6948163509368896,-2.331725597381592,-2.5769476890563965
1702061355221991200,21.3199912109375,0.9993761777877808,-2.0327961444854736,-2.7163591384887695
1702061355238981600,21.336981689453125,1.3476313352584839,-1.9250850677490234,-2.5524959564208984
1702061355255981800,21.35398193359375,1.6342853307724,-1.794205904006958,-2.3200650215148926
1702061355272962800,21.370962890625,1.7577240467071533,-1.4806897640228271,-2.0791454315185547
1702061355289966800,21.387966796875,1.8022866249084473,-1.086362361907959,-1.826268196105957
1702061355306960600,21.404960693359374,1.6356985569000244,-0.6843094825744629,-1.7813634872436523
1702061355323955000,21.421954833984376,1.4022529125213623,-0.48926401138305664,-1.7976293563842773
1702061355340948500,21.438948486328126,1.3980257511138916,-0.2917604446411133,-1.9412012100219727
1702061355357940000,21.45593994140625,1.8195096254348755,-0.12355613708496094,-2.069765090942383
1702061355374938600,21.472938720703127,2.4404115676879883,0.16943025588989258,-2.172201633453369
1702061355391930400,21.489930419921876,2.8132147789001465,0.5020155906677246,-2.115427017211914
1702061355408924200,21.506924072265626,2.759542942047119,0.8287360668182373,-1.9603557586669922
1702061355425918000,21.52391796875,2.331799030303955,1.070312261581421,-1.9362716674804688
1702061355442911500,21.540911376953126,1.6983840465545654,0.9099154472351074,-1.8895325660705566
1702061355459903500,21.557903564453124,1.407537579536438,0.756190299987793,-2.049436569213867
