time,seconds_elapsed,z,y,x
1701978753945700600,0.11470068359375,-1.5860157012939453,-0.6523284912109375,0.16927003860473633
1701978753962690800,0.13169091796875,-1.7861051559448242,-0.6278200149536133,0.23595261573791504
1701978753979684000,0.14868408203125,-1.5104961395263672,-0.6056613922119141,-0.04689812660217285
1701978753996671200,0.165671142578125,-1.1279335021972656,-0.6981463432312012,-0.4036853313446045
1701978754013657600,0.18265771484375,-0.8626012802124023,-0.8535218238830566,-0.7831681966781616
1701978754030652400,0.19965234375,-0.8062186241149902,-1.1009631156921387,-0.8957645893096924
1701978754047634700,0.216634765625,-0.7227506637573242,-1.4618663787841797,-1.0092613697052002
1701978754064648000,0.23364794921875,-1.1704583168029785,-1.6718554496765137,-1.4131349325180054
1701978754081625000,0.250625,-1.7389049530029297,-2.154172658920288,-1.8094332218170166
1701978754098614000,0.267614013671875,-2.320408344268799,-2.9171066284179688,-2.264432668685913
1701978754115602200,0.284602294921875,-2.5661745071411133,-3.750059127807617,-2.775770902633667
1701978754132589600,0.301589599609375,-2.0979208946228027,-4.634448051452637,-3.1820485591888428
1701978754149588700,0.318588623046875,-1.1748299598693848,-5.586568355560303,-3.237183094024658
1701978754166569700,0.33556982421875,-0.9222321510314941,-6.409934997558594,-3.8934531211853027
1701978754183568100,0.352568115234375,-2.1339359283447266,-6.761401653289795,-4.728571891784668
1701978754200544000,0.3695439453125,-3.72733211517334,-6.895893573760986,-4.031785011291504
1701978754217543000,0.38654296875,-3.8576107025146484,-7.529330253601074,-3.377322196960449
1701978754234536000,0.403535888671875,-2.15641450881958,-7.587554931640625,-2.4048638343811035
1701978754251520500,0.4205205078125,0.6235735416412354,-7.476570129394531,-0.8914656639099121
1701978754268517000,0.43751708984375,1.9409185647964478,-6.456416606903076,0.3702068328857422
1701978754285498000,0.454498046875,-0.08099395036697388,-5.696979522705078,1.8504924774169922
1701978754302494000,0.471493896484375,-2.0416321754455566,-4.912115097045898,3.5611019134521484
1701978754319489800,0.48848974609375,-2.7637205123901367,-4.285100936889648,4.488076210021973
1701978754336473300,0.505473388671875,-1.9649031162261963,-3.853949785232544,4.674677848815918
1701978754353467600,0.522467529296875,-0.1447160542011261,-3.552265167236328,4.1865949630737305
1701978754370459000,0.539458984375,1.4108455181121826,-3.551576614379883,3.8231277465820312
1701978754387442700,0.556442626953125,2.6268868446350098,-3.249736785888672,3.4656982421875
1701978754404440800,0.57344091796875,2.432612895965576,-3.0230929851531982,3.039583206176758
1701978754421428000,0.590427978515625,0.9739940762519836,-2.993436336517334,3.330874443054199
1701978754438419500,0.60741943359375,-0.3973104655742645,-2.7031068801879883,3.5500802993774414
1701978754455398700,0.624398681640625,-1.4084161520004272,-2.4854471683502197,3.809565544128418
1701978754472387000,0.641386962890625,-1.5880072116851807,-2.2641050815582275,4.062284469604492
1701978754489391000,0.65839111328125,-1.5647380352020264,-1.902963399887085,4.357026100158691
1701978754506366000,0.675365966796875,-1.881312370300293,-1.5427546501159668,4.807177543640137
1701978754523368400,0.692368408203125,-2.5478756427764893,-1.1248555183410645,5.436947822570801
1701978754540362200,0.7093623046875,-3.166123628616333,-0.5543079376220703,5.78885555267334
1701978754557339600,0.726339599609375,-3.7990758419036865,-0.14929676055908203,6.0171918869018555
1701978754574340900,0.7433408203125,-3.835310697555542,0.1934494972229004,5.831840515136719
1701978754591331300,0.760331298828125,-3.4465808868408203,0.27092885971069336,5.064366340637207
1701978754608321800,0.77732177734375,-2.548523426055908,0.16654157638549805,3.8982763290405273
1701978754625308400,0.794308349609375,-1.6282508373260498,-0.02085399627685547,2.8531627655029297
1701978754642301000,0.811301025390625,-0.8043837547302246,-0.14178991317749023,2.0246944427490234
1701978754659293000,0.82829296875,-0.16248106956481934,0.041109561920166016,1.4080910682678223
1701978754676271600,0.845271728515625,0.31407225131988525,0.4913787841796875,1.4070606231689453
1701978754693270300,0.862270263671875,0.8018959760665894,1.246307373046875,1.327040195465088
1701978754710264800,0.879264892578125,0.6629583835601807,1.6184372901916504,1.2932243347167969
1701978754727255600,0.896255615234375,0.08853152394294739,1.7765653133392334,1.1797523498535156
1701978754744241200,0.9132412109375,-0.6159279942512512,1.8786063194274902,0.8141717910766602
1701978754761237000,0.930237060546875,-1.169371485710144,1.9182610511779785,0.3494424819946289
1701978754778222000,0.94722216796875,-1.2364048957824707,1.7913446426391602,0.25621986389160156
1701978754795213300,0.96421337890625,-1.201343297958374,1.9194657802581787,0.5724906921386719
1701978754812203500,0.98120361328125,-0.9092007279396057,2.265685558319092,0.9805459976196289
1701978754829195300,0.9981953125,-0.7401672601699829,2.5077240467071533,1.2884588241577148
1701978754846179800,1.015179931640625,-0.5118968486785889,2.690910816192627,1.0939884185791016
1701978754863176200,1.03217626953125,-0.10112076997756958,2.8259215354919434,0.3505067825317383
1701978754880159200,1.0491591796875,0.4568672776222229,2.9983723163604736,-0.25670719146728516
1701978754897149200,1.066149169921875,0.8567447662353516,3.2315449714660645,-0.5703945159912109
1701978754914146000,1.08314599609375,1.1672873497009277,3.499096632003784,-0.170928955078125
1701978754931124700,1.100124755859375,1.2445318698883057,3.752174139022827,0.4473991394042969
1701978754948127000,1.117126953125,1.367812156677246,4.002070426940918,0.6768426895141602
1701978754965110800,1.13411083984375,1.5661733150482178,3.9792351722717285,0.5165901184082031
1701978754982109200,1.151109130859375,1.7147412300109863,3.697176694869995,0.08574867248535156
1701978754999098000,1.16809814453125,2.109736442565918,3.4910669326782227,-0.4152994155883789
1701978755016084000,1.185083984375,2.5152392387390137,3.311725378036499,-0.6967334747314453
1701978755033078500,1.20207861328125,2.673219680786133,3.287114143371582,-0.8792142868041992
1701978755050068700,1.21906884765625,2.547778844833374,3.3940467834472656,-0.83935546875
1701978755067047700,1.236047607421875,2.341784954071045,3.40657114982605,-0.8306732177734375
1701978755084048100,1.253048095703125,2.2473721504211426,3.0266408920288086,-0.9172472953796387
1701978755101037800,1.270037841796875,2.425821542739868,2.6359658241271973,-1.1522612571716309
1701978755118029800,1.28702978515625,2.616806983947754,2.2999401092529297,-1.6076602935791016
1701978755135010800,1.3040107421875,2.9759349822998047,2.075713872909546,-1.9696054458618164
1701978755152008700,1.3210087890625,3.0886995792388916,1.8628196716308594,-1.5134191513061523
1701978755169000400,1.33800048828125,3.367766857147217,1.49765944480896,-0.4142475128173828
1701978755185979600,1.354979736328125,3.8291685581207275,0.7567627429962158,0.38082408905029297
1701978755202979000,1.37197900390625,3.8992767333984375,-0.03092360496520996,-0.4971494674682617
1701978755219971000,1.38897119140625,3.893218994140625,-0.6565940380096436,-2.5292863845825195
1701978755236960000,1.4059599609375,4.085972309112549,-0.9279580116271973,-4.032315731048584
1701978755253951000,1.422950927734375,4.205846309661865,-0.6725966930389404,-4.067520618438721
1701978755270940400,1.4399404296875,4.050209045410156,-0.3381619453430176,-1.8779144287109375
1701978755287936500,1.4569365234375,3.632902145385742,-0.4125537872314453,0.3923187255859375
1701978755304924000,1.473923828125,2.721238613128662,-0.9248967170715332,0.8742809295654297
1701978755321913300,1.490913330078125,2.153362274169922,-1.5339040756225586,0.053107261657714844
1701978755338903600,1.507903564453125,2.4693684577941895,-2.0200939178466797,-0.6413669586181641
1701978755355890000,1.524889892578125,3.476283550262451,-1.7515311241149902,0.046088218688964844
1701978755372880600,1.541880615234375,4.12837028503418,-1.15620756149292,2.3478612899780273
1701978755389875700,1.558875732421875,3.133888006210327,-1.2311310768127441,3.606842041015625
1701978755406860000,1.575860107421875,2.7062487602233887,-1.2139289379119873,3.100584030151367
1701978755423853300,1.592853271484375,2.5479557514190674,-1.0646113157272339,1.850386619567871
1701978755440842800,1.6098427734375,2.7956528663635254,-1.668358325958252,1.6679859161376953
1701978755457834800,1.626834716796875,2.808971405029297,-2.116525173187256,2.2373180389404297
1701978755474820600,1.643820556640625,2.396672010421753,-2.2173609733581543,2.483222007751465
1701978755491815400,1.6608154296875,1.504001498222351,-2.19891095161438,2.7351131439208984
1701978755508805600,1.6778056640625,-0.1898956298828125,-2.568659782409668,3.675776481628418
1701978755525791700,1.694791748046875,-2.06973934173584,-3.3605637550354004,4.101977348327637
1701978755542784500,1.711784423828125,-3.4085898399353027,-4.120896339416504,3.6761980056762695
1701978755559772200,1.728772216796875,-3.4487805366516113,-4.87280797958374,3.1217498779296875
1701978755576766700,1.7457666015625,-2.4480888843536377,-5.763176441192627,3.3742074966430664
1701978755593757200,1.762757080078125,-2.17946195602417,-6.317995071411133,3.4569787979125977
1701978755610733600,1.779733642578125,-3.06584095954895,-6.80311918258667,3.641397476196289
1701978755627727000,1.79672705078125,-3.9310550689697266,-7.802109718322754,3.859969139099121
1701978755644723500,1.813723388671875,-3.140977144241333,-8.378414154052734,3.676687240600586
1701978755661716000,1.830716064453125,-1.688507318496704,-7.990688323974609,2.734280586242676
1701978755678708200,1.847708251953125,-0.7467010021209717,-8.024534225463867,2.621443748474121
1701978755695694300,1.8646943359375,-1.0976762771606445,-8.334522247314453,3.690859794616699
1701978755712687000,1.88168701171875,-1.8002732992172241,-8.633163452148438,3.549614906311035
1701978755729681200,1.89868115234375,-1.6768490076065063,-8.330158233642578,2.265364646911621
1701978755746660000,1.91566015625,-1.1457370519638062,-7.618597507476807,1.168121337890625
1701978755763658500,1.932658447265625,-1.0007332563400269,-6.95854377746582,1.4459753036499023
1701978755780648700,1.949648681640625,-1.0017528533935547,-7.027383804321289,2.209366798400879
1701978755797671200,1.966671142578125,0.2970007658004761,-7.906379222869873,2.043553352355957
1701978755814626800,1.983626708984375,2.5447354316711426,-7.859619617462158,0.3714580535888672
1701978755831600600,2.0006005859375,3.754591941833496,-6.667139530181885,-1.6904516220092773
1701978755848608500,2.0176083984375,3.3211655616760254,-5.854317665100098,-1.4716339111328125
1701978755865597000,2.034596923828125,1.083169937133789,-5.509379863739014,-0.46356678009033203
1701978755882588000,2.051587890625,-1.2511236667633057,-5.2862677574157715,-0.16798686981201172
1701978755899581700,2.068581787109375,-1.6156595945358276,-4.890030384063721,-0.4191017150878906
1701978755916571100,2.085571044921875,-0.16735303401947021,-4.336984634399414,-1.133047103881836
1701978755933561300,2.102561279296875,1.5235254764556885,-4.347076892852783,-1.2709312438964844
1701978755950551000,2.119551025390625,2.5680530071258545,-4.316376209259033,-1.1071033477783203
1701978755967539000,2.1365390625,2.7479748725891113,-3.9605586528778076,-1.0576753616333008
1701978755984531700,2.15353173828125,2.003551483154297,-3.3435091972351074,-0.942286491394043
1701978756001521400,2.170521484375,1.110403060913086,-2.753182888031006,-1.3789634704589844
1701978756018508500,2.187508544921875,1.3655064105987549,-2.3806285858154297,-1.7985944747924805
1701978756035492400,2.204492431640625,2.1437511444091797,-2.0906484127044678,-1.9512052536010742
1701978756052492300,2.2214921875,2.7684531211853027,-1.9093146324157715,-1.9844226837158203
1701978756069484000,2.238484130859375,2.998349666595459,-1.5595147609710693,-2.0125322341918945
1701978756086468600,2.255468505859375,2.995145797729492,-1.2306244373321533,-2.0700554847717285
1701978756103454700,2.272454833984375,2.4236011505126953,-1.2515757083892822,-2.1326613426208496
1701978756120453000,2.289453125,2.6594197750091553,-1.016937017440796,-2.0678529739379883
1701978756137441800,2.30644189453125,2.6606862545013428,-0.5556676387786865,-1.8396081924438477
1701978756154434600,2.3234345703125,2.675771951675415,-0.19009661674499512,-1.5567035675048828
1701978756171418600,2.340418701171875,2.67649507522583,0.0383453369140625,-0.9843339920043945
1701978756188416000,2.357416015625,2.686720848083496,0.11934804916381836,-0.4290914535522461
1701978756205402400,2.37440234375,2.653846502304077,0.2846794128417969,-0.28850555419921875
1701978756222394600,2.39139453125,2.5374362468719482,0.3885049819946289,-0.15958547592163086
1701978756239386600,2.40838671875,2.533726692199707,0.4756283760070801,0.07479286193847656
1701978756256373500,2.42537353515625,2.207688570022583,0.3511323928833008,0.7768540382385254
1701978756273365500,2.442365478515625,2.2290024757385254,0.2003316879272461,1.4702754020690918
1701978756290356500,2.4593564453125,2.742187023162842,0.24829387664794922,1.5730981826782227
1701978756307342000,2.476342041015625,3.232729911804199,0.5865063667297363,1.2531414031982422
1701978756324339500,2.49333935546875,2.8258585929870605,1.0760102272033691,0.4816932678222656
1701978756341326800,2.510326904296875,2.202928066253662,1.4734573364257812,0.04722881317138672
1701978756358318600,2.527318603515625,1.8333656787872314,1.1767067909240723,1.2715868949890137
1701978756375304700,2.5443046875,1.270099401473999,0.6323728561401367,2.8313817977905273
1701978756392297500,2.56129736328125,1.5856037139892578,0.5280389785766602,3.558499813079834
1701978756409289500,2.57828955078125,2.029792547225952,0.7686529159545898,3.7799673080444336
1701978756426275600,2.595275634765625,2.0829761028289795,1.1512699127197266,3.3907289505004883
1701978756443267800,2.612267822265625,2.0970373153686523,1.167222499847412,3.3585205078125
1701978756460260000,2.629260009765625,1.9835786819458008,0.9078683853149414,3.2415237426757812
1701978756477246200,2.64624609375,1.9753162860870361,0.7065882682800293,3.0227532386779785
1701978756494240000,2.663239990234375,2.2240467071533203,0.3694186210632324,3.512500762939453
1701978756511229200,2.680229248046875,2.9616668224334717,0.6136922836303711,3.9002556800842285
1701978756528221200,2.69722119140625,2.8784918785095215,0.8971719741821289,4.4387712478637695
1701978756545207300,2.714207275390625,2.7704548835754395,0.6883606910705566,4.594899654388428
1701978756562198300,2.7311982421875,2.7353944778442383,0.6206526756286621,3.783809185028076
1701978756579193600,2.748193603515625,2.965951681137085,1.7000560760498047,2.6866087913513184
1701978756596171000,2.7651708984375,2.3964920043945312,1.812096118927002,2.86334228515625
1701978756613170700,2.782170654296875,1.6095290184020996,1.3880953788757324,3.171839714050293
1701978756630162700,2.79916259765625,1.524674892425537,0.7948365211486816,3.2869491577148438
1701978756647145500,2.8161455078125,2.2041032314300537,0.7063627243041992,2.9875683784484863
1701978756664151300,2.8331513671875,2.846285343170166,0.7741127014160156,2.6253581047058105
1701978756681133300,2.85013330078125,3.045309543609619,1.0985665321350098,2.377041816711426
1701978756698124000,2.8671240234375,2.0243523120880127,1.4226484298706055,2.878082752227783
1701978756715110000,2.88410986328125,0.29041528701782227,1.1575875282287598,3.423520088195801
1701978756732102700,2.9011025390625,-0.7919597625732422,1.0011463165283203,3.3472394943237305
1701978756749086500,2.91808642578125,-0.6242170333862305,0.9412102699279785,3.2385082244873047
1701978756766080800,2.935080810546875,-0.014758586883544922,0.8135585784912109,3.510892868041992
1701978756783073300,2.9520732421875,0.5873494148254395,0.844304084777832,4.059032440185547
1701978756800055000,2.969054931640625,0.13574790954589844,0.9123730659484863,5.379761219024658
1701978756817051600,2.9860517578125,-0.8208837509155273,0.9402122497558594,6.230007171630859
1701978756834045200,3.003045166015625,-1.4974255561828613,1.1142487525939941,5.8555192947387695
1701978756851034600,3.02003466796875,-1.2550339698791504,1.415149211883545,4.762240886688232
1701978756868015900,3.037015869140625,-0.3938169479370117,1.6677474975585938,3.6143531799316406
1701978756885010000,3.054010009765625,0.7577381134033203,1.5788793563842773,3.2488908767700195
1701978756902007800,3.0710078125,1.7658770084381104,1.6564579010009766,3.2590560913085938
1701978756918997000,3.0879970703125,2.098628044128418,1.8239021301269531,3.799060344696045
1701978756935987000,3.104987060546875,1.4975459575653076,1.751558780670166,4.796431541442871
1701978756952975400,3.121975341796875,0.9041314125061035,1.8265156745910645,4.868459701538086
1701978756969964800,3.13896484375,0.5231268405914307,2.015385627746582,3.9758567810058594
1701978756986963000,3.155962890625,0.6883759498596191,2.39082670211792,2.8572278022766113
1701978757003945200,3.1729453125,0.9254865646362305,2.5118894577026367,2.103468894958496
1701978757020938000,3.18993798828125,1.488523006439209,2.549455165863037,1.9305825233459473
1701978757037928200,3.20692822265625,2.0023741722106934,2.4530863761901855,2.3541102409362793
1701978757054918700,3.223918701171875,2.599043369293213,2.398679256439209,2.7453083992004395
1701978757071908900,3.240908935546875,2.9124414920806885,2.110584259033203,2.777719020843506
1701978757088886500,3.257886474609375,3.3919878005981445,1.897578239440918,2.484435558319092
1701978757105891600,3.2748916015625,3.7569527626037598,1.9301395416259766,1.9865102767944336
1701978757122879700,3.291879638671875,4.056084156036377,1.6239829063415527,1.4849858283996582
1701978757139859700,3.308859619140625,4.174416542053223,0.9720358848571777,0.9902753829956055
1701978757156860200,3.325860107421875,4.423766613006592,0.408444881439209,0.7031388282775879
1701978757173850000,3.34285009765625,4.427089214324951,0.5955572128295898,0.3361830711364746
1701978757190830300,3.359830322265625,3.2913546562194824,0.45846986770629883,0.27489662170410156
1701978757207830800,3.376830810546875,2.005011558532715,0.2234354019165039,-0.061980247497558594
1701978757224821200,3.3938212890625,1.3702733516693115,0.2610659599304199,-0.7644948959350586
1701978757241811700,3.410811767578125,1.3858542442321777,0.08559465408325195,-1.5411410331726074
1701978757258802000,3.427802001953125,2.524470806121826,0.15561723709106445,-2.2003393173217773
1701978757275792100,3.444792236328125,3.664832592010498,-0.10965871810913086,-2.029723644256592
1701978757292771800,3.461771728515625,3.5514848232269287,-0.4976472854614258,-1.252880573272705
1701978757309770200,3.478770263671875,2.9366540908813477,-1.1782934665679932,-0.9834213256835938
1701978757326765300,3.495765380859375,3.0353140830993652,-1.4233801364898682,-1.6014318466186523
1701978757343753200,3.512753173828125,3.630180835723877,-1.6179382801055908,-2.23185396194458
1701978757360731000,3.52973095703125,4.314197540283203,-1.802408218383789,-2.3207345008850098
1701978757377736400,3.546736328125,3.8666672706604004,-2.3877763748168945,-1.5643529891967773
1701978757394711600,3.563711669921875,2.934311628341675,-3.0830349922180176,-0.8036441802978516
1701978757411704000,3.5807041015625,2.7525784969329834,-3.7737910747528076,-1.0519132614135742
1701978757428700400,3.597700439453125,3.5923163890838623,-3.873713493347168,-1.6477699279785156
1701978757445685500,3.614685546875,3.8081212043762207,-3.220905303955078,-2.1096982955932617
1701978757462677500,3.631677490234375,2.716503858566284,-3.2076895236968994,-0.892425537109375
1701978757479669000,3.6486689453125,0.8201816082000732,-3.8496880531311035,1.6505165100097656
1701978757496654600,3.665654541015625,0.26859402656555176,-4.782688617706299,2.977476119995117
1701978757513646000,3.68264599609375,1.1552698612213135,-5.035368919372559,1.7253303527832031
1701978757530639400,3.699639404296875,1.9882371425628662,-5.290234565734863,0.7654542922973633
1701978757547628000,3.7166279296875,2.000455617904663,-5.549712181091309,-0.09197711944580078
1701978757564617500,3.733617431640625,1.7097042798995972,-6.112270832061768,-0.3788118362426758
1701978757581609700,3.750609619140625,0.7644718885421753,-6.839753150939941,0.5564384460449219
1701978757598598000,3.767597900390625,-0.8262772560119629,-7.473423004150391,2.352193832397461
1701978757615591700,3.784591796875,-2.853196620941162,-7.735124111175537,3.332578659057617
1701978757632578300,3.801578369140625,-2.7343201637268066,-8.182543754577637,1.6222572326660156
1701978757649571300,3.8185712890625,-0.4816575050354004,-8.597785949707031,0.16232585906982422
1701978757666557000,3.835556884765625,1.830032467842102,-8.40221881866455,0.3101062774658203
1701978757683551000,3.852551025390625,0.8806830048561096,-7.891632080078125,0.8865604400634766
1701978757700538000,3.8695380859375,-1.8954150676727295,-7.913949012756348,1.5907821655273438
1701978757717529600,3.886529541015625,-3.777022361755371,-7.847796440124512,2.0140819549560547
1701978757734518800,3.903518798828125,-4.315967559814453,-7.620782852172852,1.8518705368041992
1701978757751520000,3.92052001953125,-2.947185516357422,-7.614964485168457,1.4720268249511719
1701978757768512300,3.93751220703125,-0.7867012023925781,-7.673727989196777,1.6908349990844727
1701978757785500200,3.954500244140625,0.386966347694397,-7.359682083129883,2.3862953186035156
1701978757802490400,3.971490478515625,0.30754566192626953,-7.449243545532227,3.082204818725586
1701978757819480800,3.988480712890625,-0.43650388717651367,-7.386542797088623,2.6664743423461914
1701978757836471000,4.005470947265625,-1.2870800495147705,-7.278385639190674,1.2140064239501953
1701978757853461200,4.022461181640625,-1.7209794521331787,-7.170327186584473,0.07872772216796875
1701978757870459600,4.039459716796875,-0.9118287563323975,-6.826972007751465,0.08283042907714844
1701978757887439400,4.056439453125,0.4829355478286743,-6.134941577911377,0.980402946472168
1701978757904434400,4.073434326171875,1.3096858263015747,-5.801517009735107,2.0944671630859375
1701978757921422300,4.09042236328125,0.8936268091201782,-5.7451019287109375,2.706223487854004
1701978757938401500,4.107401611328125,0.7769845724105835,-5.744019031524658,1.3382129669189453
1701978757955403000,4.124403076171875,1.3462166786193848,-5.514712810516357,-0.2680988311767578
1701978757972382700,4.1413828125,2.093221664428711,-5.586950302124023,-0.6090774536132812
1701978757989372200,4.1583720703125,2.704525947570801,-5.514376640319824,0.039381980895996094
1701978758006370800,4.175370849609375,2.2850310802459717,-5.129815578460693,1.1033620834350586
1701978758023364000,4.192364013671875,1.6420115232467651,-4.398871421813965,1.094625473022461
1701978758040356600,4.209356689453125,1.5598931312561035,-3.599879026412964,-0.022289276123046875
1701978758057344500,4.226344482421875,1.7186933755874634,-3.320492744445801,-0.8123540878295898
1701978758074334500,4.24333447265625,1.9511398077011108,-3.2732818126678467,-0.896061897277832
1701978758091325000,4.260324951171875,1.8881545066833496,-2.861868381500244,-1.126084327697754
1701978758108315100,4.277315185546875,1.6323983669281006,-2.6161959171295166,-0.8345565795898438
1701978758125305600,4.2943056640625,1.9523303508758545,-2.3507282733917236,0.12092781066894531
1701978758142295800,4.3112958984375,2.4154820442199707,-1.8641467094421387,0.7258176803588867
1701978758159286000,4.3282861328125,2.8353002071380615,-1.0907437801361084,0.38466453552246094
1701978758176271600,4.345271728515625,2.4596877098083496,-0.6220664978027344,-0.2509937286376953
1701978758193265000,4.362264892578125,1.8858176469802856,-0.5885262489318848,-0.6801362037658691
1701978758210258400,4.379258544921875,1.9680168628692627,-0.677431583404541,-1.0957036018371582
1701978758227242800,4.39624267578125,2.9492180347442627,-0.6889438629150391,-0.7684807777404785
1701978758244242000,4.413241943359375,3.882162570953369,-0.3637838363647461,0.31820201873779297
1701978758261227500,4.4302275390625,3.928440570831299,-0.06812143325805664,1.345052719116211
1701978758278218000,4.447218017578125,3.827819585800171,0.5291042327880859,0.9134912490844727
1701978758295205600,4.46420556640625,3.29601788520813,1.2772769927978516,-0.28794384002685547
1701978758312201000,4.481200927734375,2.8940043449401855,1.8529081344604492,-0.684356689453125
1701978758329188600,4.498188720703125,2.179215431213379,2.0056605339050293,-0.421994686126709
1701978758346178800,4.5151787109375,1.9847211837768555,2.0018763542175293,0.2593507766723633
1701978758363169300,4.532169189453125,2.0366718769073486,1.639693260192871,1.0553183555603027
1701978758380162300,4.549162353515625,2.702733039855957,1.5035738945007324,0.9669504165649414
1701978758397146000,4.56614599609375,3.000558853149414,2.063082218170166,0.5132937431335449
1701978758414143700,4.583143798828125,2.8925600051879883,2.7869412899017334,0.2137165069580078
1701978758431130400,4.60013037109375,2.3343377113342285,2.965066909790039,0.899080753326416
1701978758448120800,4.617120849609375,1.7416341304779053,1.9881224632263184,1.9621052742004395
1701978758465111000,4.634111083984375,2.4655184745788574,2.035907745361328,1.4188661575317383
1701978758482090500,4.651090576171875,3.5213735103607178,2.4165802001953125,1.2764625549316406
1701978758499091500,4.668091552734375,4.2035908699035645,3.0608091354370117,1.3667125701904297
1701978758516081700,4.68508154296875,4.069092273712158,3.0175657272338867,2.4448952674865723
1701978758533061400,4.702061279296875,3.4166760444641113,2.634538173675537,3.0116162300109863
1701978758550062300,4.719062255859375,2.5156946182250977,2.756960868835449,2.828399658203125
1701978758567052500,4.736052490234375,1.5821046829223633,2.837344169616699,2.6405205726623535
1701978758584042800,4.753042724609375,0.9566061496734619,2.9863948822021484,2.7046608924865723
1701978758601033000,4.770032958984375,0.6156125068664551,2.743713855743408,3.3881115913391113
1701978758618023200,4.787023193359375,0.10646700859069824,1.7706522941589355,4.418701648712158
1701978758635017700,4.804017822265625,-0.022090435028076172,1.2246427536010742,3.806122303009033
1701978758652001300,4.821001220703125,0.35708045959472656,0.9558806419372559,3.0112996101379395
1701978758668997000,4.8379970703125,0.9604485034942627,1.5754504203796387,2.2156128883361816
1701978758685984300,4.854984375,1.280085802078247,2.135542392730713,2.178493022918701
1701978758702974700,4.871974609375,0.9205999374389648,1.6677470207214355,3.6618852615356445
1701978758719965000,4.88896484375,0.7188265323638916,1.7971210479736328,4.032333850860596
1701978758736955100,4.905955078125,0.5543415546417236,2.162332057952881,3.8490614891052246
1701978758753945600,4.922945556640625,0.7358722686767578,2.274522304534912,3.1265454292297363
1701978758770935800,4.939935791015625,0.8468680381774902,1.877934455871582,2.876706123352051
1701978758787926000,4.956926025390625,0.5312895774841309,1.9945602416992188,2.325261116027832
1701978758804906500,4.973906494140625,-0.47209739685058594,1.5481934547424316,2.553182601928711
1701978758821906200,4.99090625,-0.9343118667602539,0.2434391975402832,2.8892836570739746
1701978758838896600,5.007896728515625,-0.31682872772216797,-0.06126070022583008,1.9224348068237305
1701978758855887400,5.024887451171875,2.2826621532440186,-0.3553428649902344,0.9009995460510254
1701978758872877300,5.041877197265625,-1.0168914794921875,-1.31976318359375,1.8667831420898438
1701978758889867500,5.058867431640625,-1.3092012405395508,0.04079627990722656,1.313976764678955
1701978758906858000,5.07585791015625,-2.45097017288208,0.6345405578613281,0.9060382843017578
1701978758923848400,5.092848388671875,-2.298387050628662,0.5805740356445312,1.2533044815063477
1701978758940838400,5.10983837890625,-0.7505931854248047,1.106295108795166,2.1086902618408203
1701978758957828900,5.126828857421875,-0.2745838165283203,1.5588083267211914,2.6551270484924316
1701978758974819000,5.143819091796875,-0.6399993896484375,1.3908286094665527,3.165771961212158
1701978758991809500,5.1608095703125,-0.48096752166748047,1.659494400024414,3.2676453590393066
1701978759008799700,5.1777998046875,-0.23333501815795898,2.130931854248047,3.2348079681396484
1701978759025789700,5.194789794921875,-0.07137537002563477,2.240279197692871,3.825194835662842
1701978759042780400,5.211780517578125,0.8573315143585205,2.1045455932617188,4.5041985511779785
1701978759059766000,5.22876611328125,1.7790756225585938,1.6403183937072754,4.574732780456543
1701978759076754000,5.24575390625,2.1132376194000244,1.5256237983703613,3.9681029319763184
1701978759093751000,5.2627509765625,2.104316473007202,1.6274261474609375,3.179990291595459
1701978759110730800,5.279730712890625,1.7610247135162354,2.0126094818115234,2.762971878051758
1701978759127729000,5.29672900390625,1.299602746963501,2.426684856414795,3.1387271881103516
1701978759144724500,5.313724365234375,0.946364164352417,1.9960265159606934,3.8606715202331543
1701978759161712000,5.330712158203125,1.6743152141571045,1.914656162261963,3.665095806121826
1701978759178702300,5.347702392578125,2.362579822540283,1.8363852500915527,3.452115535736084
1701978759195692800,5.36469287109375,2.453258514404297,1.7288055419921875,3.2070798873901367
1701978759212683000,5.38168310546875,2.42718768119812,1.836306095123291,2.845029830932617
1701978759229673500,5.398673583984375,2.0802900791168213,1.4876298904418945,2.6556334495544434
1701978759246663400,5.415663330078125,2.2415175437927246,1.1483254432678223,2.48911190032959
1701978759263667200,5.432667236328125,2.0885000228881836,1.0057716369628906,2.3748435974121094
1701978759280643800,5.449643798828125,1.292253851890564,0.9279556274414062,2.047046661376953
1701978759297634000,5.466634033203125,0.7479057312011719,1.1613898277282715,1.0312023162841797
1701978759314624800,5.483624755859375,0.5966436862945557,1.4289674758911133,0.4526066780090332
1701978759331604500,5.5006044921875,0.7862750291824341,1.63765287399292,0.37057924270629883
1701978759348605200,5.517605224609375,1.621078372001648,1.4623160362243652,0.5295486450195312
1701978759365595400,5.534595458984375,2.289166212081909,1.0171403884887695,0.6525769233703613
1701978759382585600,5.551585693359375,2.555194139480591,0.6412301063537598,0.3852272033691406
1701978759399575800,5.568575927734375,2.6761314868927,0.28165483474731445,-0.26399660110473633
1701978759416566300,5.585566162109375,3.1370811462402344,0.19237947463989258,-1.0862135887145996
1701978759433556500,5.602556396484375,3.6721417903900146,0.16147994995117188,-1.5773248672485352
1701978759450544000,5.619544189453125,3.646970748901367,-0.23317670822143555,-1.2314343452453613
1701978759467537200,5.636537109375,2.9353809356689453,-0.8048324584960938,-0.6374821662902832
1701978759484527000,5.653527099609375,2.4973106384277344,-1.096567153930664,-0.9732017517089844
1701978759501517600,5.670517578125,3.1052021980285645,-1.402043342590332,-1.738335132598877
1701978759518497800,5.687497802734375,3.8452117443084717,-1.5162761211395264,-2.422600269317627
1701978759535495700,5.70449560546875,4.312565326690674,-1.9386816024780273,-2.511500835418701
1701978759552491000,5.721490966796875,3.9673213958740234,-2.4073691368103027,-2.115227699279785
1701978759569479000,5.73847900390625,2.9069466590881348,-2.791764736175537,-1.4466075897216797
1701978759586467000,5.755467041015625,1.778264045715332,-3.0505387783050537,-1.0421380996704102
1701978759603458800,5.772458740234375,2.1415207386016846,-2.9616191387176514,-1.1433115005493164
1701978759620444400,5.7894443359375,2.689772605895996,-2.927356004714966,-1.4507794380187988
1701978759637440000,5.80643994140625,3.139827251434326,-3.2891170978546143,-1.6194038391113281
1701978759654430200,5.82343017578125,2.9729437828063965,-3.714956521987915,-1.4972553253173828
1701978759671417900,5.84041796875,2.3284215927124023,-4.397156715393066,-1.1617345809936523
1701978759688412700,5.85741259765625,2.52443790435791,-4.867488861083984,-0.9501924514770508
1701978759705400600,5.874400634765625,2.8575167655944824,-4.7774810791015625,-0.9753379821777344
1701978759722378000,5.8913779296875,2.7893214225769043,-5.052657127380371,-1.0735149383544922
1701978759739381800,5.9083818359375,2.889204978942871,-5.904829502105713,-1.024169921875
1701978759756358400,5.9253583984375,3.2164597511291504,-6.007514953613281,-1.1627836227416992
1701978759773364700,5.94236474609375,2.591099262237549,-6.156434535980225,-0.9555416107177734
1701978759790350000,5.95935009765625,1.0580646991729736,-5.83958625793457,-0.8882284164428711
1701978759807342600,5.976342529296875,-0.3269917964935303,-5.845902442932129,-0.11091136932373047
1701978759824335600,5.993335693359375,-0.5672657489776611,-5.87481689453125,0.7249851226806641
1701978759841322800,6.01032275390625,0.11899065971374512,-5.867976188659668,1.2818775177001953
1701978759858314200,6.027314208984375,0.002048671245574951,-6.0535688400268555,1.7467279434204102
1701978759875304000,6.044303955078125,-1.0318397283554077,-5.921478271484375,1.7270212173461914
1701978759892294100,6.061294189453125,-2.250302791595459,-5.69619083404541,1.555037498474121
1701978759909284000,6.0782841796875,-2.6033096313476562,-5.81920051574707,1.7938432693481445
1701978759926273800,6.095273681640625,-2.277278423309326,-6.019099235534668,2.0987558364868164
1701978759943265500,6.112265625,-2.2487783432006836,-6.708573818206787,2.7730894088745117
1701978759960255000,6.1292548828125,-1.4657340049743652,-6.909893989562988,2.6654529571533203
1701978759977238800,6.14623876953125,-0.888761043548584,-7.137104511260986,1.9256105422973633
1701978759994236000,6.16323583984375,0.014721810817718506,-7.2303361892700195,0.7965364456176758
1701978760011225900,6.180225830078125,1.5693005323410034,-7.239136219024658,-0.0021352767944335938
1701978760028216300,6.19721630859375,2.49786376953125,-7.132730484008789,0.4742412567138672
1701978760045206300,6.214206298828125,0.27661892771720886,-8.07864761352539,2.8065338134765625
1701978760062197000,6.231197021484375,-2.7347493171691895,-7.757749557495117,2.0308218002319336
1701978760079187000,6.24818701171875,-4.1944050788879395,-6.642129421234131,-0.584345817565918
1701978760096177400,6.265177490234375,-3.9410104751586914,-6.1770477294921875,-1.8679070472717285
1701978760113167600,6.282167724609375,-1.7360639572143555,-6.301995277404785,-1.3847894668579102
1701978760130141200,6.29914111328125,0.5489935874938965,-6.679324150085449,-0.5049295425415039
1701978760147145500,6.3161455078125,1.9368247985839844,-6.918877124786377,0.7648591995239258
1701978760164140800,6.333140869140625,1.683379888534546,-6.892092704772949,1.6292314529418945
1701978760181128400,6.35012841796875,0.9002440571784973,-6.650490760803223,1.2383604049682617
1701978760198119000,6.367118896484375,0.4164204001426697,-6.033243179321289,-0.08159732818603516
1701978760215109400,6.384109375,-0.05360439419746399,-5.436328887939453,-1.3461942672729492
1701978760232097300,6.40109716796875,-0.4659784734249115,-4.981134414672852,-2.0465621948242188
1701978760249092400,6.41809228515625,-1.1642687320709229,-4.400295257568359,-2.6125411987304688
1701978760266070300,6.4350703125,-1.5155749320983887,-3.6365013122558594,-2.7075552940368652
1701978760283057400,6.452057373046875,-1.6528351306915283,-3.1522417068481445,-2.8844542503356934
1701978760300062500,6.4690625,-1.3131617307662964,-3.0655863285064697,-2.902625560760498
1701978760317048300,6.48604833984375,-0.4423227310180664,-2.930697202682495,-2.8684048652648926
1701978760334044000,6.5030439453125,0.21195575594902039,-2.755694627761841,-2.857499599456787
1701978760351031800,6.52003173828125,0.8711873292922974,-2.596137046813965,-2.5869102478027344
1701978760368022000,6.53702197265625,1.7310492992401123,-2.5621469020843506,-1.9632763862609863
1701978760385012200,6.55401220703125,2.4572136402130127,-2.426875114440918,-1.7564454078674316
1701978760402002400,6.57100244140625,3.0309321880340576,-2.0830447673797607,-2.053673267364502
1701978760418992600,6.58799267578125,3.3611044883728027,-1.6696720123291016,-2.3505215644836426
1701978760435983000,6.604983154296875,3.684873580932617,-1.2614336013793945,-2.340691566467285
1701978760452973300,6.621973388671875,4.063911437988281,-1.0448150634765625,-1.8284401893615723
1701978760469963800,6.6389638671875,4.341251373291016,-0.6620388031005859,-1.1888484954833984
1701978760486953700,6.65595361328125,4.4414825439453125,-0.1702718734741211,-0.647590160369873
1701978760503944000,6.67294384765625,4.309535503387451,0.30036306381225586,-0.19881963729858398
1701978760520934400,6.689934326171875,4.013360023498535,0.6341719627380371,0.17303943634033203
1701978760537924600,6.706924560546875,3.673187732696533,0.8915572166442871,0.0811762809753418
1701978760554915000,6.7239150390625,3.771069049835205,1.1651623249053955,-0.1315770149230957
1701978760571905300,6.7409052734375,4.249758720397949,1.3698749542236328,0.06474018096923828
1701978760588895500,6.7578955078125,4.284782886505127,1.366265058517456,0.8644404411315918
1701978760605885700,6.7748857421875,4.484394073486328,1.3313560485839844,1.352426528930664
1701978760622876200,6.791876220703125,4.655220985412598,1.5406005382537842,1.2172880172729492
1701978760639866400,6.808866455078125,4.486215114593506,1.8320202827453613,0.9594917297363281
1701978760656856300,6.825856201171875,4.439332962036133,2.178133964538574,0.7076277732849121
1701978760673847000,6.842846923828125,4.596963882446289,2.4474480152130127,1.0133357048034668
1701978760690826500,6.859826416015625,4.635599136352539,2.483551263809204,2.2902889251708984
1701978760707827500,6.876827392578125,4.5175018310546875,2.5194263458251953,3.29843807220459
1701978760724817700,6.893817626953125,4.489243984222412,2.57417893409729,3.165619373321533
1701978760741808000,6.91080810546875,4.296225547790527,2.5635569095611572,2.47853946685791
1701978760758798000,6.927798095703125,4.137869834899902,2.5766713619232178,1.7867355346679688
1701978760775788800,6.944788818359375,3.551811695098877,2.4533333778381348,1.7678766250610352
1701978760792778800,6.96177880859375,2.9345200061798096,2.1818127632141113,2.113711357116699
1701978760809769000,6.97876904296875,2.696564197540283,1.7908811569213867,2.9183106422424316
1701978760826759200,6.99575927734375,3.802922248840332,1.440941333770752,3.885617733001709
1701978760843747000,7.0127470703125,3.743004083633423,1.273514747619629,4.752778053283691
1701978760860729900,7.029729736328125,1.9316909313201904,0.9022150039672852,5.080486297607422
1701978760877722600,7.04672265625,-0.0853266716003418,0.6068019866943359,4.569887161254883
1701978760894711600,7.063711669921875,-1.7561445236206055,0.3621096611022949,3.6400880813598633
1701978760911701200,7.080701171875,-1.9665565490722656,0.391721248626709,3.4293394088745117
1701978760928694300,7.0976943359375,-1.0950446128845215,0.46414756774902344,4.002711296081543
1701978760945681000,7.114680908203125,-0.3106517791748047,-0.0047359466552734375,3.963517189025879
1701978760962673700,7.131673583984375,0.3750309944152832,-0.027516841888427734,2.9802403450012207
1701978760979662800,7.148662841796875,0.7584085464477539,0.23928260803222656,1.7323055267333984
1701978760996651500,7.165651611328125,0.6844334602355957,0.6850452423095703,1.3311982154846191
1701978761013645800,7.182645751953125,0.04230451583862305,0.9818816184997559,1.7447123527526855
1701978761030627800,7.1996279296875,-0.611605167388916,0.9697151184082031,3.036609649658203
1701978761047627300,7.216627197265625,-0.9219698905944824,0.845573902130127,4.253709316253662
1701978761064615700,7.23361572265625,-0.5099029541015625,0.7057914733886719,4.286797046661377
1701978761081604600,7.2506044921875,-0.400209903717041,0.7978157997131348,3.5692219734191895
1701978761098598400,7.267598388671875,-0.15423822402954102,1.0525126457214355,3.386137008666992
1701978761115583500,7.28458349609375,-0.45586299896240234,1.1815791130065918,3.5513525009155273
1701978761132575000,7.301574951171875,-0.9652161598205566,1.06129789352417,4.2446608543396
1701978761149566500,7.31856640625,-1.330955982208252,0.8204913139343262,5.303177356719971
1701978761166559700,7.335559814453125,-0.6159682273864746,0.6702456474304199,5.318531036376953
1701978761183548200,7.352548095703125,0.419661283493042,1.0272607803344727,4.2831268310546875
1701978761200535800,7.369535888671875,0.910515308380127,1.5554461479187012,3.1649317741394043
1701978761217525000,7.38652490234375,0.8252749443054199,1.968122959136963,2.745589256286621
1701978761234519000,7.40351904296875,0.5083341598510742,1.985870361328125,3.0741095542907715
1701978761251512600,7.4205126953125,0.10419893264770508,1.8172402381896973,3.853024482727051
1701978761268500000,7.4375,0.6003520488739014,1.5910239219665527,4.468074321746826
1701978761285487900,7.45448779296875,1.8736590147018433,1.590240478515625,4.335011959075928
1701978761302489900,7.47148974609375,2.9035470485687256,1.679971694946289,3.6907215118408203
1701978761319477800,7.488477783203125,3.3817203044891357,1.8032960891723633,3.1571402549743652
1701978761336467700,7.5054677734375,3.4058969020843506,1.9441514015197754,2.972529888153076
1701978761353458200,7.522458251953125,2.79524564743042,1.6570162773132324,3.7277441024780273
1701978761370459400,7.53945947265625,2.3646364212036133,1.2998242378234863,4.513976573944092
1701978761387436300,7.556436279296875,2.9272172451019287,0.9182915687561035,5.076122283935547
1701978761404431600,7.573431640625,3.7057993412017822,0.8710765838623047,4.28853702545166
1701978761421409800,7.590409912109375,4.184443473815918,0.7266955375671387,3.0068984031677246
1701978761438409700,7.60740966796875,3.9144158363342285,0.6324987411499023,1.9205894470214844
1701978761455401000,7.62440087890625,2.9902820587158203,0.39716100692749023,1.0083813667297363
1701978761472376800,7.641376953125,1.7544714212417603,0.5339717864990234,0.11623811721801758
1701978761489364200,7.6583642578125,0.559539794921875,0.5435442924499512,-0.20617103576660156
1701978761506368800,7.67536865234375,-0.28255653381347656,0.4495058059692383,-0.3837318420410156
1701978761523363300,7.69236328125,-0.32040882110595703,0.3662543296813965,-0.8533754348754883
1701978761540351200,7.709351318359375,0.07430362701416016,0.12521743774414062,-1.6104974746704102
1701978761557341700,7.726341796875,0.7233712673187256,-0.1303877830505371,-2.4498519897460938
1701978761574332000,7.743331787109375,1.5765390396118164,-0.06901216506958008,-2.696732521057129
1701978761591322400,7.760322265625,2.176283836364746,0.01719808578491211,-2.4976296424865723
1701978761608312600,7.7773125,2.278902053833008,-0.1984105110168457,-1.9638090133666992
1701978761625302800,7.794302734375,1.7097247838974,-0.8309512138366699,-1.4319748878479004
1701978761642293200,7.811293212890625,1.2048001289367676,-1.2752928733825684,-1.5748820304870605
1701978761659283500,7.828283447265625,1.3379485607147217,-1.4764931201934814,-2.1436638832092285
1701978761676271000,7.84527099609375,2.3088433742523193,-1.5267770290374756,-2.3381848335266113
1701978761693266700,7.8622666015625,3.420138359069824,-1.6421680450439453,-1.9667673110961914
1701978761710254000,7.879254150390625,3.184079170227051,-2.2155776023864746,-1.2718138694763184
1701978761727229700,7.896229736328125,1.6636301279067993,-3.1232969760894775,-0.8490495681762695
1701978761744238800,7.91323876953125,0.038433194160461426,-3.087475538253784,-1.605036735534668
1701978761761225200,7.93022509765625,-0.9431264400482178,-3.3096184730529785,-2.1646952629089355
1701978761778215400,7.94721533203125,-0.6999598741531372,-3.281113386154175,-2.4896159172058105
1701978761795206000,7.964205810546875,0.8069517612457275,-3.0022828578948975,-2.5532755851745605
1701978761812196000,7.981196044921875,2.0906600952148438,-2.8269526958465576,-2.658942222595215
1701978761829186000,7.99818603515625,2.56302547454834,-3.2278780937194824,-2.0677847862243652
1701978761846176500,8.015176513671875,2.192255973815918,-3.45884108543396,-1.5525879859924316
1701978761863166700,8.032166748046874,0.8565133810043335,-3.812283515930176,-1.4882397651672363
1701978761880157200,8.0491572265625,-0.0644075870513916,-4.042755126953125,-2.33076810836792
1701978761897147600,8.066147705078125,1.2149572372436523,-4.2079291343688965,-2.5730886459350586
1701978761914135000,8.083135009765625,2.808328628540039,-3.5381577014923096,-2.1488990783691406
1701978761931130600,8.100130615234375,2.7411954402923584,-3.378664016723633,-0.6335668563842773
1701978761948121000,8.11712109375,2.1201250553131104,-4.057696342468262,-0.4681119918823242
1701978761965098000,8.134097900390625,1.4471074342727661,-4.078500270843506,-1.2316274642944336
1701978761982098700,8.1510986328125,0.6433271169662476,-3.836196184158325,-1.531104564666748
1701978761999089200,8.168089111328126,-0.3551795482635498,-3.6230645179748535,-1.0822620391845703
1701978762016079400,8.185079345703125,-1.6047415733337402,-3.984161615371704,0.1947469711303711
1701978762033069600,8.202069580078126,-1.5637195110321045,-4.476802825927734,1.7374963760375977
1701978762050063000,8.21906298828125,-0.34864383935928345,-4.752840042114258,2.4361371994018555
1701978762067044400,8.23604443359375,0.11805707216262817,-5.432433128356934,2.868412971496582
1701978762084040400,8.25304052734375,0.3099290132522583,-6.6723737716674805,2.729127883911133
1701978762101031000,8.270031005859375,0.18362194299697876,-6.864248752593994,1.3324298858642578
1701978762118021000,8.287021240234376,-0.3922168016433716,-6.989468574523926,0.6144504547119141
1701978762135011600,8.304011474609375,-1.4649827480316162,-7.085055828094482,0.5783052444458008
1701978762152001800,8.321001708984374,-2.156142234802246,-6.888940811157227,0.7106971740722656
1701978762168990000,8.337989990234375,-1.7894376516342163,-6.86728572845459,1.473301887512207
1701978762185984300,8.354984375,-1.0411111116409302,-6.145562171936035,1.7705135345458984
1701978762202972700,8.37197265625,-0.3803720474243164,-5.906017303466797,2.0985536575317383
1701978762219963000,8.388962890625,0.5282235145568848,-5.48799467086792,1.9826478958129883
1701978762236952800,8.405952880859376,1.0310851335525513,-5.280794143676758,1.7376585006713867
1701978762253943600,8.422943603515625,1.2301743030548096,-5.543839454650879,1.9133319854736328
1701978762270931000,8.439930908203126,1.3452353477478027,-5.799308776855469,1.9616317749023438
1701978762287926800,8.4569267578125,1.1487700939178467,-5.999217987060547,1.7440814971923828
1701978762304914200,8.4739140625,1.0566790103912354,-5.444579601287842,0.7347249984741211
1701978762321904600,8.490904541015626,0.8908730745315552,-4.7620134353637695,-0.564854621887207
1701978762338894600,8.50789453125,0.6474120020866394,-4.436045169830322,-1.3341360092163086
1701978762355885000,8.524885009765624,0.42573273181915283,-4.3528337478637695,-1.2566490173339844
1701978762372875500,8.54187548828125,0.02132117748260498,-4.4433274269104,-0.4057197570800781
1701978762389865700,8.55886572265625,-0.4001234769821167,-4.639073371887207,-0.30710887908935547
1701978762406856200,8.575856201171876,-0.35890352725982666,-4.1978349685668945,-1.3088998794555664
1701978762423846100,8.59284619140625,-0.011738300323486328,-3.433626174926758,-2.335256576538086
1701978762440836400,8.60983642578125,0.18457934260368347,-2.8278486728668213,-2.64798641204834
1701978762457827000,8.6268271484375,0.24155426025390625,-2.4032034873962402,-1.919112205505371
1701978762474817000,8.643817138671874,-0.008391737937927246,-2.3169357776641846,-0.7400016784667969
1701978762491807500,8.660807373046875,-0.5499836206436157,-2.177429437637329,-0.2816162109375
1701978762508796400,8.67779638671875,-0.560548722743988,-1.7643465995788574,-0.8228425979614258
1701978762525788000,8.694787841796876,-0.2329515814781189,-1.1886601448059082,-1.711580753326416
1701978762542778000,8.711778076171875,0.38005226850509644,-0.5250053405761719,-2.0741872787475586
1701978762559768300,8.728768310546876,0.9089298248291016,-0.027668476104736328,-1.8151988983154297
1701978762576760300,8.74576025390625,1.2695685625076294,0.20227861404418945,-1.5612092018127441
1701978762593748500,8.76274853515625,1.5196117162704468,0.32050228118896484,-1.3902344703674316
1701978762610730000,8.77972998046875,1.7610588073730469,0.4797358512878418,-1.3633785247802734
1701978762627729700,8.796729736328125,1.964773416519165,0.7495388984680176,-1.7146973609924316
1701978762644719900,8.813719970703126,1.941457986831665,1.128854751586914,-2.190361499786377
1701978762661710300,8.83071044921875,2.1475441455841064,1.0578055381774902,-2.0885934829711914
1701978762678690000,8.84768994140625,2.6433944702148438,1.272200107574463,-2.1524834632873535
1701978762695691000,8.86469091796875,2.732909679412842,1.396134376525879,-1.8770270347595215
1701978762712670700,8.881670654296874,2.239325761795044,1.4520745277404785,-1.0898690223693848
1701978762729671400,8.89867138671875,1.6849676370620728,1.343869686126709,-0.7037239074707031
1701978762746661600,8.91566162109375,1.368459701538086,1.1320505142211914,-0.8115949630737305
1701978762763651800,8.93265185546875,1.5355932712554932,0.563873291015625,-1.1549606323242188
1701978762780642600,8.949642578125,2.563504695892334,0.16922807693481445,-1.52683687210083
1701978762797632800,8.9666328125,3.329834222793579,0.4188065528869629,-1.8583321571350098
1701978762814623000,8.983623046875,3.2899601459503174,0.6243047714233398,-1.6019363403320312
1701978762831602700,9.000602783203124,2.560380458831787,0.7161946296691895,-0.6536464691162109
1701978762848603600,9.017603759765626,1.637424111366272,0.34542083740234375,0.20876598358154297
1701978762865593600,9.034593505859375,1.579903244972229,0.3843564987182617,-0.2013411521911621
1701978762882584000,9.051583984375,2.018016815185547,0.6382765769958496,-0.9355120658874512
1701978762899574500,9.068574462890625,2.6442413330078125,1.2141876220703125,-1.1549177169799805
1701978762916565800,9.085565673828125,2.9382476806640625,1.3442354202270508,-0.31938648223876953
1701978762933551400,9.10255126953125,2.534792423248291,1.0449070930480957,1.436037540435791
1701978762950559000,9.11955908203125,1.1649692058563232,0.542724609375,3.262728214263916
1701978762967535600,9.13653564453125,0.9442746639251709,0.5004434585571289,2.3124871253967285
1701978762984525800,9.15352587890625,1.2820093631744385,0.6532387733459473,0.6785283088684082
1701978763001516000,9.17051611328125,1.9509114027023315,0.7100429534912109,0.12925291061401367
1701978763018506200,9.18750634765625,2.7644076347351074,0.5983929634094238,0.25182008743286133
1701978763035493000,9.2044931640625,2.8772077560424805,0.7191376686096191,0.8653702735900879
1701978763052490800,9.22149072265625,2.2244815826416016,0.7393012046813965,1.8483710289001465
1701978763069477400,9.238477294921875,1.4193849563598633,0.5247845649719238,3.077519416809082
1701978763086467600,9.255467529296874,1.0585265159606934,0.655848503112793,3.3242454528808594
1701978763103457500,9.27245751953125,1.3233582973480225,0.9915180206298828,3.2044687271118164
1701978763120448300,9.2894482421875,1.8355169296264648,1.1458168029785156,3.114251136779785
1701978763137438500,9.3064384765625,2.431912899017334,0.7370219230651855,3.4584298133850098
1701978763154429000,9.323428955078125,3.191256523132324,0.1802072525024414,4.049883842468262
1701978763171419400,9.34041943359375,2.692171573638916,0.025261878967285156,4.6229567527771
1701978763188409000,9.3574091796875,1.6402263641357422,0.33681249618530273,3.9480977058410645
1701978763205389000,9.37438916015625,0.4599156379699707,0.6800370216369629,3.0625219345092773
1701978763222390000,9.39139013671875,-0.14757680892944336,0.9265947341918945,2.6562671661376953
1701978763239380000,9.4083798828125,-0.15232300758361816,0.8188271522521973,2.9041690826416016
1701978763256370400,9.425370361328126,0.33818483352661133,0.38967323303222656,4.086737632751465
1701978763273361000,9.44236083984375,-1.1543664932250977,0.49776220321655273,5.218728542327881
1701978763290351000,9.45935107421875,-2.3013291358947754,1.5374541282653809,3.152273654937744
1701978763307338800,9.4763388671875,-1.9644355773925781,2.3095040321350098,0.7162127494812012
1701978763324334600,9.49333447265625,-1.4444286823272705,1.8135085105895996,0.5456418991088867
1701978763341322200,9.510322265625,-0.5204629898071289,0.8529825210571289,1.9141993522644043
1701978763358312200,9.527312255859375,-0.3739027976989746,0.45238685607910156,3.8264546394348145
1701978763375313000,9.54431298828125,-0.9131464958190918,1.0058565139770508,4.806644916534424
1701978763392287500,9.56128759765625,-1.4986250400543213,1.6444611549377441,4.875707626342773
1701978763409285600,9.57828564453125,-1.478194236755371,1.969141960144043,4.78225564956665
1701978763426272800,9.595272705078125,-0.5091855525970459,2.3183298110961914,4.277256011962891
1701978763443264300,9.61226416015625,0.3290836811065674,1.9070839881896973,4.0618767738342285
1701978763460259000,9.629259033203125,1.3565824031829834,1.7196269035339355,4.122191905975342
1701978763477247000,9.6462470703125,1.6724580526351929,2.068631172180176,4.685237407684326
1701978763494233600,9.663233642578126,1.3531053066253662,1.9686851501464844,5.22346830368042
1701978763511224800,9.680224853515625,1.004615306854248,2.1893482208251953,4.671807765960693
1701978763528215000,9.697215087890624,1.3066225051879883,2.7188897132873535,3.6409707069396973
1701978763545202200,9.7142021484375,1.8740514516830444,2.9167332649230957,3.6861886978149414
1701978763562196000,9.731196044921875,1.8217073678970337,2.4989943504333496,4.360455513000488
1701978763579186000,9.74818603515625,1.9230213165283203,1.8011126518249512,5.187385082244873
1701978763596173800,9.765173828125,1.9404128789901733,2.0661110877990723,4.343080043792725
1701978763613169400,9.78216943359375,2.5946125984191895,2.0460710525512695,3.3898491859436035
1701978763630157300,9.7991572265625,3.511369228363037,2.1563611030578613,2.518310070037842
1701978763647144700,9.816144775390624,4.001626014709473,2.2315826416015625,1.6380338668823242
1701978763664139800,9.833139892578124,3.6965911388397217,2.1565561294555664,1.0576868057250977
1701978763681128000,9.8501279296875,2.643848180770874,1.9817767143249512,0.811830997467041
1701978763698118100,9.8671181640625,1.8198487758636475,1.9218683242797852,0.5576720237731934
1701978763715108600,9.884108642578125,1.144214153289795,1.857424259185791,0.4138917922973633
1701978763732098800,9.901098876953125,1.1094659566879272,1.6385693550109863,0.3703579902648926
1701978763749079000,9.9180791015625,1.4471275806427002,1.3261761665344238,0.14082860946655273
1701978763766079500,9.93507958984375,1.9471607208251953,1.1221585273742676,-0.028660297393798828
1701978763783069400,9.9520693359375,1.9245883226394653,0.8849682807922363,-0.06111860275268555
1701978763800059600,9.9690595703125,1.6436443328857422,0.5966920852661133,0.15803289413452148
1701978763817050400,9.98605029296875,0.9788483381271362,0.45763206481933594,0.07627344131469727
1701978763834040600,10.00304052734375,0.6318191289901733,0.5850205421447754,-0.3905010223388672
1701978763851030800,10.02003076171875,0.8863452672958374,0.42995643615722656,-0.6586847305297852
1701978763868021200,10.037021240234376,1.6872012615203857,0.06244802474975586,-0.4490165710449219
1701978763885009200,10.054009033203124,2.3312056064605713,-0.4970436096191406,0.00081634521484375
1701978763902004200,10.071004150390625,2.502918004989624,-1.3118715286254883,0.31814002990722656
1701978763918992000,10.087991943359375,2.5913448333740234,-1.795919418334961,-0.1944866180419922
1701978763935972000,10.10497216796875,2.3159241676330566,-1.4769248962402344,-1.4518156051635742
1701978763952972500,10.12197265625,1.7459874153137207,-1.9550204277038574,-1.9389820098876953
1701978763969963000,10.138962890625,2.360485076904297,-2.3316116333007812,-1.898226261138916
1701978763986953000,10.155952880859376,2.6198935508728027,-2.6178905963897705,-1.8681998252868652
1701978764003943400,10.172943359375,2.555210590362549,-2.7287888526916504,-1.8595380783081055
1701978764020923400,10.18992333984375,1.8798449039459229,-2.702789545059204,-1.952688217163086
1701978764037923800,10.206923828125,1.0247347354888916,-2.771038055419922,-2.316594123840332
1701978764054915000,10.2239150390625,0.2669321298599243,-3.289592742919922,-3.060328960418701
1701978764071904300,10.240904296875,0.5533925294876099,-4.416068077087402,-3.4988460540771484
1701978764088884200,10.25788427734375,2.656236171722412,-4.237395286560059,-3.467806339263916
1701978764105885200,10.27488525390625,3.186020612716675,-4.083169937133789,-2.095170497894287
1701978764122873000,10.291873046875,2.2925450801849365,-4.055428504943848,-0.6590394973754883
1701978764139868400,10.308868408203125,0.9033634662628174,-4.249093055725098,-0.38988590240478516
1701978764156856000,10.32585595703125,0.04980289936065674,-4.453556060791016,-0.9150876998901367
1701978764173846500,10.342846435546875,-0.6565232276916504,-4.730257034301758,-1.5746679306030273
1701978764190827000,10.359826904296876,-0.6640048027038574,-4.542365074157715,-1.5237045288085938
1701978764207827200,10.3768271484375,-0.7134240865707397,-5.05496072769165,-0.6524162292480469
1701978764224816000,10.393816162109376,0.6300658583641052,-5.376226425170898,0.5125951766967773
1701978764241806300,10.410806396484375,1.3184614181518555,-5.272246360778809,0.7781696319580078
1701978764258804500,10.427804443359374,1.2777775526046753,-5.182877540588379,0.19219017028808594
1701978764275788300,10.444788330078126,0.6059749722480774,-4.839931488037109,-0.9970331192016602
1701978764292776000,10.46177587890625,-0.13670122623443604,-5.086116313934326,-1.8105626106262207
1701978764309771300,10.478771240234375,-0.5842210054397583,-6.071071624755859,-1.363321304321289
1701978764326759200,10.49575927734375,-0.6884379386901855,-6.940864086151123,0.17332077026367188
1701978764343749000,10.5127490234375,-1.8790465593338013,-6.270773887634277,1.779947280883789
1701978764360737500,10.529737548828125,-2.705571174621582,-5.433925628662109,2.2115440368652344
1701978764377720600,10.546720458984375,-2.650902509689331,-5.16092586517334,2.0916738510131836
1701978764394710500,10.56371044921875,-1.62692391872406,-5.212618827819824,1.902705192565918
1701978764411700500,10.580700439453125,-0.00363922119140625,-5.771419525146484,1.5239133834838867
1701978764428691000,10.59769091796875,0.8121668100357056,-6.505494594573975,1.4079227447509766
1701978764445681700,10.614681640625,0.28962552547454834,-6.611471176147461,1.266739845275879
1701978764462674000,10.631673828125,-0.4174765348434448,-5.959953308105469,1.6259031295776367
1701978764479664400,10.648664306640624,-0.9501258134841919,-4.880585670471191,1.658247947692871
1701978764496655000,10.665655029296875,-0.9537698030471802,-4.126961708068848,1.795701026916504
1701978764513644000,10.68264404296875,-0.7847456932067871,-4.642251014709473,2.367539405822754
1701978764530624800,10.699624755859375,0.41400325298309326,-5.066535472869873,1.8086090087890625
1701978764547625700,10.716625732421875,1.463395595550537,-5.373180389404297,0.8417654037475586
1701978764564616400,10.733616455078124,2.209960460662842,-5.3793768882751465,0.4263343811035156
1701978764581603600,10.750603515625,1.7062740325927734,-4.967258930206299,-0.05566596984863281
1701978764598595600,10.767595703125,1.451274037361145,-4.876012802124023,-0.20317363739013672
1701978764615586600,10.784586669921875,1.3357552289962769,-4.692800045013428,-0.5096626281738281
1701978764632574700,10.80157470703125,1.5116575956344604,-4.550844192504883,-0.954869270324707
1701978764649566500,10.81856640625,1.514656662940979,-4.4390106201171875,-1.2002010345458984
1701978764666555600,10.8355556640625,1.5612847805023193,-3.8874592781066895,-1.359281063079834
1701978764683551700,10.8525517578125,1.4483568668365479,-3.2789306640625,-1.243502140045166
1701978764700535300,10.869535400390625,1.3785183429718018,-2.911414861679077,-1.0173444747924805
1701978764717529000,10.886529052734375,1.6295690536499023,-2.4215688705444336,-0.8692722320556641
1701978764734521600,10.903521484375,1.4404246807098389,-2.2084317207336426,-0.9388265609741211
1701978764751501000,10.9205009765625,1.0028555393218994,-1.9358162879943848,-1.3337879180908203
1701978764768507400,10.93750732421875,0.7615606784820557,-1.363757610321045,-1.7741727828979492
1701978764785497000,10.9544970703125,0.22020334005355835,-0.9929509162902832,-2.0912442207336426
1701978764802487600,10.971487548828126,-0.0009405016899108887,-0.7812442779541016,-2.039714813232422
1701978764819477800,10.988477783203125,-0.09568619728088379,-0.550471305847168,-1.9242072105407715
1701978764836467700,11.0054677734375,-0.04519057273864746,-0.5420999526977539,-1.7596421241760254
1701978764853458400,11.02245849609375,0.09902334213256836,-0.4320516586303711,-1.7328176498413086
1701978764870459100,11.039459228515625,0.7418474555015564,0.028829097747802734,-1.6078743934631348
1701978764887442000,11.05644189453125,1.3191721439361572,0.5068302154541016,-1.3372607231140137
1701978764904426200,11.07342626953125,1.6707831621170044,0.849947452545166,-0.9381752014160156
1701978764921419500,11.09041943359375,1.696502447128296,1.0578875541687012,-0.48784399032592773
1701978764938409700,11.10740966796875,1.545180320739746,1.113058090209961,-0.569068431854248
1701978764955400200,11.124400146484374,1.8772380352020264,1.0236663818359375,-0.8484468460083008
1701978764972379600,11.141379638671875,2.3629298210144043,1.2257094383239746,-1.0482749938964844
1701978764989380900,11.158380859375,2.6510982513427734,1.5148534774780273,-0.9871187210083008
1701978765006368800,11.17536865234375,2.383551836013794,1.6697053909301758,-0.2064661979675293
1701978765023363600,11.192363525390626,1.9067497253417969,1.7789678573608398,0.9960284233093262
1701978765040351700,11.209351806640624,1.2751843929290771,1.7337961196899414,2.293525218963623
1701978765057342000,11.226342041015625,1.0528547763824463,1.8828797340393066,2.541994571685791
1701978765074332200,11.243332275390625,1.4134865999221802,2.282564163208008,1.9420504570007324
1701978765091322600,11.260322509765626,1.6202361583709717,2.4353814125061035,2.008810043334961
1701978765108313000,11.27731298828125,1.4072611331939697,2.2836742401123047,3.1604552268981934
1701978765125302800,11.294302734375,1.0073215961456299,2.0291833877563477,4.268071174621582
1701978765142293500,11.31129345703125,1.3500454425811768,1.8828659057617188,3.9296927452087402
1701978765159270700,11.328270751953125,3.791299343109131,1.1354055404663086,2.7753477096557617
1701978765176274200,11.345274169921876,6.953027725219727,1.2632479667663574,1.517103672027588
1701978765193264400,11.362264404296875,8.546649932861328,1.373025894165039,1.1297969818115234
1701978765210254600,11.379254638671876,7.994795799255371,1.3958425521850586,1.5410761833190918
1701978765227240700,11.39624072265625,6.210285663604736,1.460838794708252,2.138706684112549
1701978765244239600,11.413239501953125,3.5923328399658203,1.8525705337524414,2.7155795097351074
1701978765261225700,11.430225830078125,1.3494312763214111,2.1228432655334473,2.543635368347168
1701978765278216000,11.4472158203125,0.505946159362793,1.6536026000976562,2.3755688667297363
1701978765295203800,11.464203857421875,1.1667628288269043,1.1603479385375977,2.2780590057373047
1701978765312199000,11.481198974609375,2.6287436485290527,0.6042909622192383,2.142857074737549
1701978765329186600,11.4981865234375,2.8382015228271484,0.318115234375,2.2388992309570312
1701978765346176800,11.5151767578125,1.830418586730957,1.2875723838806152,1.9863200187683105
1701978765363167200,11.532167236328124,0.4455227851867676,2.0724363327026367,1.6081604957580566
1701978765380165000,11.5491650390625,0.06346559524536133,1.6356825828552246,2.0847058296203613
1701978765397148000,11.56614794921875,1.6541695594787598,1.0721001625061035,3.1399354934692383
1701978765414135600,11.583135498046875,2.849783420562744,1.4314460754394531,3.1441636085510254
1701978765431131100,11.600131103515626,2.5736746788024902,1.8516583442687988,2.520418167114258
1701978765448118800,11.617118896484374,1.138798475265503,1.3019471168518066,2.112886905670166
1701978765465109200,11.634109130859375,-0.3701896667480469,0.8330516815185547,1.6198644638061523
1701978765482099200,11.65109912109375,-1.0414543151855469,0.5639610290527344,1.403810977935791
1701978765499089700,11.668089599609376,-1.8836581707000732,-0.04684925079345703,2.127851963043213
1701978765516080400,11.685080322265625,-1.6480598449707031,-0.26009654998779297,3.7061734199523926
1701978765533070300,11.7020703125,-1.0434324741363525,-0.4645371437072754,5.245995044708252
1701978765550046000,11.7190458984375,-0.12290334701538086,-0.1064753532409668,4.937520980834961
1701978765567056400,11.736056396484376,0.9942870140075684,0.2101297378540039,3.727832794189453
1701978765584040400,11.75304052734375,1.1229281425476074,0.11125326156616211,2.9940476417541504
1701978765601031400,11.770031494140625,0.7876396179199219,0.033347129821777344,3.0350165367126465
1701978765618021600,11.787021728515626,-0.037679433822631836,0.12242889404296875,3.2166390419006348
1701978765635012000,11.80401220703125,-0.8598630428314209,0.257997989654541,3.592245578765869
1701978765652002300,11.821002197265624,-0.8330237865447998,0.7906193733215332,3.1489248275756836
1701978765668993000,11.837992919921875,-0.5083858966827393,1.3301606178283691,2.418595790863037
1701978765685983000,11.85498291015625,0.07573819160461426,1.586568832397461,1.8159098625183105
1701978765702973200,11.87197314453125,0.4179832935333252,1.6125106811523438,1.3630199432373047
1701978765719963600,11.888963623046875,1.0192945003509521,1.8008217811584473,1.4223871231079102
1701978765736953900,11.905953857421874,1.045785665512085,1.822664737701416,2.3047614097595215
1701978765753933800,11.922933837890625,1.1498167514801025,1.988600730895996,3.309812068939209
1701978765770934500,11.9399345703125,1.346893548965454,2.2247395515441895,3.632338523864746
1701978765787924700,11.9569248046875,1.6911612749099731,2.266310691833496,3.442160129547119
1701978765804915000,11.9739150390625,1.8825445175170898,2.352936267852783,2.894949436187744
1701978765821894700,11.990894775390625,1.892372488975525,2.2795238494873047,2.4226431846618652
1701978765838895600,12.0078955078125,1.8176947832107544,2.0883655548095703,2.5041933059692383
1701978765855885800,12.0248857421875,1.6615204811096191,1.8379602432250977,2.7509098052978516
1701978765872878800,12.04187890625,1.8613858222961426,1.8491730690002441,2.5196800231933594
1701978765889864000,12.058864013671876,2.0080010890960693,1.9930787086486816,2.2000551223754883
1701978765906857000,12.07585693359375,1.5691702365875244,1.9906823635101318,1.5063624382019043
1701978765923847400,12.092847412109375,1.0819711685180664,1.668818473815918,0.4829845428466797
1701978765940837600,12.109837646484374,1.1108314990997314,1.2591476440429688,-0.1885371208190918
1701978765957827800,12.126827880859375,1.9912199974060059,0.9337315559387207,-0.014512062072753906
1701978765974825000,12.143824951171876,2.4618372917175293,0.8938617706298828,0.12912273406982422
1701978765991808500,12.16080859375,2.507476806640625,0.5464801788330078,0.7719545364379883
1701978766008798700,12.177798828125,2.1389143466949463,-0.036983489990234375,0.7296457290649414
1701978766025789200,12.1947890625,1.7766096591949463,-0.4253673553466797,0.02971363067626953
1701978766042779400,12.211779296875,1.4705804586410522,-0.8246841430664062,-0.45200252532958984
1701978766059769900,12.228769775390624,0.9163099527359009,-0.9616847038269043,-0.9297237396240234
1701978766076760300,12.24576025390625,0.6268960237503052,-0.8558354377746582,-1.7339472770690918
1701978766093747700,12.262747802734374,0.3620864152908325,-1.3155286312103271,-2.1203794479370117
1701978766110732800,12.27973291015625,0.38295912742614746,-2.250948905944824,-2.0786266326904297
1701978766127730700,12.296730712890625,0.7438229322433472,-3.0170657634735107,-2.052914619445801
1701978766144721200,12.31372119140625,1.3316210508346558,-3.1058647632598877,-2.44345760345459
1701978766161711600,12.330711669921875,1.3812181949615479,-3.046940803527832,-2.4921936988830566
1701978766178702000,12.3477021484375,0.35154181718826294,-2.853994131088257,-2.161294937133789
1701978766195681500,12.364681640625,-0.5229176878929138,-2.5377185344696045,-2.4613428115844727
1701978766212680000,12.381679931640624,-0.4907827377319336,-2.258613348007202,-2.6662344932556152
1701978766229675300,12.39867529296875,0.22023135423660278,-2.1887712478637695,-2.661841869354248
1701978766246663000,12.415662841796875,0.7678513526916504,-2.5842792987823486,-2.2590928077697754
1701978766263653000,12.432653076171874,0.9233330488204956,-2.7380754947662354,-2.312746047973633
1701978766280643600,12.4496435546875,1.0439839363098145,-2.874570369720459,-2.5683212280273438
1701978766297634000,12.466634033203125,0.7709779739379883,-3.0090105533599854,-2.478973865509033
1701978766314624300,12.483624267578126,0.4627159833908081,-3.16452956199646,-2.156464099884033
1701978766331602000,12.500601806640624,0.0506364107131958,-3.5310068130493164,-1.399510383605957
1701978766348607200,12.517607177734375,-0.2824277877807617,-4.300598621368408,-1.0381555557250977
1701978766365595100,12.53459521484375,-0.14531290531158447,-4.514249801635742,-1.511836051940918
1701978766382585300,12.55158544921875,0.11845135688781738,-4.452219486236572,-2.0345616340637207
1701978766399575600,12.568575439453125,0.4177514314651489,-4.149554252624512,-2.2332119941711426
1701978766416566300,12.585566162109375,0.6521276235580444,-3.591586112976074,-1.419942855834961
1701978766433556500,12.602556396484376,0.13987362384796143,-3.7546277046203613,0.3107261657714844
1701978766450546700,12.619546630859375,0.382343053817749,-3.913687229156494,1.1125106811523438
1701978766467535600,12.63653564453125,0.7626330852508545,-4.311608791351318,0.7196578979492188
1701978766484529000,12.65352880859375,0.6892288327217102,-4.579610824584961,-0.03857421875
1701978766501517600,12.670517578125,0.009329915046691895,-4.609672546386719,-1.151437759399414
1701978766518507800,12.6875078125,-0.2017909288406372,-4.936016082763672,-1.675638198852539
1701978766535498200,12.704498291015625,-0.4073692560195923,-4.940802574157715,-1.190922737121582
1701978766552488400,12.721488525390624,-0.921630859375,-4.513973712921143,0.2960987091064453
1701978766569479000,12.73847900390625,-1.5138492584228516,-4.2795729637146,1.379408836364746
1701978766586465300,12.75546533203125,-1.7562133073806763,-3.940603017807007,2.025907516479492
1701978766603463200,12.772463134765625,-1.8521703481674194,-3.684729814529419,2.775078773498535
1701978766620449800,12.78944970703125,-1.8330473899841309,-4.024848937988281,3.4500131607055664
1701978766637431800,12.806431884765624,-0.7342755794525146,-4.656284332275391,3.8813600540161133
1701978766654418000,12.82341796875,0.1427311897277832,-5.092556953430176,4.2007856369018555
1701978766671419100,12.840419189453126,1.2197380065917969,-4.936988353729248,4.018699645996094
1701978766688411000,12.857410888671875,0.8998478651046753,-5.234540939331055,3.5070228576660156
1701978766705385000,12.874385009765625,0.17353427410125732,-5.418704986572266,1.734522819519043
1701978766722391600,12.8913916015625,0.026340246200561523,-5.683539390563965,0.085113525390625
1701978766739391200,12.90839111328125,-0.06672680377960205,-6.016890048980713,-0.7089118957519531
1701978766756372200,12.925372314453124,0.1256253719329834,-6.258832931518555,-0.5977287292480469
1701978766773362400,12.942362548828125,0.7758967280387878,-6.039633750915527,0.3921775817871094
1701978766790353000,12.959352783203125,0.5512566566467285,-5.4646453857421875,1.3723039627075195
1701978766807340500,12.976340576171875,-0.437137246131897,-4.833444595336914,1.4259958267211914
1701978766824336100,12.993336181640625,-0.921892523765564,-4.797497749328613,0.7529687881469727
1701978766841323800,13.01032373046875,-0.8960233926773071,-4.6187896728515625,-0.3632011413574219
1701978766858314200,13.027314208984375,-0.21817994117736816,-4.181118488311768,0.007117271423339844
1701978766875304400,13.044304443359374,-0.565310001373291,-3.4528114795684814,1.684037208557129
1701978766892284400,13.061284423828125,-0.5790339112281799,-3.269312858581543,1.9165611267089844
1701978766909284900,13.078284912109375,0.5079458951950073,-3.5283079147338867,1.2801952362060547
1701978766926273500,13.0952734375,1.7923929691314697,-3.430279016494751,0.014875411987304688
1701978766943267600,13.112267578125,3.0338072776794434,-2.943478584289551,-1.4476737976074219
1701978766960256000,13.129256103515624,2.5286073684692383,-2.252892255783081,-2.619076728820801
1701978766977246500,13.14624658203125,1.4681050777435303,-2.3513152599334717,-3.166001319885254
1701978766994236700,13.163236572265625,0.8917518854141235,-2.1753203868865967,-3.3215460777282715
1701978767011227000,13.180226806640626,0.5016517043113708,-1.682424783706665,-3.1346235275268555
1701978767028217000,13.197217041015625,1.2868648767471313,-1.2694652080535889,-2.701511859893799
1701978767045207300,13.214207275390624,1.69754958152771,-0.7574424743652344,-2.072147846221924
1701978767062197800,13.23119775390625,1.7508918046951294,-0.3088388442993164,-1.6549711227416992
1701978767079188000,13.24818798828125,1.591105580329895,-0.13637948036193848,-1.6530017852783203
1701978767096178700,13.2651787109375,1.6145375967025757,0.17668747901916504,-2.05816650390625
1701978767113165600,13.28216552734375,1.445601463317871,0.31002259254455566,-2.1476430892944336
1701978767130162200,13.299162109375,1.3245201110839844,0.5675220489501953,-1.6835684776306152
1701978767147146200,13.316146240234374,1.0551550388336182,0.881173849105835,-1.3308467864990234
1701978767164142300,13.333142333984375,0.5549124479293823,1.1728272438049316,-0.6164569854736328
1701978767181130200,13.350130126953125,0.09587383270263672,1.3371779918670654,-0.4567899703979492
1701978767198120400,13.367120361328125,-0.14272165298461914,1.2272617816925049,-0.4641876220703125
1701978767215110700,13.384110595703126,-0.14308547973632812,1.1882364749908447,-0.48138427734375
1701978767232100900,13.401100830078125,0.08073687553405762,1.247290849685669,-0.07507801055908203
1701978767249091000,13.418091064453124,0.5961736440658569,1.5032470226287842,0.5332717895507812
1701978767266081300,13.435081298828125,1.3359971046447754,1.9438450336456299,1.1554784774780273
1701978767283071700,13.45207177734375,1.6064980030059814,2.3130555152893066,1.5267624855041504
1701978767300062200,13.469062255859376,1.4716237783432007,2.285364866256714,1.3438377380371094
1701978767317050000,13.486050048828124,1.5715488195419312,2.0701072216033936,0.9905738830566406
1701978767334045000,13.503044921875,1.549988031387329,1.990265130996704,0.8485283851623535
1701978767351033000,13.520033203125,2.0910916328430176,1.9108209609985352,0.8575267791748047
1701978767368013600,13.537013671875,2.9538347721099854,1.9565086364746094,0.7734241485595703
1701978767385004500,13.554004638671875,3.9527876377105713,2.460881471633911,1.0239696502685547
1701978767402004000,13.57100390625,4.051731109619141,2.3124592304229736,1.9571418762207031
1701978767418994000,13.587993896484376,3.8328020572662354,1.918306827545166,2.279003143310547
1701978767435984400,13.604984375,3.527155876159668,1.681267261505127,1.9102797508239746
1701978767452974800,13.621974853515624,3.0290424823760986,1.751509189605713,1.765359878540039
1701978767469965300,13.63896533203125,2.502912998199463,1.94407320022583,2.0677356719970703
1701978767486955500,13.65595556640625,1.950526475906372,1.5257282257080078,2.6476120948791504
1701978767503945700,13.67294580078125,2.334746837615967,0.9771718978881836,3.3552350997924805
1701978767520925200,13.68992529296875,3.323385715484619,0.97454833984375,3.5709681510925293
1701978767537926100,13.706926025390626,3.921511650085449,1.1079554557800293,3.2675867080688477
1701978767554916900,13.723916748046875,3.8409478664398193,0.9358959197998047,3.023160934448242
1701978767571905300,13.7409052734375,3.1449108123779297,1.0143523216247559,2.758737564086914
1701978767588897300,13.757897216796875,2.190397024154663,1.3371281623840332,2.800696849822998
1701978767605887500,13.774887451171875,1.0448176860809326,1.594329833984375,3.1279172897338867
1701978767622878000,13.7918779296875,0.22975826263427734,1.6043858528137207,3.365211009979248
1701978767639868200,13.8088681640625,0.4990212917327881,1.3399200439453125,3.496492862701416
1701978767656858600,13.825858642578124,0.8470809459686279,1.544367790222168,2.4153151512145996
1701978767673848800,13.842848876953125,1.0497610569000244,1.3577098846435547,1.749096393585205
1701978767690828800,13.859828857421874,0.8714163303375244,1.5544371604919434,1.4610824584960938
1701978767707829800,13.876829833984376,0.28558969497680664,1.8820042610168457,1.8228602409362793
1701978767724821500,13.893821533203125,-0.6157073974609375,1.9861183166503906,3.0538887977600098
1701978767741808400,13.910808349609376,-1.1201272010803223,1.6741247177124023,4.725737571716309
1701978767758789400,13.927789306640625,-1.0944795608520508,1.0102009773254395,5.569869518280029
1701978767775790600,13.94479052734375,-0.3868875503540039,0.5405831336975098,5.085418224334717
1701978767792778500,13.961778564453125,0.05620002746582031,0.048844337463378906,4.310109615325928
1701978767809774000,13.978774169921875,0.2546095848083496,0.1173563003540039,3.5710296630859375
1701978767826761500,13.995761474609376,-0.005887269973754883,0.5406069755554199,3.3224997520446777
1701978767843752000,14.012751953125,-0.6155147552490234,0.9474539756774902,3.520965099334717
1701978767860742000,14.029741943359374,-1.415280818939209,1.13810396194458,3.981411933898926
1701978767877720000,14.046719970703125,-1.842609167098999,1.0964279174804688,3.985826015472412
1701978767903209700,14.072209716796875,-0.8882622718811035,0.8146219253540039,3.2972540855407715
1701978767920204300,14.089204345703125,0.10854983329772949,0.946958065032959,2.5015816688537598
1701978767937192200,14.106192138671876,0.6967265605926514,0.8664455413818359,1.9437599182128906
1701978767954179600,14.1231796875,0.9008302688598633,0.5452628135681152,1.791456699371338
1701978767971170600,14.140170654296876,0.7801961898803711,0.21688270568847656,1.984548568725586
1701978767988157700,14.15715771484375,0.9043967723846436,0.007724761962890625,2.350587844848633
1701978768005155600,14.174155517578125,1.2045519351959229,-0.045714378356933594,2.5062527656555176
1701978768022145800,14.191145751953124,1.584320068359375,-0.030036449432373047,2.2381138801574707
1701978768039133400,14.208133544921875,1.8990681171417236,-0.007874488830566406,2.1023268699645996
1701978768056121600,14.22512158203125,1.8605972528457642,0.06179332733154297,1.9210596084594727
1701978768073115100,14.242115234375,1.6184983253479004,0.16153860092163086,1.8020267486572266
1701978768090101200,14.259101318359376,0.8618934154510498,0.26453542709350586,1.621748447418213
1701978768107098000,14.27609814453125,0.4720187187194824,0.4262814521789551,1.4867544174194336
1701978768124091400,14.29309130859375,0.14755034446716309,0.3450613021850586,1.7120513916015625
1701978768141078000,14.310078125,0.49474263191223145,0.257932186126709,1.9895281791687012
1701978768158070500,14.327070556640624,1.0146849155426025,0.05648374557495117,1.972686767578125
1701978768175058200,14.34405810546875,1.3962366580963135,-0.008175373077392578,1.7371525764465332
1701978768192043000,14.36104296875,1.4019672870635986,-0.0013241767883300781,1.557511329650879
1701978768209035800,14.378035888671874,1.0692148208618164,0.01842784881591797,1.393864631652832
1701978768226027500,14.395027587890626,0.6923422813415527,-0.0024776458740234375,1.199570655822754
1701978768243017000,14.412016845703125,0.44228100776672363,-0.0182647705078125,1.399519920349121
1701978768260005000,14.429005126953125,0.1811368465423584,0.018993854522705078,1.5823612213134766
1701978768276996900,14.445996826171875,-0.13822126388549805,-0.019017696380615234,1.4739494323730469
1701978768293985300,14.4629853515625,-0.4864819049835205,-0.2476944923400879,1.4909791946411133
1701978768310976300,14.479976318359375,-0.33290934562683105,-0.5331673622131348,1.6863079071044922
1701978768327978000,14.49697802734375,-0.008462905883789062,-0.6865015029907227,1.8415107727050781
1701978768344967000,14.513966796875,-0.1187361478805542,-0.8009459972381592,2.2124433517456055
1701978768361956600,14.53095654296875,-0.7581887245178223,-0.6986045837402344,3.2756290435791016
1701978768378947800,14.54794775390625,-1.617332100868225,-1.0428197383880615,4.0761213302612305
1701978768395929000,14.56492919921875,-2.186429977416992,-1.193260669708252,4.128480911254883
1701978768412928500,14.581928466796874,-2.3294408321380615,-1.6251715421676636,3.7757301330566406
1701978768429917700,14.598917724609375,-1.8922463655471802,-1.8143787384033203,3.1875181198120117
1701978768446906600,14.61590673828125,-1.9822542667388916,-2.1736392974853516,3.130025863647461
1701978768463900400,14.632900390625,-2.46211838722229,-2.532663345336914,3.622610092163086
1701978768480888600,14.649888671875,-3.638767719268799,-2.83198618888855,3.86212158203125
1701978768497879000,14.666879150390624,-4.581839084625244,-3.398709774017334,3.339901924133301
1701978768514872800,14.683872802734374,-4.069657802581787,-3.9207682609558105,2.170412063598633
1701978768531857400,14.700857421875,-1.4484412670135498,-4.098920822143555,0.839177131652832
1701978768548849200,14.71784912109375,-2.0996930599212646,-3.8129897117614746,0.6768360137939453
1701978768565840400,14.73484033203125,-2.452349901199341,-3.6854190826416016,1.4643616676330566
1701978768582831600,14.75183154296875,-4.704708576202393,-3.5342721939086914,2.4387102127075195
1701978768599820500,14.768820556640625,-6.007201194763184,-3.558091640472412,2.5901317596435547
1701978768616812000,14.78581201171875,-5.917245864868164,-3.4900872707366943,1.487100601196289
1701978768633801500,14.802801513671875,-5.320095062255859,-3.3029351234436035,0.37508106231689453
1701978768650782700,14.81978271484375,-4.563701152801514,-2.800629138946533,-0.1109471321105957
1701978768667778000,14.836778076171875,-3.8707871437072754,-2.2497525215148926,0.7650487422943115
1701978768684777500,14.853777587890624,-3.2634730339050293,-1.9729961156845093,2.966308116912842
1701978768701762800,14.8707626953125,-4.080982685089111,-1.5688056945800781,6.012712478637695
1701978768718754300,14.88775439453125,-3.49869441986084,-0.08248060941696167,6.821591377258301
1701978768735743200,14.9047431640625,-5.166107177734375,-1.4320354461669922,1.5836312770843506
1701978768752734700,14.921734619140626,-4.074884414672852,-1.4849151372909546,0.2888873815536499
1701978768769724000,14.938723876953125,-2.3078994750976562,-1.802545428276062,0.8986223936080933
1701978768786715600,14.955715576171874,-0.6721124649047852,-1.714113473892212,1.8040943145751953
1701978768803704300,14.972704345703125,-0.8992834091186523,-1.3674039840698242,2.7054364681243896
1701978768820696000,14.989696044921875,-2.100353717803955,-0.8268598318099976,3.03655743598938
1701978768837685000,15.00668505859375,-3.3583016395568848,-0.3355059027671814,2.812912940979004
1701978768854676700,15.0236767578125,-3.9294605255126953,-0.3196750283241272,2.370615243911743
1701978768871655200,15.0406552734375,-3.2956418991088867,-0.2700132131576538,2.386789560317993
1701978768888657400,15.057657470703125,-2.1688919067382812,-0.4589936137199402,2.225715160369873
1701978768905646600,15.074646484375,-0.8586549758911133,-0.807036817073822,1.5079153776168823
1701978768922637800,15.091637939453125,-0.2091226577758789,-1.017263650894165,1.2610398530960083
1701978768939626800,15.108626708984374,-0.7246990203857422,-1.0335118770599365,1.3173044919967651
1701978768956618200,15.1256181640625,-1.7590336799621582,-0.9052621126174927,1.1294463872909546
1701978768973607700,15.142607666015625,-2.3712663650512695,-0.6445481777191162,1.0377072095870972
1701978768990594600,15.159594482421875,-2.25462007522583,-0.6013927459716797,1.2563269138336182
1701978769007588000,15.176588134765625,-1.1640748977661133,-0.5651891231536865,1.4644232988357544
1701978769024579600,15.19357958984375,-0.4741048812866211,-0.6666510105133057,1.4642609357833862
1701978769041569000,15.210569091796875,-0.41475772857666016,-0.7992676496505737,1.1923726797103882
1701978769058560500,15.227560546875,-0.6689929962158203,-0.9152634143829346,0.9170092344284058
1701978769075549400,15.244549560546876,-0.7626113891601562,-0.9386383295059204,0.8625259399414062
1701978769092541000,15.261541015625,-0.45870304107666016,-0.9423090219497681,0.8647558689117432
1701978769109530000,15.278530029296874,0.2487955093383789,-0.7851229906082153,0.777122974395752
1701978769126508500,15.295508544921875,-1.8422651290893555,-0.9872493743896484,0.8817765712738037
1701978769143507200,15.312507080078126,-1.93894624710083,-0.7957973480224609,0.9650636911392212
1701978769160502000,15.329501953125,-0.5426549911499023,-0.7261110544204712,0.45006656646728516
