time,seconds_elapsed,z,y,x
1702138960354230500,0.02023046875,-0.7449264526367188,-0.5237622261047363,-0.32120704650878906
1702138960430690800,0.09669091796875,-2.3971781730651855,-1.0932800769805908,-0.2641911506652832
1702138960447684600,0.1136845703125,-2.6763415336608887,-1.5520644187927246,-0.9676240682601929
1702138960464669000,0.1306689453125,-2.5241050720214844,-1.8045775890350342,-1.3521130084991455
1702138960481663700,0.147663818359375,-1.9362902641296387,-2.09971022605896,-1.4554840326309204
1702138960498651400,0.1646513671875,-3.1457228660583496,-2.601351737976074,-0.5028284788131714
1702138960515645700,0.181645751953125,-4.0245466232299805,-5.321652889251709,1.1730754375457764
1702138960532630800,0.198630859375,-4.211572170257568,-3.246795415878296,-0.5656192302703857
1702138960549625300,0.215625244140625,-3.23126220703125,-3.0828144550323486,-1.9951796531677246
1702138960566606600,0.232606689453125,-2.441300392150879,-4.478289604187012,-2.166198253631592
1702138960583603000,0.24960302734375,-1.8446030616760254,-5.142111778259277,-2.66019344329834
1702138960600597800,0.26659765625,-2.6757993698120117,-5.6580400466918945,-2.6125221252441406
1702138960617600500,0.2836005859375,-4.9267706871032715,-6.401917457580566,-1.6009278297424316
1702138960634571300,0.3005712890625,-6.1298136711120605,-6.6140851974487305,-0.9761700630187988
1702138960651571500,0.317571533203125,-4.612597465515137,-6.590845108032227,-0.7191100120544434
1702138960668557300,0.334557373046875,-2.2278130054473877,-6.230539798736572,-0.17245960235595703
1702138960685550000,0.351550048828125,-0.12793731689453125,-6.147014617919922,0.9984588623046875
1702138960702535700,0.36853564453125,-0.07565641403198242,-5.899054527282715,3.0155563354492188
1702138960719529700,0.38552978515625,-0.5210750102996826,-5.304522514343262,4.328824043273926
1702138960736520700,0.402520751953125,-1.0959668159484863,-4.280265808105469,4.507514953613281
1702138960753507800,0.4195078125,-0.646942138671875,-3.6273152828216553,4.697684288024902
1702138960770499800,0.436499755859375,0.6657285690307617,-2.909315586090088,5.4406538009643555
1702138960787487500,0.453487548828125,1.3216657638549805,-1.9861202239990234,6.331450462341309
1702138960804478700,0.470478759765625,0.985600471496582,-1.1705657243728638,7.714527130126953
1702138960821474000,0.48747412109375,0.5622988939285278,-0.022894620895385742,8.233722686767578
1702138960838461000,0.5044609375,0.5711731910705566,1.11385977268219,8.181622505187988
1702138960855455200,0.521455322265625,0.9154083728790283,2.034667730331421,7.990520477294922
1702138960872436500,0.5384365234375,1.8285000324249268,2.9324865341186523,8.060916900634766
1702138960889446400,0.5554462890625,2.8483214378356934,3.6717405319213867,8.042386054992676
1702138960906425300,0.57242529296875,3.496004581451416,4.15634822845459,7.091631889343262
1702138960923412700,0.589412841796875,3.3956830501556396,4.436445236206055,5.410923004150391
1702138960940405000,0.606405029296875,3.1570281982421875,4.640522003173828,3.6965274810791016
1702138960957397000,0.62339697265625,2.9835832118988037,4.974479675292969,1.9970436096191406
1702138960974384000,0.640384033203125,3.177628755569458,5.411367893218994,0.7164573669433594
1702138960991378000,0.6573779296875,3.473681688308716,5.727307319641113,-0.042510032653808594
1702138961008367400,0.674367431640625,3.786001205444336,6.028024673461914,-0.6404752731323242
1702138961025361200,0.691361083984375,4.075031280517578,6.255820274353027,-1.1459670066833496
1702138961042343000,0.708343017578125,4.623538017272949,6.464105129241943,-1.5339555740356445
1702138961059335200,0.725335205078125,5.206937313079834,6.695948600769043,-1.6197896003723145
1702138961076330800,0.742330810546875,5.573780059814453,6.611601829528809,-1.5135369300842285
1702138961093317600,0.759317626953125,5.967643737792969,6.511411666870117,-1.7818379402160645
1702138961110310100,0.77631005859375,6.475519180297852,6.376190185546875,-2.3209986686706543
1702138961127304000,0.793303955078125,6.946063995361328,5.458050727844238,-1.7066502571105957
1702138961144286700,0.81028662109375,7.305032253265381,5.075331211090088,-1.2545084953308105
1702138961161282000,0.827281982421875,7.425549507141113,4.595494270324707,-1.080915927886963
1702138961178272300,0.844272216796875,7.076939105987549,3.9044992923736572,-1.1347007751464844
1702138961195264500,0.861264404296875,6.708731651306152,3.3096659183502197,-1.2159719467163086
1702138961212246500,0.87824658203125,6.3207855224609375,2.6279544830322266,-0.8506836891174316
1702138961229243600,0.89524365234375,5.685372829437256,2.1657354831695557,0.040961265563964844
1702138961246234600,0.912234619140625,4.713696479797363,1.3790757656097412,1.5438156127929688
1702138961263223300,0.929223388671875,3.881761312484741,1.1315374374389648,2.044435501098633
1702138961280204300,0.946204345703125,3.7790398597717285,1.7489943504333496,1.3618173599243164
1702138961297213200,0.963213134765625,4.086126327514648,1.4307136535644531,1.1083946228027344
1702138961314189000,0.98018896484375,4.6079487800598145,0.08234214782714844,1.3514347076416016
1702138961331186000,0.99718603515625,5.2736992835998535,-1.0128092765808105,2.1788787841796875
1702138961348181500,1.014181396484375,5.070840358734131,-2.4359965324401855,3.4299917221069336
1702138961365171200,1.031171142578125,4.326752662658691,-3.407773494720459,2.9958505630493164
1702138961382155300,1.0481552734375,2.9837687015533447,-4.106393337249756,1.4341201782226562
1702138961399148500,1.0651484375,1.828141450881958,-5.232292175292969,0.307708740234375
1702138961416140300,1.082140380859375,1.2995771169662476,-6.193944454193115,0.3076467514038086
1702138961433121500,1.09912158203125,1.4349104166030884,-6.1050238609313965,1.0644302368164062
1702138961450119200,1.116119140625,2.0122334957122803,-6.470800399780273,2.0814437866210938
1702138961467108600,1.133108642578125,1.7591181993484497,-6.719058990478516,2.234508514404297
1702138961484102100,1.15010205078125,1.1108027696609497,-7.278737545013428,1.8407564163208008
1702138961501081900,1.167081787109375,0.19436046481132507,-8.139080047607422,0.8539619445800781
1702138961518079700,1.184079833984375,-0.13411244750022888,-7.654802322387695,-0.9811859130859375
1702138961535075800,1.201075927734375,-0.110912024974823,-6.967473983764648,-1.9295697212219238
1702138961552062000,1.21806201171875,-0.8720817565917969,-6.806180000305176,-1.8531904220581055
1702138961569060400,1.235060302734375,-1.8101060390472412,-6.8400163650512695,-1.7691049575805664
1702138961586045000,1.252044921875,-2.1733410358428955,-7.2321929931640625,-1.2776412963867188
1702138961603032000,1.269031982421875,-2.244931697845459,-7.672490119934082,-0.2979269027709961
1702138961620024300,1.2860244140625,-2.520376205444336,-8.172611236572266,0.8669404983520508
1702138961637012000,1.303011962890625,-2.9852471351623535,-8.101117134094238,1.1723251342773438
1702138961654002700,1.320002685546875,-2.6333916187286377,-8.004911422729492,1.4052629470825195
1702138961670997200,1.336997314453125,-1.5341590642929077,-7.488386154174805,1.2188310623168945
1702138961687986200,1.353986083984375,-0.9149639010429382,-7.317983627319336,1.228738784790039
1702138961704968700,1.37096875,-1.36752188205719,-8.208309173583984,1.876810073852539
1702138961721962800,1.387962646484375,-1.6754834651947021,-8.41874885559082,1.6998224258422852
1702138961738962200,1.404962158203125,-1.9283688068389893,-8.551446914672852,0.7485408782958984
1702138961755953700,1.42195361328125,-1.9301133155822754,-8.583606719970703,-0.4464569091796875
1702138961772932000,1.43893212890625,-1.190870761871338,-8.188996315002441,-1.4886879920959473
1702138961789930200,1.45593017578125,-0.13756287097930908,-7.592639923095703,-2.2890915870666504
1702138961806922000,1.472921875,0.15657049417495728,-7.403593063354492,-2.63569974899292
1702138961823907300,1.4899072265625,0.016423672437667847,-7.792976379394531,-2.6037278175354004
1702138961840907300,1.5069072265625,-0.11862203478813171,-8.15158462524414,-2.2481303215026855
1702138961857888500,1.523888427734375,0.1271873116493225,-7.985367774963379,-2.0097546577453613
1702138961874891300,1.540891357421875,0.7658185362815857,-7.320570945739746,-1.608945369720459
1702138961891873000,1.557873046875,1.0943118333816528,-6.636575222015381,-1.069453239440918
1702138961908862700,1.57486279296875,0.7560380101203918,-6.16475772857666,-1.345327377319336
1702138961925855200,1.591855224609375,0.6889845728874207,-5.658603668212891,-2.358128070831299
1702138961942839000,1.608839111328125,0.9829534292221069,-5.151332855224609,-3.584064483642578
1702138961959836400,1.62583642578125,1.4301698207855225,-4.397329330444336,-4.113180637359619
1702138961976826600,1.64282666015625,1.1344834566116333,-3.4927897453308105,-3.7411575317382812
1702138961993812200,1.659812255859375,0.5371652245521545,-2.9419074058532715,-2.525385856628418
1702138962010807300,1.676807373046875,-0.3473207950592041,-2.795452117919922,-1.9406113624572754
1702138962027794200,1.693794189453125,0.06702005863189697,-2.5288848876953125,-2.1935782432556152
1702138962044787000,1.710786865234375,0.7765046954154968,-1.8890206813812256,-2.916347026824951
1702138962061777400,1.72777734375,1.7712087631225586,-1.4059443473815918,-3.1609086990356445
1702138962078768000,1.74476806640625,2.653521776199341,-0.8957152366638184,-2.838115692138672
1702138962095755500,1.761755615234375,3.1198647022247314,-0.7149295806884766,-1.5555505752563477
1702138962112750600,1.77875048828125,3.418816566467285,-0.5681447982788086,-0.47031307220458984
1702138962129738500,1.795738525390625,3.607121706008911,-0.5123810768127441,-0.056939125061035156
1702138962146729500,1.8127294921875,3.9779486656188965,-0.017429351806640625,-0.26767683029174805
1702138962163720000,1.829719970703125,4.161089897155762,0.113037109375,-0.4059906005859375
1702138962180711700,1.846711669921875,4.499441146850586,-0.16282987594604492,-0.23434829711914062
1702138962197701000,1.863701171875,5.109386444091797,-0.2900075912475586,0.5264396667480469
1702138962214690000,1.88068994140625,5.574804306030273,0.011681079864501953,1.4195847511291504
1702138962231682800,1.897682861328125,5.50381326675415,0.681948184967041,2.40175199508667
1702138962248672800,1.9146728515625,5.255317687988281,0.8953137397766113,2.694931983947754
1702138962265664300,1.931664306640625,5.3409647941589355,0.1266317367553711,2.38812255859375
1702138962282653000,1.94865283203125,6.040136337280273,0.23207330703735352,1.6247305870056152
1702138962299646000,1.96564599609375,6.8407697677612305,0.4287896156311035,1.7253589630126953
1702138962316633300,1.98263330078125,6.4054718017578125,0.9028878211975098,2.1836929321289062
1702138962333614300,1.9996142578125,5.3616180419921875,0.7634854316711426,2.8546743392944336
1702138962350616800,2.016616943359375,4.449640274047852,0.30155038833618164,2.9915685653686523
1702138962367600600,2.0336005859375,4.142145156860352,0.31830501556396484,2.1405630111694336
1702138962384587300,2.050587158203125,3.9972481727600098,0.5545186996459961,1.4608845710754395
1702138962401586700,2.067586669921875,3.6487209796905518,0.464475154876709,1.7840237617492676
1702138962418578700,2.08457861328125,3.0807712078094482,-0.051874637603759766,3.253868579864502
1702138962435569400,2.1015693359375,2.231215000152588,-0.03945779800415039,4.269830226898193
1702138962452557000,2.11855712890625,1.5961003303527832,0.2409801483154297,4.214763641357422
1702138962469548500,2.135548583984375,1.5279755592346191,0.1649494171142578,3.563201904296875
1702138962486541600,2.15254150390625,2.3520939350128174,0.4088616371154785,3.208357810974121
1702138962503521800,2.169521728515625,3.4780898094177246,0.5596623420715332,3.496406078338623
1702138962520520700,2.186520751953125,3.9072327613830566,0.5723562240600586,4.299282550811768
1702138962537511700,2.20351171875,3.8292527198791504,0.8133969306945801,4.452567100524902
1702138962554500000,2.2205,3.9523589611053467,1.0866312980651855,3.3931307792663574
1702138962571492400,2.237492431640625,4.1016035079956055,1.1079235076904297,2.6906228065490723
1702138962588482600,2.254482666015625,4.088528633117676,1.1370725631713867,2.5037240982055664
1702138962605464300,2.27146435546875,4.313343048095703,1.0582456588745117,3.495234489440918
1702138962622461700,2.288461669921875,3.7206029891967773,0.761146068572998,5.16923189163208
1702138962639453700,2.30545361328125,3.570061206817627,0.7917065620422363,6.01509428024292
1702138962656446500,2.322446533203125,3.439462900161743,1.2573466300964355,5.800627708435059
1702138962673431800,2.339431884765625,2.7295336723327637,1.4185566902160645,5.396605968475342
1702138962690425900,2.35642578125,1.6312336921691895,1.539402961730957,4.878106117248535
1702138962707417300,2.373417236328125,0.5464210510253906,1.4511632919311523,5.32842493057251
1702138962724404200,2.390404296875,-0.6411604881286621,1.3585734367370605,6.1792449951171875
1702138962741397200,2.407397216796875,-0.4553039073944092,1.8092756271362305,6.159629821777344
1702138962758379000,2.42437890625,0.3384220600128174,2.478538990020752,5.199345588684082
1702138962775379000,2.44137890625,1.0157177448272705,2.592373847961426,4.091188907623291
1702138962792366000,2.458365966796875,1.6732529401779175,2.226616859436035,3.5298562049865723
1702138962809358000,2.475358154296875,2.350294589996338,1.7306756973266602,3.2554898262023926
1702138962826351600,2.4923515625,3.061887741088867,1.6666278839111328,3.5755577087402344
1702138962843337000,2.5093369140625,3.310896635055542,1.9333243370056152,4.043269157409668
1702138962860330500,2.52633056640625,3.730177164077759,2.0675430297851562,3.6058945655822754
1702138962877312000,2.54331201171875,4.266566276550293,1.8527483940124512,2.652083396911621
1702138962894309400,2.560309326171875,5.059567451477051,1.591810703277588,1.9877262115478516
1702138962911302400,2.577302490234375,5.429634094238281,1.4740800857543945,1.69356107711792
1702138962928290600,2.59429052734375,5.14833927154541,1.4367923736572266,1.6870007514953613
1702138962945286000,2.611285888671875,4.576224327087402,1.4805183410644531,1.682976245880127
1702138962962269200,2.628269287109375,4.433474063873291,1.5250039100646973,1.6243667602539062
1702138962979265500,2.645265625,4.692463397979736,1.3556404113769531,1.8716330528259277
1702138962996262100,2.66226220703125,4.722135066986084,1.2177343368530273,1.8933296203613281
1702138963013244200,2.679244140625,4.355104923248291,0.8845510482788086,1.4520692825317383
1702138963030233600,2.696233642578125,3.951677083969116,0.73150634765625,0.8953304290771484
1702138963047227400,2.713227294921875,3.651036262512207,0.2977261543273926,0.45695066452026367
1702138963064213800,2.7302138671875,3.604733467102051,-0.3897686004638672,0.32871341705322266
1702138963081215700,2.7472158203125,3.446652889251709,-0.6422305107116699,-0.07962608337402344
1702138963098215000,2.76421484375,3.330328941345215,-0.7221627235412598,-0.6445183753967285
1702138963115187200,2.781187255859375,2.857330799102783,-0.8826627731323242,-1.186293601989746
1702138963132177700,2.798177734375,2.278435230255127,-1.1418590545654297,-1.5619111061096191
1702138963149172500,2.81517236328125,2.0171561241149902,-1.4642577171325684,-1.9145679473876953
1702138963166162200,2.832162109375,2.257000207901001,-1.7431955337524414,-2.1297659873962402
1702138963183147000,2.84914697265625,2.279266119003296,-1.7838621139526367,-2.297412395477295
1702138963200140500,2.866140625,1.8937199115753174,-1.7788870334625244,-2.481171131134033
1702138963217131500,2.883131591796875,1.680910587310791,-1.9270648956298828,-2.643242835998535
1702138963234107400,2.900107421875,1.8577361106872559,-2.1015820503234863,-2.491306781768799
1702138963251111700,2.917111572265625,1.9097485542297363,-2.137845516204834,-2.118669033050537
1702138963268102700,2.9341025390625,1.3185194730758667,-2.5435144901275635,-1.362783432006836
1702138963285094000,2.951093994140625,0.5033098459243774,-3.3876216411590576,-0.6313514709472656
1702138963302081500,2.96808154296875,0.2107733190059662,-3.5824320316314697,-0.9232807159423828
1702138963319073500,2.985073486328125,0.8312826156616211,-4.1543474197387695,-0.32270240783691406
1702138963336066300,3.00206640625,1.6043188571929932,-4.831567764282227,0.929224967956543
1702138963353044500,3.01904443359375,1.8837289810180664,-5.626758575439453,1.399806022644043
1702138963370044000,3.0360439453125,1.5480635166168213,-6.4155683517456055,1.207632064819336
1702138963387037200,3.053037109375,1.031839370727539,-7.232379913330078,0.759556770324707
1702138963404024000,3.070024169921875,0.18514418601989746,-7.679856300354004,-0.4619169235229492
1702138963421016800,3.087016845703125,-0.8223544955253601,-8.097482681274414,-2.4502296447753906
1702138963438008000,3.104008056640625,-1.1779381036758423,-8.603458404541016,-4.103703022003174
1702138963454998800,3.120998779296875,-0.18149179220199585,-8.311174392700195,-3.5210037231445312
1702138963471986200,3.137986083984375,0.33199337124824524,-8.217364311218262,-1.2971687316894531
1702138963488980000,3.15497998046875,-0.41682082414627075,-8.72242546081543,0.8908920288085938
1702138963505967600,3.171967529296875,-1.0919358730316162,-9.230300903320312,1.850046157836914
1702138963522963000,3.188962890625,-0.7509819865226746,-9.217503547668457,1.506209373474121
1702138963539951400,3.205951416015625,0.2428187131881714,-9.063212394714355,1.3505592346191406
1702138963556940800,3.22294091796875,0.4726271331310272,-9.115779876708984,1.580622673034668
1702138963573932800,3.239932861328125,-0.37361031770706177,-8.989898681640625,1.0219831466674805
1702138963590911000,3.256910888671875,-1.0139579772949219,-8.797098159790039,0.004108428955078125
1702138963607905000,3.273905029296875,-0.8885747194290161,-8.221059799194336,-0.9108114242553711
1702138963624905200,3.2909052734375,-0.4542276859283447,-7.674103260040283,-0.7787914276123047
1702138963641894400,3.307894287109375,-0.6619491577148438,-7.245297431945801,0.38093090057373047
1702138963658873900,3.324873779296875,-1.1572065353393555,-6.77067756652832,1.2811660766601562
1702138963675877000,3.341877197265625,-0.948824405670166,-6.710958480834961,1.598480224609375
1702138963692863200,3.35886328125,-0.4617966413497925,-6.562997817993164,1.1722230911254883
1702138963709856800,3.375856689453125,0.1695064902305603,-6.607405662536621,0.49285125732421875
1702138963726846500,3.392846435546875,0.4825693666934967,-6.646566867828369,-0.1826457977294922
1702138963743827000,3.409826904296875,0.7666523456573486,-6.749093055725098,-0.5636520385742188
1702138963760827100,3.4268271484375,0.8079230785369873,-6.781854152679443,-0.7665681838989258
1702138963777818600,3.443818603515625,0.9908916354179382,-6.3040032386779785,-1.087728500366211
1702138963794808300,3.460808349609375,1.0584068298339844,-5.4700493812561035,-1.8535423278808594
1702138963811799300,3.47779931640625,0.9282441139221191,-4.976019859313965,-2.2170777320861816
1702138963828789000,3.4947890625,0.22135105729103088,-4.788661956787109,-2.201907157897949
1702138963845780500,3.511780517578125,-0.2266426682472229,-4.252017021179199,-2.433600902557373
1702138963862770400,3.5287705078125,-0.11260396242141724,-3.3453257083892822,-2.7602319717407227
1702138963879751000,3.5457509765625,-0.025872647762298584,-2.684037208557129,-2.694765567779541
1702138963896744400,3.562744384765625,0.33247798681259155,-2.6248817443847656,-2.1773695945739746
1702138963913742800,3.579742919921875,1.0048913955688477,-2.52763295173645,-1.9219107627868652
1702138963930732500,3.596732666015625,1.6087796688079834,-2.3572611808776855,-2.0454583168029785
1702138963947721200,3.61372119140625,2.2968339920043945,-1.7084507942199707,-2.591184616088867
1702138963964713200,3.630713134765625,2.2917580604553223,-1.1307775974273682,-2.8441295623779297
1702138963981704700,3.64770458984375,2.3657047748565674,-0.7287428379058838,-2.7078680992126465
1702138963998682000,3.66468212890625,2.6647233963012695,-0.6739640235900879,-2.024911403656006
1702138964015685400,3.681685302734375,3.289355993270874,-0.6286027431488037,-0.9136619567871094
1702138964032672000,3.698672119140625,3.6751554012298584,-0.3622310161590576,-0.5914983749389648
1702138964049666600,3.71566650390625,3.421443462371826,0.02163219451904297,-1.024691104888916
1702138964066645800,3.732645751953125,3.2472825050354004,0.2370755672454834,-1.3474149703979492
1702138964083647500,3.7496474609375,2.9261364936828613,0.40418553352355957,-1.2095437049865723
1702138964100637200,3.76663720703125,2.8544766902923584,0.47260141372680664,0.07548332214355469
1702138964117613000,3.783613037109375,1.8325741291046143,0.5474605560302734,1.9044485092163086
1702138964134616600,3.800616455078125,1.0608628988265991,1.1519982814788818,2.170273780822754
1702138964151613700,3.81761376953125,1.4184398651123047,1.1112284660339355,1.5869941711425781
1702138964168599000,3.83459912109375,2.5897531509399414,0.5844931602478027,1.3077406883239746
1702138964185590800,3.8515908203125,3.986330986022949,0.6478238105773926,1.1709275245666504
1702138964202580500,3.86858056640625,4.449702262878418,0.5526342391967773,1.6563782691955566
1702138964219571000,3.885571044921875,4.27869987487793,1.1119194030761719,2.2152175903320312
1702138964236561000,3.902560791015625,4.463364124298096,1.3423142433166504,2.5135855674743652
1702138964253552600,3.919552734375,5.026507377624512,0.750605583190918,3.1823811531066895
1702138964270542300,3.936542236328125,5.9370927810668945,0.7497048377990723,3.287965774536133
1702138964287533000,3.953532958984375,6.1876630783081055,0.7543268203735352,3.2522096633911133
1702138964304523000,3.97052294921875,5.645949363708496,0.772498607635498,3.1314663887023926
1702138964321514500,3.987514404296875,4.942207336425781,0.6647863388061523,3.3903818130493164
1702138964338493700,4.00449365234375,4.643955230712891,0.3311281204223633,3.860727310180664
1702138964355492900,4.021492919921875,4.825598239898682,0.003204345703125,4.384669780731201
1702138964372487700,4.03848779296875,5.519946575164795,0.3642106056213379,4.770185470581055
1702138964389460500,4.05546044921875,5.141550064086914,1.1569857597351074,4.537726879119873
1702138964406464800,4.07246484375,4.258079528808594,2.0546376705169678,3.842252254486084
1702138964423459300,4.089459228515625,3.085536003112793,2.309316635131836,3.6671977043151855
1702138964440447200,4.106447265625,2.3145992755889893,2.1006176471710205,3.8497681617736816
1702138964457438700,4.123438720703125,1.9176552295684814,2.0677924156188965,3.589829921722412
1702138964474429200,4.14042919921875,2.3320586681365967,1.9965150356292725,3.1225738525390625
1702138964491418600,4.157418701171875,2.3958287239074707,2.0534396171569824,2.532989501953125
1702138964508409000,4.1744091796875,2.659543037414551,1.813410758972168,2.4593472480773926
1702138964525400600,4.191400634765625,2.686739921569824,1.604565143585205,3.2178001403808594
1702138964542390300,4.208390380859375,3.102297067642212,1.815281867980957,4.45709753036499
1702138964559381500,4.225381591796875,2.5796189308166504,1.8798398971557617,5.237014293670654
1702138964576371000,4.242370849609375,1.7207233905792236,1.802445888519287,5.334026336669922
1702138964593362400,4.259362548828125,0.9965901374816895,1.769021987915039,5.1124701499938965
1702138964610352400,4.276352294921875,0.6094417572021484,1.9974007606506348,4.8761515617370605
1702138964627343600,4.293343505859375,0.6020479202270508,2.163877487182617,5.266503810882568
1702138964644322600,4.310322509765625,0.771012544631958,2.0596370697021484,6.1243085861206055
1702138964661324800,4.32732470703125,0.6495921611785889,1.9772439002990723,6.529487609863281
1702138964678314200,4.344314208984375,0.5344994068145752,1.9662656784057617,6.11268949508667
1702138964695310000,4.36131005859375,0.5358908176422119,1.9723668098449707,5.281289577484131
1702138964712292600,4.378292724609375,1.063326358795166,2.1107988357543945,4.372306823730469
1702138964729275100,4.395275146484375,1.7897193431854248,2.0421414375305176,4.060697078704834
1702138964746276600,4.412276611328125,2.5594773292541504,1.7375779151916504,4.080394744873047
1702138964763267300,4.429267333984375,3.335547924041748,1.4910078048706055,3.956752300262451
1702138964780257300,4.44625732421875,3.7573347091674805,1.3840980529785156,3.4116687774658203
1702138964797249000,4.4632490234375,3.908862590789795,1.287461280822754,2.884542465209961
1702138964814227700,4.480227783203125,3.885936975479126,1.1590476036071777,2.3931002616882324
1702138964831219500,4.497219482421875,4.2002387046813965,1.0257515907287598,2.0283260345458984
1702138964848216600,4.514216552734375,4.684265613555908,0.9447073936462402,1.9477663040161133
1702138964865213200,4.531213134765625,4.516514778137207,0.8104443550109863,2.0086302757263184
1702138964882200800,4.548200927734375,3.377192497253418,0.7099995613098145,1.7549982070922852
1702138964899191600,4.565191650390625,2.645235776901245,0.647951602935791,0.8853049278259277
1702138964916181200,4.58218115234375,2.731743812561035,0.6116952896118164,0.14095211029052734
1702138964933172700,4.5991728515625,2.8828303813934326,0.557032585144043,-0.14711761474609375
1702138964950162700,4.61616259765625,2.8697330951690674,0.1684703826904297,-0.016234397888183594
1702138964967153400,4.6331533203125,2.634582042694092,-0.24602746963500977,-0.02486133575439453
1702138964984138800,4.650138671875,2.474172353744507,-0.4603753089904785,-0.5659151077270508
1702138965001131000,4.667131103515625,2.684023857116699,-0.5069856643676758,-1.0196232795715332
1702138965018124500,4.68412451171875,2.794710159301758,-0.9583349227905273,-1.5500893592834473
1702138965035115500,4.701115478515625,2.558629035949707,-1.3867418766021729,-1.4576668739318848
1702138965052105500,4.71810546875,1.9241634607315063,-1.6291589736938477,-1.3078479766845703
1702138965069096700,4.7350966796875,1.7328451871871948,-2.1551871299743652,-1.561234474182129
1702138965086086400,4.75208642578125,2.0052976608276367,-2.47857403755188,-2.2021822929382324
1702138965103077600,4.76907763671875,2.603097915649414,-2.5191853046417236,-2.592115879058838
1702138965120067300,4.7860673828125,2.2731080055236816,-2.595982551574707,-2.58590030670166
1702138965137059000,4.80305908203125,1.4132204055786133,-2.6534292697906494,-2.6099891662597656
1702138965154048800,4.820048828125,0.3970707654953003,-2.799758195877075,-2.549503803253174
1702138965171040800,4.837040771484375,0.03132426738739014,-3.301790714263916,-2.4521403312683105
1702138965188028200,4.854028076171875,1.1290112733840942,-3.554572105407715,-3.17159366607666
1702138965205020700,4.871020751953125,1.9909849166870117,-4.0522308349609375,-3.7083001136779785
1702138965222011000,4.888010986328125,1.409385323524475,-4.734046936035156,-3.126678943634033
1702138965238998800,4.904998779296875,0.21670353412628174,-5.49163818359375,-2.190216541290283
1702138965255999000,4.9219990234375,-0.33928799629211426,-6.630028247833252,-1.5328540802001953
1702138965272980500,4.93898046875,0.14750516414642334,-6.99252986907959,-0.8799123764038086
1702138965289975300,4.955975341796875,0.1365189552307129,-6.578193187713623,-1.0575695037841797
1702138965306964000,4.9729638671875,0.04183197021484375,-6.203936576843262,-1.4495954513549805
1702138965323953400,4.989953369140625,-0.5867692232131958,-5.566658020019531,-0.9670038223266602
1702138965340935000,5.006934814453125,-1.7565549612045288,-5.088637828826904,0.9109668731689453
1702138965357934800,5.023934814453125,-2.4362664222717285,-6.171917915344238,2.155914306640625
1702138965374925800,5.04092578125,-0.840461254119873,-6.621325492858887,0.4677143096923828
1702138965391919400,5.05791943359375,0.5687257647514343,-6.796080589294434,-1.5876331329345703
1702138965408893400,5.0748935546875,0.48604708909988403,-6.987078666687012,-2.709501266479492
1702138965425896700,5.091896728515625,-0.8466883897781372,-7.531772613525391,-1.368764877319336
1702138965442867200,5.1088671875,-2.976219892501831,-7.890265464782715,1.4084844589233398
1702138965459855600,5.125855712890625,-3.960306167602539,-7.008070945739746,2.436859130859375
1702138965476869000,5.142869140625,-3.711848258972168,-6.606256484985352,1.8207378387451172
1702138965493856300,5.159856201171875,-2.547567844390869,-6.928667068481445,1.603358268737793
1702138965510852600,5.1768525390625,-1.23685622215271,-7.469853401184082,2.055647850036621
1702138965527839500,5.193839599609375,-0.8242040872573853,-7.525049686431885,2.8850154876708984
1702138965544831200,5.210831298828125,-1.5586611032485962,-7.499835014343262,2.832761764526367
1702138965561821000,5.227821044921875,-1.7522574663162231,-7.3293352127075195,1.222996711730957
1702138965578801700,5.2448017578125,-1.0507146120071411,-6.951385498046875,-0.08648204803466797
1702138965595801900,5.2618017578125,0.05021226406097412,-6.4275312423706055,-0.5283288955688477
1702138965612783000,5.278783203125,0.42901521921157837,-6.509424686431885,0.9906387329101562
1702138965629769700,5.295769775390625,-0.8628717660903931,-6.523540496826172,1.5322637557983398
1702138965646774000,5.31277392578125,-1.7976022958755493,-6.2901201248168945,0.7598066329956055
1702138965663763500,5.329763427734375,-2.0009233951568604,-5.921941757202148,-0.9272174835205078
1702138965680755200,5.346755126953125,-0.9682561159133911,-5.356961727142334,-2.280399799346924
1702138965697745000,5.363744873046875,-0.06907349824905396,-4.932390213012695,-2.2394871711730957
1702138965714733300,5.3807333984375,-0.19593840837478638,-4.8963165283203125,-2.012773036956787
1702138965731728400,5.397728271484375,-0.26220548152923584,-5.046998977661133,-2.125816822052002
1702138965748714500,5.414714599609375,-0.03144747018814087,-4.442985534667969,-2.7519822120666504
1702138965765707000,5.43170703125,-0.18142664432525635,-3.4943718910217285,-3.1772756576538086
1702138965782698200,5.4486982421875,-0.9863879084587097,-2.572939157485962,-3.2381715774536133
1702138965799677200,5.46567724609375,-1.2423264980316162,-2.2202889919281006,-2.94960880279541
1702138965816679200,5.48267919921875,-0.6035276651382446,-2.110182285308838,-2.4067254066467285
1702138965833668900,5.4996689453125,0.21138793230056763,-2.043158531188965,-2.1759190559387207
1702138965850672600,5.516672607421875,1.2181085348129272,-1.3375790119171143,-2.441537380218506
1702138965867639600,5.5336396484375,2.056490421295166,-0.5965263843536377,-2.352306365966797
1702138965884641500,5.5506416015625,2.123098850250244,-0.3025779724121094,-1.294118881225586
1702138965901633000,5.567633056640625,2.5979397296905518,-0.1211392879486084,0.015893936157226562
1702138965918619400,5.584619384765625,1.852737545967102,0.5541200637817383,0.33786487579345703
1702138965935612000,5.60161181640625,0.9576869606971741,0.5983932018280029,-0.9786515235900879
1702138965952603400,5.618603271484375,0.953594446182251,0.18564558029174805,-2.065063953399658
1702138965969585200,5.635585205078125,1.4150266647338867,-0.02659463882446289,-2.3571572303771973
1702138965986581200,5.652581298828125,1.7036348581314087,0.034247398376464844,-2.02835750579834
1702138966003576600,5.66957666015625,2.140373945236206,0.12343454360961914,-1.5800952911376953
1702138966020573700,5.68657373046875,2.1386098861694336,0.4066915512084961,-0.9330415725708008
1702138966037555200,5.70355517578125,2.4975123405456543,0.4277915954589844,-0.25304269790649414
1702138966054543600,5.720543701171875,2.446467876434326,0.4555954933166504,0.04184913635253906
1702138966071538400,5.737538330078125,2.320810317993164,0.42996835708618164,-0.36271238327026367
1702138966088527400,5.75452734375,2.5232672691345215,0.7179965972900391,-0.6032962799072266
1702138966105517000,5.77151708984375,2.6338248252868652,1.1744556427001953,0.34594297409057617
1702138966122508500,5.788508544921875,2.5322608947753906,1.6327764987945557,1.9613933563232422
1702138966139480600,5.80548046875,2.4007582664489746,1.6165258884429932,2.6837081909179688
1702138966156489700,5.82248974609375,3.002774238586426,1.1529650688171387,2.2889604568481445
1702138966173476600,5.8394765625,4.19442081451416,0.3649477958679199,1.4079222679138184
1702138966190457300,5.856457275390625,5.300379753112793,0.3490867614746094,0.3547086715698242
1702138966207460400,5.87346044921875,5.435392379760742,0.36514711380004883,0.4694709777832031
1702138966224451600,5.89045166015625,5.049546718597412,0.3097705841064453,1.0651659965515137
1702138966241441300,5.907441162109375,4.063374996185303,0.3693995475769043,1.5529608726501465
1702138966258432500,5.9244326171875,3.572023868560791,0.6098432540893555,1.8736209869384766
1702138966275419400,5.94141943359375,3.265368938446045,1.006249189376831,2.1673145294189453
1702138966292416300,5.958416259765625,2.7944860458374023,0.804955005645752,3.238814353942871
1702138966309393000,5.975392822265625,2.5282609462738037,0.2466411590576172,3.774857521057129
1702138966326394600,5.99239453125,3.3679232597351074,-0.0393061637878418,3.9126315116882324
1702138966343383000,6.009383056640625,3.325192928314209,-0.048175811767578125,4.571019649505615
1702138966360374800,6.026374755859375,3.0777645111083984,0.5420746803283691,4.441585540771484
1702138966377376500,6.04337646484375,2.4489903450012207,0.8273830413818359,4.1709442138671875
1702138966394356500,6.0603564453125,1.9697065353393555,0.9877338409423828,3.4540481567382812
1702138966411346200,6.07734619140625,2.464487314224243,0.8620467185974121,3.0120906829833984
1702138966428338000,6.094337890625,3.2725436687469482,0.9783511161804199,2.991520404815674
1702138966445317000,6.111317138671875,3.7724833488464355,1.5795557498931885,3.3547959327697754
1702138966462308000,6.12830810546875,3.35611629486084,1.892376184463501,3.7053661346435547
1702138966479308300,6.145308349609375,2.7879109382629395,1.846198558807373,3.2024974822998047
1702138966496302800,6.162302734375,2.5520198345184326,1.7320106029510498,3.0290188789367676
1702138966513286400,6.179286376953125,2.486663579940796,1.7763452529907227,3.342280387878418
1702138966530281200,6.19628125,2.032644033432007,1.8377814292907715,4.117476940155029
1702138966547270400,6.2132705078125,1.2693984508514404,1.208876609802246,4.516544818878174
1702138966564262000,6.230261962890625,1.4016025066375732,1.036008358001709,4.630927085876465
1702138966581243600,6.24724365234375,1.3011465072631836,1.270723819732666,4.033499717712402
1702138966598242600,6.26424267578125,1.0903708934783936,1.3292045593261719,3.595219135284424
1702138966615232300,6.281232177734375,0.7623028755187988,1.2251324653625488,3.7446250915527344
1702138966632213500,6.298213623046875,0.7335495948791504,1.2834210395812988,4.316801071166992
1702138966649214000,6.3152138671875,0.6685366630554199,1.2766404151916504,5.020888805389404
1702138966666205000,6.332204833984375,0.9953811168670654,1.5106220245361328,4.682714462280273
1702138966683194600,6.349194580078125,1.7727123498916626,1.7583842277526855,3.76301908493042
1702138966700186000,6.36618603515625,2.190596580505371,1.8389596939086914,2.9124112129211426
1702138966717172000,6.383171875,2.4268627166748047,1.9460539817810059,2.3165030479431152
1702138966734177500,6.400177490234375,2.1819581985473633,2.094550848007202,2.2428297996520996
1702138966751156200,6.41715625,2.0952835083007812,2.0720365047454834,2.461699962615967
1702138966768148200,6.434148193359375,2.2690699100494385,1.936659574508667,2.4726643562316895
1702138966785129700,6.451129638671875,2.9542579650878906,1.7700810432434082,2.211880683898926
1702138966802133200,6.46813330078125,3.273066759109497,1.8817009925842285,1.6024184226989746
1702138966819108000,6.485108154296875,2.9343931674957275,1.8890798091888428,1.0876073837280273
1702138966836110300,6.5021103515625,2.3845672607421875,1.7843573093414307,1.162367820739746
1702138966853100000,6.51910009765625,2.392719268798828,1.4615590572357178,1.1777334213256836
1702138966870090800,6.5360908203125,2.8677237033843994,1.056201696395874,1.0348968505859375
1702138966887080700,6.553080810546875,3.528299570083618,0.8767244815826416,0.9195270538330078
1702138966904072200,6.570072265625,3.2681548595428467,0.7486767768859863,0.7353658676147461
1702138966921062000,6.587061767578125,2.7080938816070557,0.7077043056488037,0.08907413482666016
1702138966938053000,6.60405322265625,2.5704898834228516,0.37384915351867676,-0.3833608627319336
1702138966955041000,6.621041015625,2.701789379119873,0.11114621162414551,-0.3586397171020508
1702138966972035800,6.638035888671875,2.724888801574707,-0.15133953094482422,-0.049592018127441406
1702138966989023700,6.655023681640625,2.0012423992156982,-0.266554594039917,-0.11346435546875
1702138967006015000,6.672014892578125,1.177516222000122,-0.3857722282409668,-0.8490142822265625
1702138967023005000,6.6890048828125,0.6268463134765625,-0.44907617568969727,-1.5212125778198242
1702138967039984600,6.705984619140625,0.7226784229278564,-0.8681480884552002,-1.3187079429626465
1702138967056985900,6.72298583984375,0.825219452381134,-1.2948226928710938,-0.7468938827514648
1702138967073977000,6.73997705078125,0.06254541873931885,-1.481363296508789,-0.9332981109619141
1702138967090966800,6.756966796875,-0.271659255027771,-1.7814598083496094,-1.820115566253662
1702138967107952600,6.77395263671875,0.13867586851119995,-2.405951499938965,-2.507047176361084
1702138967124938000,6.79093798828125,0.9246999025344849,-2.6952383518218994,-2.6743240356445312
1702138967141930800,6.8079306640625,1.0951268672943115,-2.7667198181152344,-2.3241286277770996
1702138967158919200,6.824919189453125,0.1607533097267151,-3.0012729167938232,-1.7616524696350098
1702138967175913000,6.841912841796875,-0.8970189690589905,-3.346144676208496,-1.8674674034118652
1702138967192910800,6.858910888671875,-1.0691697597503662,-3.2496914863586426,-2.303048610687256
1702138967209890600,6.875890625,-0.36127227544784546,-3.7074365615844727,-1.983227252960205
1702138967226888400,6.892888427734375,-0.26360249519348145,-3.853973388671875,-1.2733516693115234
1702138967243876400,6.90987646484375,-0.7076212763786316,-4.535772323608398,-0.3799104690551758
1702138967260864500,6.926864501953125,-1.3870694637298584,-5.635864734649658,0.1940021514892578
1702138967277852400,6.943852294921875,-1.2182027101516724,-5.870182991027832,-0.17847633361816406
1702138967294849300,6.960849365234375,-0.8824606537818909,-5.430307388305664,-1.0390262603759766
1702138967311836200,6.977836181640625,-1.444603681564331,-4.745910167694092,-1.4923295974731445
1702138967328832000,6.99483203125,-1.767695665359497,-5.1924729347229,-1.2808780670166016
1702138967345826000,7.011825927734375,-1.934140682220459,-6.0754475593566895,0.5914287567138672
1702138967362812200,7.028812255859375,-0.9505620002746582,-5.803274631500244,1.7536602020263672
1702138967379796000,7.0457958984375,-0.23481440544128418,-6.179534912109375,2.1253042221069336
1702138967396788700,7.062788818359375,-0.013468265533447266,-6.726128101348877,0.2855844497680664
1702138967413780700,7.07978076171875,1.0318915843963623,-6.747010231018066,-1.9360675811767578
1702138967430766300,7.096766357421875,1.294736385345459,-6.211761474609375,-3.058164119720459
1702138967447767300,7.113767333984375,0.6788198947906494,-6.112828731536865,-2.384471893310547
1702138967464761900,7.130761962890625,-0.9489742517471313,-6.49869441986084,-0.18100261688232422
1702138967481749000,7.1477490234375,-2.598196029663086,-5.687033653259277,1.1407976150512695
1702138967498725600,7.1647255859375,-3.7781403064727783,-5.416324615478516,2.171764373779297
1702138967515730700,7.181730712890625,-2.981187105178833,-5.60798454284668,2.239394187927246
1702138967532720400,7.198720458984375,-1.1253546476364136,-5.988987922668457,1.8994474411010742
1702138967549711600,7.215711669921875,0.04258131980895996,-6.141636848449707,2.4198904037475586
1702138967566701600,7.23270166015625,-1.2783523797988892,-6.131782531738281,2.570596694946289
1702138967583693000,7.249693115234375,-1.994460105895996,-6.142551422119141,1.3691091537475586
1702138967600684800,7.266684814453125,-2.1427395343780518,-6.605526447296143,0.25351810455322266
1702138967617671700,7.283671630859375,-1.309120535850525,-6.824834823608398,-0.3724193572998047
1702138967634660400,7.300660400390625,0.25838303565979004,-6.55685567855835,-0.7570600509643555
1702138967651656000,7.317656005859375,1.0994772911071777,-6.125563621520996,-0.15418338775634766
1702138967668636400,7.334636474609375,1.1317800283432007,-5.794264793395996,0.6135654449462891
1702138967685635800,7.3516357421875,0.8905373215675354,-5.630066871643066,0.5871028900146484
1702138967702625500,7.36862548828125,0.901150107383728,-5.326769828796387,-0.36134910583496094
1702138967719615200,7.385615234375,1.1978459358215332,-5.019618034362793,-1.218348503112793
1702138967736606700,7.402606689453125,1.3433732986450195,-4.668116569519043,-1.494163990020752
1702138967753598000,7.419597900390625,1.0159449577331543,-4.227757453918457,-1.3545665740966797
1702138967770587600,7.436587646484375,0.44282564520835876,-3.8104817867279053,-0.9656391143798828
1702138967787579000,7.453578857421875,-0.1560242772102356,-3.347874402999878,-0.9654064178466797
1702138967804569000,7.470569091796875,0.14635741710662842,-2.951655149459839,-1.5320043563842773
1702138967821559800,7.487559814453125,0.5162488222122192,-2.6964125633239746,-2.0442633628845215
1702138967838548200,7.50454833984375,1.0075141191482544,-2.338644027709961,-2.2648024559020996
1702138967855543300,7.521543212890625,1.624281406402588,-1.9516680240631104,-2.2228946685791016
1702138967872529000,7.53852880859375,1.903524398803711,-1.7621996402740479,-1.6832170486450195
1702138967889522200,7.555522216796875,1.5844430923461914,-1.4129390716552734,-1.2647314071655273
1702138967906508000,7.572508056640625,1.4305191040039062,-1.02351713180542,-1.7027835845947266
1702138967923506700,7.589506591796875,1.3340071439743042,-0.6581771373748779,-2.63685941696167
1702138967940479700,7.606479736328125,1.8554503917694092,-0.3371012210845947,-3.080094814300537
1702138967957486600,7.623486572265625,2.3928184509277344,0.09869718551635742,-2.566951274871826
1702138967974473700,7.6404736328125,1.7054883241653442,0.4305596351623535,-1.5411291122436523
1702138967991462700,7.657462646484375,0.9012629389762878,0.313983678817749,-1.0126242637634277
1702138968008457700,7.674457763671875,0.49739623069763184,0.6364939212799072,-1.59196138381958
1702138968025446100,7.691446044921875,0.5556219816207886,0.8816566467285156,-2.0197720527648926
1702138968042435800,7.708435791015625,1.153396487236023,0.9089241027832031,-1.4508461952209473
1702138968059427300,7.72542724609375,1.7972419261932373,0.8929998874664307,-0.6405320167541504
1702138968076417300,7.742417236328125,2.3494386672973633,0.40094566345214844,0.26373863220214844
1702138968093408300,7.759408203125,3.3319931030273438,0.15460681915283203,0.47542715072631836
1702138968110398200,7.776398193359375,4.229946136474609,0.27735090255737305,0.8235979080200195
1702138968127389400,7.793389404296875,4.390438079833984,0.9833016395568848,1.1598916053771973
1702138968144369000,7.810368896484375,3.6333818435668945,1.3273134231567383,1.5059432983398438
1702138968161370400,7.827370361328125,3.0722246170043945,1.091503620147705,2.377257823944092
1702138968178360000,7.844360107421875,3.064279079437256,1.229487419128418,2.8103294372558594
1702138968195349200,7.861349365234375,3.5665979385375977,1.4876432418823242,3.0546340942382812
1702138968212344000,7.878343994140625,3.6835553646087646,1.670891284942627,3.309746742248535
1702138968229332200,7.895332275390625,3.6085591316223145,1.3694334030151367,3.6600756645202637
1702138968246322200,7.912322265625,3.9398043155670166,0.6363015174865723,4.363705158233643
1702138968263314000,7.92931396484375,4.455761432647705,0.37995243072509766,4.332363128662109
1702138968280303600,7.9463037109375,4.697333335876465,-0.03747844696044922,4.519171237945557
1702138968297301000,7.963301025390625,4.7744832038879395,0.37433576583862305,4.293695449829102
1702138968314281500,7.980281494140625,4.223024845123291,0.6834573745727539,4.34037971496582
1702138968331276300,7.9972763671875,3.9456679821014404,0.778714656829834,4.096972942352295
1702138968348265200,8.01426513671875,3.8172903060913086,0.645263671875,4.08465576171875
1702138968365259500,8.031259521484374,3.7410926818847656,0.763211727142334,4.39633321762085
1702138968382246400,8.048246337890625,2.989370584487915,0.7309794425964355,4.85280179977417
1702138968399238000,8.06523779296875,2.172314167022705,1.0134286880493164,4.107721328735352
1702138968416227800,8.082227783203125,1.8479275703430176,1.4187397956848145,2.906630516052246
1702138968433218800,8.09921875,1.6017835140228271,1.564145565032959,2.1522459983825684
1702138968450197800,8.11619775390625,1.629209041595459,1.4852285385131836,1.694657325744629
1702138968467200000,8.133199951171875,1.7979614734649658,1.207364559173584,1.9769492149353027
1702138968484189700,8.150189697265626,1.3441262245178223,0.8882794380187988,3.0657105445861816
1702138968501181000,8.167180908203125,0.6036295890808105,0.834862232208252,4.239639759063721
1702138968518168000,8.18416796875,0.027396202087402344,1.3244166374206543,3.885876178741455
1702138968535165000,8.2011650390625,-0.30130600929260254,1.8066163063049316,2.8425745964050293
1702138968552151600,8.218151611328125,0.5164062976837158,1.901125431060791,2.6240763664245605
1702138968569142800,8.235142822265624,0.750373363494873,1.5475115776062012,3.1702075004577637
1702138968586130200,8.252130126953125,0.9302263259887695,1.2070636749267578,4.024514675140381
1702138968603126500,8.26912646484375,0.9348807334899902,1.36067533493042,4.801383972167969
1702138968620114000,8.286114013671876,1.3949956893920898,1.8762874603271484,4.748485088348389
1702138968637105200,8.303105224609375,1.7754756212234497,2.1114978790283203,4.4469146728515625
1702138968654094800,8.3200947265625,2.267590045928955,2.178133010864258,4.139496326446533
1702138968671086300,8.33708642578125,2.613617420196533,2.248898983001709,3.7158522605895996
1702138968688075800,8.35407568359375,2.8490653038024902,2.241814613342285,3.625605583190918
1702138968705067000,8.37106689453125,3.0546765327453613,2.1497278213500977,3.5859055519104004
1702138968722055000,8.388054931640625,3.634549617767334,2.114834785461426,3.2965645790100098
1702138968739050200,8.40505029296875,4.139281272888184,2.0657029151916504,3.1105055809020996
1702138968756038100,8.4220380859375,4.463626861572266,2.1445820331573486,3.0994839668273926
1702138968773029000,8.439029052734375,4.130257606506348,2.123417377471924,3.1123857498168945
1702138968790008300,8.45600830078125,3.3522396087646484,1.994328498840332,2.8484954833984375
1702138968807010300,8.47301025390625,2.8010196685791016,1.9289910793304443,2.2683019638061523
1702138968824000000,8.49,2.5434300899505615,1.8675713539123535,1.9621539115905762
1702138968840991200,8.5069912109375,2.4842593669891357,1.7450079917907715,1.8948235511779785
1702138968857981200,8.523981201171875,2.39540958404541,1.4080262184143066,1.9469785690307617
1702138968874972700,8.54097265625,2.3717195987701416,1.1424908638000488,1.356882095336914
1702138968891962000,8.557962158203125,2.213583469390869,0.8534955978393555,0.8590774536132812
1702138968908953300,8.574953369140625,2.2484190464019775,0.7127552032470703,0.5745611190795898
1702138968925943000,8.591943115234375,2.3044323921203613,0.5751283168792725,0.3923368453979492
1702138968942934800,8.608934814453125,2.2173733711242676,0.46596527099609375,0.28399181365966797
1702138968959919900,8.625919921875,1.952904462814331,0.16790556907653809,-0.07473373413085938
1702138968976915200,8.642915283203125,1.691650390625,-0.09150481224060059,-0.3787193298339844
1702138968993905000,8.65990478515625,1.8002854585647583,-0.3219313621520996,-0.6268653869628906
1702138969010890800,8.676890869140625,2.05735445022583,-0.5764782428741455,-0.7277774810791016
1702138969027884000,8.693884033203124,2.18391489982605,-0.9480600357055664,-0.21777629852294922
1702138969044880100,8.710880126953125,1.2633979320526123,-1.3399994373321533,0.190826416015625
1702138969061867300,8.7278671875,0.5831418037414551,-1.5719273090362549,-0.4997062683105469
1702138969078848300,8.74484814453125,0.22636502981185913,-1.6201894283294678,-1.5143728256225586
1702138969095845600,8.761845703125,-0.2055281400680542,-1.806311845779419,-2.2418832778930664
1702138969112842000,8.778842041015626,-0.10512369871139526,-2.360944986343384,-2.1184849739074707
1702138969129829400,8.795829345703124,0.3215317130088806,-2.446887969970703,-1.496826171875
1702138969146821000,8.812821044921876,-0.44363826513290405,-2.6598289012908936,-0.870030403137207
1702138969163810800,8.829810791015625,-1.0537992715835571,-3.120030403137207,-1.5122671127319336
1702138969180799200,8.84679931640625,-1.060123324394226,-3.542820453643799,-2.640012741088867
1702138969197793800,8.863793701171875,0.19117701053619385,-3.7772696018218994,-3.2684431076049805
1702138969214783000,8.880782958984375,0.7153680324554443,-3.478543758392334,-3.4099278450012207
1702138969231758300,8.89775830078125,0.08312182128429413,-3.7342212200164795,-2.7129483222961426
1702138969248764000,8.914763916015625,-0.9221859574317932,-4.212090492248535,-1.7554216384887695
1702138969265753600,8.931753662109376,-1.356316089630127,-4.518862724304199,-1.0909738540649414
1702138969282745300,8.948745361328125,-0.7252519130706787,-4.844754695892334,-1.283151626586914
1702138969299726600,8.9657265625,-0.2548447549343109,-4.950809478759766,-1.2156429290771484
1702138969316726000,8.98272607421875,-1.3397530317306519,-5.080839157104492,-1.05743408203125
1702138969333715500,8.999715576171875,-2.8331408500671387,-5.558770179748535,-0.8072528839111328
1702138969350707200,9.016707275390624,-3.4285385608673096,-5.151300430297852,-0.3051033020019531
1702138969367697000,9.03369677734375,-2.754634141921997,-6.882011413574219,0.7129526138305664
1702138969384688000,9.050688232421875,-1.7071213722229004,-5.802388668060303,0.8059358596801758
1702138969401675000,9.067675048828125,-1.293436884880066,-5.569751739501953,1.2164907455444336
1702138969418674200,9.084674072265624,-0.9787648916244507,-5.9533305168151855,-0.23770713806152344
1702138969435651600,9.101651611328125,0.23913885653018951,-6.139248847961426,-1.9377412796020508
1702138969452652800,9.11865283203125,-0.06693580746650696,-6.05332088470459,-1.5753240585327148
1702138969469637000,9.13563720703125,-1.3033194541931152,-5.871315956115723,-0.2532367706298828
1702138969486623200,9.152623291015624,-1.8939810991287231,-5.220853328704834,0.41547393798828125
1702138969503621000,9.16962109375,-1.3760625123977661,-5.084622383117676,0.34362125396728516
1702138969520594200,9.18659423828125,-1.109227180480957,-5.146586894989014,0.5604372024536133
1702138969537602000,9.20360205078125,-1.8590208292007446,-5.184759140014648,0.750554084777832
1702138969554591000,9.220591064453124,-2.914012908935547,-5.1903157234191895,1.770585060119629
1702138969571586000,9.2375859375,-3.565063714981079,-5.672652244567871,4.076312065124512
1702138969588574500,9.254574462890625,-2.812497854232788,-5.714052677154541,4.70805549621582
1702138969605564000,9.27156396484375,0.15317746996879578,-4.851317405700684,3.4098024368286133
1702138969622555600,9.2885556640625,0.23322516679763794,-4.9359235763549805,2.435755729675293
1702138969639537200,9.305537109375,-0.8696494102478027,-5.844539165496826,1.6178760528564453
1702138969656536600,9.32253662109375,-2.1166014671325684,-5.916021347045898,0.6154947280883789
1702138969673526300,9.3395263671875,-2.5286061763763428,-5.872978210449219,-0.05384540557861328
1702138969690517500,9.356517578125,-1.811427116394043,-5.385459899902344,-0.6435050964355469
1702138969707507500,9.373507568359376,-1.3368213176727295,-4.924631118774414,-0.9783849716186523
1702138969724498700,9.390498779296875,-0.9386751651763916,-4.677700519561768,-2.0747318267822266
1702138969741488400,9.40748828125,-0.9810248017311096,-4.835024833679199,-2.298795700073242
1702138969758486800,9.42448681640625,-0.7958819270133972,-5.0583367347717285,-2.1079587936401367
1702138969775467000,9.441467041015626,-0.6402372121810913,-4.89216947555542,-2.106550693511963
1702138969792463400,9.45846337890625,-0.19383591413497925,-4.25738525390625,-2.7663111686706543
1702138969809450200,9.4754501953125,-0.7994639873504639,-3.696430206298828,-2.946971893310547
1702138969826442500,9.4924423828125,-0.5080810785293579,-3.3789520263671875,-2.7455081939697266
1702138969843428900,9.509428955078125,0.1298322081565857,-3.0432960987091064,-2.4751386642456055
1702138969860425200,9.52642529296875,0.23916089534759521,-2.7062652111053467,-2.1113576889038086
1702138969877412400,9.543412353515626,-0.23438400030136108,-2.5336291790008545,-2.189365863800049
1702138969894390300,9.560390380859374,-0.3964400291442871,-2.1768674850463867,-2.5939688682556152
1702138969911397000,9.577397216796875,-0.2541896402835846,-1.438840627670288,-2.812016010284424
1702138969928384500,9.594384521484375,0.018101125955581665,-1.0092554092407227,-2.457376003265381
1702138969945374700,9.611374755859375,0.2776356637477875,-0.6162796020507812,-1.9974069595336914
1702138969962354200,9.628354248046875,0.34116852283477783,-0.359755277633667,-1.5324287414550781
1702138969979356200,9.645356201171875,0.675001859664917,-0.17876815795898438,-1.3315887451171875
1702138969996348200,9.66234814453125,1.104197382926941,0.1820976734161377,-1.3179869651794434
1702138970013336600,9.679336669921875,1.5631108283996582,0.5061986446380615,-1.2025537490844727
1702138970030327800,9.696327880859375,1.6610337495803833,0.5641343593597412,-0.8736820220947266
1702138970047318800,9.71331884765625,1.2614951133728027,0.5366818904876709,-0.5859880447387695
1702138970064309000,9.73030908203125,0.892014741897583,0.624565601348877,-0.5542078018188477
1702138970081288200,9.7472880859375,0.9733957052230835,0.789844274520874,-0.44260120391845703
1702138970098290200,9.764290283203126,1.3656682968139648,0.8229024410247803,0.12612533569335938
1702138970115277000,9.781277099609374,1.6870229244232178,0.9184629917144775,0.5930595397949219
1702138970132270800,9.798270751953124,1.6425679922103882,0.8245718479156494,0.7657690048217773
1702138970149263400,9.815263427734376,1.8668856620788574,0.5877161026000977,0.7376031875610352
1702138970166252300,9.832252197265625,2.6683244705200195,0.22702264785766602,0.8428182601928711
1702138970183242200,9.8492421875,3.56608247756958,0.36112451553344727,1.416377067565918
1702138970200233200,9.866233154296875,3.5317139625549316,0.7493104934692383,1.7966299057006836
1702138970217223000,9.883222900390624,3.9679248332977295,0.527956485748291,1.705061912536621
1702138970234212400,9.90021240234375,4.661105155944824,0.6879386901855469,1.1438417434692383
1702138970251206400,9.917206298828125,5.249544143676758,0.9347021579742432,0.9055390357971191
1702138970268198000,9.934197998046875,4.969294548034668,0.9645943641662598,1.0678057670593262
1702138970285185300,9.951185302734375,4.03208589553833,1.0071403980255127,1.642876148223877
1702138970302176800,9.9681767578125,3.290320873260498,1.0507781505584717,1.8239359855651855
1702138970319166500,9.98516650390625,3.381765365600586,0.8750414848327637,2.235905647277832
1702138970336157400,10.002157470703125,3.7241218090057373,0.8108534812927246,2.677128314971924
1702138970353147000,10.01914697265625,3.6721608638763428,0.5877161026000977,3.1974377632141113
1702138970370138600,10.036138671875,3.393949031829834,0.3595142364501953,3.6446032524108887
1702138970387128600,10.053128662109375,3.6660027503967285,0.17604684829711914,4.183039665222168
1702138970404119600,10.07011962890625,4.175110340118408,0.48020410537719727,4.619836807250977
1702138970421110300,10.0871103515625,4.199021339416504,0.7611660957336426,4.92030143737793
1702138970438099700,10.104099609375,3.751145839691162,0.6064906120300293,5.2311482429504395
1702138970455090700,10.121090576171875,3.3668408393859863,0.7016496658325195,4.679766654968262
1702138970472081400,10.138081298828125,3.3914499282836914,1.000218391418457,3.8825502395629883
1702138970489071600,10.155071533203126,3.485910415649414,1.5353155136108398,3.482736587524414
1702138970506062800,10.172062744140625,3.2590208053588867,1.9156157970428467,3.5594253540039062
1702138970523052800,10.189052734375,2.35563588142395,2.012327194213867,3.8465476036071777
1702138970540035300,10.206035400390626,1.506197214126587,1.9227967262268066,3.5362343788146973
1702138970557033500,10.223033447265625,0.8990497589111328,1.7910301685333252,2.9831180572509766
1702138970574025000,10.24002490234375,0.6104803085327148,1.6910531520843506,2.5291128158569336
1702138970591016400,10.257016357421875,0.8384199142456055,1.5651826858520508,2.2716827392578125
1702138970607992300,10.273992431640625,1.0405070781707764,1.537306785583496,2.4196085929870605
1702138970624985000,10.290985107421875,1.1494197845458984,1.564565658569336,3.0781736373901367
1702138970641974300,10.307974365234376,1.0269749164581299,1.8259100914001465,4.048749923706055
1702138970658966800,10.324966796875,0.8296003341674805,1.7669909000396729,4.490962028503418
1702138970675958500,10.34195849609375,1.3075299263000488,1.743177890777588,4.306800365447998
1702138970692950300,10.3589501953125,2.1174204349517822,1.8392870426177979,3.7764477729797363
1702138970709940700,10.375940673828126,2.907498836517334,2.137495279312134,3.3792929649353027
1702138970726932000,10.392931884765625,3.100856065750122,2.429262399673462,3.2688775062561035
1702138970743921400,10.40992138671875,2.615443706512451,2.340202808380127,3.574394702911377
1702138970760910300,10.426910400390625,2.294954299926758,2.1383602619171143,3.4650187492370605
1702138970777901800,10.44390185546875,2.8070333003997803,1.8870301246643066,3.2501111030578613
1702138970794890500,10.460890380859375,3.7022793292999268,2.0457403659820557,2.873471260070801
1702138970811885800,10.4778857421875,4.103213310241699,2.248417854309082,2.55892276763916
1702138970828874200,10.494874267578124,3.8552050590515137,2.083191394805908,2.616532802581787
1702138970845864700,10.51186474609375,3.7135682106018066,1.8073985576629639,2.773038387298584
1702138970862856000,10.52885595703125,3.672398328781128,1.4994189739227295,2.7996535301208496
1702138970879843300,10.54584326171875,3.6964216232299805,1.2238569259643555,2.626883029937744
1702138970896835000,10.5628349609375,3.4399023056030273,0.9963662624359131,2.3654603958129883
1702138970913826600,10.57982666015625,2.8462162017822266,0.9926164150238037,1.7308483123779297
1702138970930817800,10.59681787109375,2.2911057472229004,0.8981800079345703,0.8813314437866211
1702138970947809300,10.613809326171875,1.8623697757720947,0.6640820503234863,0.49655628204345703
1702138970964796200,10.630796142578125,1.7569258213043213,0.31051015853881836,0.7809000015258789
1702138970981792800,10.647792724609374,1.9854285717010498,-0.19165563583374023,1.0755605697631836
1702138970998776800,10.66477685546875,2.021307945251465,-0.5162010192871094,0.8298654556274414
1702138971015778300,10.6817783203125,1.7576358318328857,-0.6659786701202393,0.3188505172729492
1702138971032768000,10.69876806640625,1.1483347415924072,-0.9047605991363525,-0.11675262451171875
1702138971049760000,10.715760009765624,0.7779706120491028,-0.94270920753479,-0.46013927459716797
1702138971066749700,10.732749755859375,0.583004355430603,-1.3246662616729736,-0.31940746307373047
1702138971083740700,10.74974072265625,1.5982811450958252,-1.8437752723693848,0.18820858001708984
1702138971100730400,10.76673046875,1.8280138969421387,-1.8025240898132324,0.4700174331665039
1702138971117722000,10.78372216796875,1.4403446912765503,-1.8272054195404053,0.0944375991821289
1702138971134707200,10.800707275390625,0.8985869884490967,-2.1344611644744873,-0.8214759826660156
1702138971151707400,10.817707275390624,0.4289202094078064,-2.187354326248169,-1.624596118927002
1702138971168692200,10.834692138671874,0.05517381429672241,-2.3429110050201416,-2.1679491996765137
1702138971185684200,10.851684326171876,0.1504954695701599,-2.8100366592407227,-2.368119716644287
1702138971202673700,10.868673583984375,0.6867784261703491,-2.9063785076141357,-2.299921989440918
1702138971219654100,10.885654052734376,0.927704393863678,-2.95943021774292,-2.392817497253418
1702138971236644000,10.90264404296875,0.9721481800079346,-3.1157288551330566,-2.5912203788757324
1702138971253635600,10.919635498046874,0.6610776782035828,-3.3930749893188477,-2.6925129890441895
1702138971270638000,10.93663818359375,-0.2899625897407532,-3.4372079372406006,-3.249476432800293
1702138971287624400,10.95362451171875,-1.0940150022506714,-3.280795097351074,-3.7918739318847656
1702138971304599800,10.970599853515624,-1.7544386386871338,-3.203200101852417,-3.795772075653076
1702138971321608400,10.9876083984375,-1.5966829061508179,-3.746595621109009,-3.2449088096618652
1702138971338598000,11.004597900390625,-1.023701548576355,-4.283899307250977,-2.6900343894958496
1702138971355578400,11.021578369140625,-0.927482545375824,-4.99178409576416,-2.12150239944458
1702138971372578800,11.038578857421875,-1.806215524673462,-5.910833835601807,-1.5345697402954102
1702138971389570600,11.055570556640625,-2.6799726486206055,-6.089455604553223,-1.6211271286010742
1702138971406557700,11.0725576171875,-3.1039986610412598,-5.627948760986328,-1.717498779296875
1702138971423553800,11.0895537109375,-2.4560160636901855,-5.298246383666992,-1.5741090774536133
1702138971440541000,11.106541015625,-1.751954436302185,-5.542986869812012,-0.3863105773925781
1702138971457532700,11.12353271484375,-1.179239273071289,-5.804338455200195,0.6465702056884766
1702138971474519600,11.14051953125,-0.27447447180747986,-5.745842456817627,0.3580636978149414
1702138971491516200,11.15751611328125,-0.008992433547973633,-5.684288024902344,-0.23326873779296875
1702138971508503000,11.1745029296875,-0.8524444103240967,-6.192419052124023,0.8697080612182617
1702138971525494500,11.19149462890625,-0.9223619699478149,-6.413664817810059,1.6289911270141602
1702138971542482200,11.208482177734375,-0.4750758409500122,-6.274004936218262,1.9356002807617188
1702138971559477800,11.225477783203125,-0.9693295955657959,-6.223543643951416,2.6028127670288086
1702138971576465400,11.24246533203125,-2.3209328651428223,-6.04805326461792,3.7693347930908203
1702138971593456600,11.25945654296875,-3.622570276260376,-5.646162033081055,3.8655614852905273
1702138971610446600,11.276446533203124,-4.136261940002441,-5.526843547821045,2.934952735900879
1702138971627438800,11.29343896484375,-4.049859523773193,-5.368130683898926,1.8812971115112305
1702138971644426200,11.31042626953125,-3.3087847232818604,-4.767046928405762,0.9127693176269531
1702138971661418800,11.327418701171876,-2.90927791595459,-4.5106730461120605,0.5250949859619141
1702138971678408400,11.344408447265625,-2.8786203861236572,-4.599155426025391,0.6139001846313477
1702138971695393500,11.3613935546875,-2.7691235542297363,-4.820135593414307,0.49719810485839844
1702138971712391700,11.3783916015625,-2.1940574645996094,-4.858196258544922,-0.06982421875
1702138971729380900,11.395380859375,-1.4891530275344849,-4.456695079803467,-1.0193367004394531
1702138971746370600,11.41237060546875,-0.8974276781082153,-4.1308088302612305,-1.6097784042358398
1702138971763361800,11.42936181640625,-0.5503635406494141,-3.965081214904785,-1.732450008392334
1702138971780351500,11.4463515625,-0.6618524193763733,-4.1324543952941895,-1.1838207244873047
1702138971797343000,11.463343017578126,-0.930881142616272,-4.304080963134766,-0.5933504104614258
1702138971814333000,11.4803330078125,-1.1838659048080444,-4.253059387207031,-0.6565723419189453
1702138971831323600,11.49732373046875,-0.8848406076431274,-4.003371238708496,-1.2633113861083984
1702138971848313600,11.514313720703125,-0.16524270176887512,-3.5198965072631836,-2.025449275970459
1702138971865305300,11.531305419921875,0.44586020708084106,-3.2228105068206787,-2.3754143714904785
1702138971882295000,11.548294921875,0.817122220993042,-3.0467934608459473,-2.18217134475708
1702138971899286000,11.5652861328125,0.645608127117157,-2.823965549468994,-2.0324645042419434
1702138971916265200,11.58226513671875,0.27219873666763306,-2.32096266746521,-2.145480155944824
1702138971933267200,11.59926708984375,0.042411789298057556,-1.893627643585205,-2.337583541870117
1702138971950257000,11.6162568359375,-0.17023584246635437,-1.618112564086914,-2.671663284301758
1702138971967248000,11.633247802734376,0.27266770601272583,-1.5617928504943848,-2.724942207336426
1702138971984237800,11.65023779296875,0.6892896294593811,-1.3491058349609375,-2.4603519439697266
1702138972001229600,11.6672294921875,0.9451008439064026,-1.0306339263916016,-2.2277822494506836
1702138972018219000,11.684218994140625,0.9717175960540771,-0.8582179546356201,-2.174501895904541
1702138972035210200,11.701210205078125,1.2074472904205322,-0.43567514419555664,-2.264963150024414
1702138972052200200,11.7182001953125,1.2709953784942627,-0.040769338607788086,-2.2027697563171387
1702138972069191400,11.73519140625,1.067018747329712,0.13427186012268066,-1.7549338340759277
1702138972086168600,11.75216845703125,0.9116634130477905,0.12260890007019043,-1.146533489227295
1702138972103175000,11.7691748046875,1.250808596611023,0.513993501663208,-1.0125670433044434
1702138972120163000,11.7861630859375,1.5507994890213013,0.5221924781799316,-0.8336029052734375
1702138972137153000,11.803153076171874,2.02082896232605,0.2848057746887207,-0.41240501403808594
1702138972154143500,11.8201435546875,2.4846394062042236,0.3506350517272949,-0.19524860382080078
1702138972171134500,11.837134521484375,2.412687301635742,0.5028109550476074,0.16644001007080078
1702138972188123600,11.85412353515625,1.5632426738739014,1.1677806377410889,-0.09490680694580078
1702138972205116000,11.871115966796875,1.0963873863220215,0.9120290279388428,-0.21985435485839844
1702138972222105600,11.888105712890624,1.362841010093689,0.5700516700744629,-0.38948822021484375
1702138972239097900,11.905097900390626,2.521483898162842,0.7330365180969238,-0.40061235427856445
1702138972256086300,11.922086181640625,3.1774871349334717,0.7112841606140137,0.07192707061767578
1702138972273078000,11.939078125,3.5316250324249268,0.7232718467712402,0.7995176315307617
1702138972290067700,11.956067626953125,3.887829303741455,0.8173680305480957,1.3628697395324707
1702138972307058700,11.97305859375,4.362584590911865,0.7769260406494141,1.586061954498291
1702138972324048400,11.99004833984375,4.539660453796387,0.7014760971069336,1.9286003112792969
1702138972341040000,12.0070400390625,4.083510398864746,1.208200454711914,2.4347801208496094
1702138972358027500,12.024027587890625,3.4559619426727295,1.3893418312072754,3.59836483001709
1702138972375023000,12.041023193359376,2.702500343322754,1.4767680168151855,4.750739574432373
1702138972392010800,12.0580107421875,3.227693557739258,0.883181095123291,4.9499688148498535
1702138972409002200,12.075002197265626,4.736962795257568,0.5497617721557617,4.582775115966797
1702138972425992000,12.091991943359375,5.801703929901123,0.6013350486755371,4.663706302642822
1702138972442983000,12.10898291015625,5.334774494171143,0.7710995674133301,5.305083751678467
1702138972459969800,12.1259697265625,4.159939765930176,0.6791057586669922,5.628192901611328
1702138972476967200,12.14296728515625,3.183722972869873,0.6772089004516602,4.997757911682129
1702138972493954000,12.1599541015625,2.654460906982422,0.9826192855834961,4.392762184143066
1702138972510945000,12.176945068359375,2.5154612064361572,1.0276951789855957,4.243226528167725
1702138972527934700,12.193934814453126,2.9121298789978027,1.0687055587768555,4.0950775146484375
1702138972544926200,12.21092626953125,3.081336736679077,1.1451897621154785,3.8055577278137207
1702138972561909000,12.227908935546875,3.1411726474761963,1.3091506958007812,3.2564029693603516
1702138972578903000,12.244903076171875,2.8751697540283203,1.6205766201019287,2.4924840927124023
1702138972595899600,12.261899658203125,2.1962249279022217,1.7075226306915283,2.105196475982666
1702138972612888600,12.278888671875,1.2948403358459473,1.7523343563079834,2.4635915756225586
1702138972629878300,12.295878173828125,1.2267217636108398,1.8948285579681396,2.8546814918518066
1702138972646869200,12.312869140625,1.9317848682403564,2.0271406173706055,3.292746067047119
1702138972663857400,12.329857421875,2.733797550201416,2.0334527492523193,3.808368682861328
1702138972680852500,12.3468525390625,2.422450542449951,1.8645861148834229,4.139699935913086
1702138972697840400,12.36384033203125,1.4723880290985107,1.7493140697479248,3.7377700805664062
1702138972714831600,12.38083154296875,0.5429761409759521,1.6834537982940674,3.324418544769287
1702138972731810300,12.397810302734374,-0.10680961608886719,1.782824993133545,3.266543388366699
1702138972748804600,12.4148046875,-0.016449451446533203,1.8456358909606934,3.7257628440856934
1702138972765802500,12.431802490234375,0.3021981716156006,1.7962980270385742,4.015318393707275
1702138972782793500,12.44879345703125,1.502915620803833,1.884443998336792,3.951488494873047
1702138972799775000,12.46577490234375,2.6403183937072754,1.917024850845337,3.366011142730713
1702138972816775000,12.48277490234375,3.509992837905884,2.014756679534912,3.098944664001465
1702138972833761800,12.49976171875,3.310391664505005,1.9695308208465576,3.049647331237793
1702138972850758400,12.51675830078125,2.366004467010498,1.8836355209350586,2.7799148559570312
1702138972867745500,12.53374560546875,1.7088210582733154,1.7456459999084473,2.316498279571533
1702138972884737000,12.550737060546876,1.7664669752120972,1.6953301429748535,1.7815895080566406
1702138972901727000,12.56772705078125,2.5271975994110107,1.500514030456543,1.412714958190918
1702138972918727000,12.584726806640624,3.357635021209717,1.3094837665557861,1.172802448272705
1702138972935706400,12.601706298828125,3.6723103523254395,1.223522663116455,1.242067813873291
1702138972952699100,12.61869921875,3.405240297317505,1.1119639873504639,1.152106761932373
1702138972969688800,12.635688720703126,2.7466273307800293,1.0552501678466797,0.7695980072021484
1702138972986679800,12.6526796875,2.1456868648529053,1.0048911571502686,0.46683692932128906
1702138973003669500,12.66966943359375,1.9808433055877686,0.9649205207824707,0.2925577163696289
1702138973020661200,12.6866611328125,2.2997143268585205,1.1033074855804443,0.17584609985351562
1702138973037651000,12.70365087890625,2.1809029579162598,0.9396429061889648,0.20899200439453125
1702138973054639400,12.720639404296875,2.100217580795288,0.856367826461792,0.31769561767578125
1702138973071634200,12.73763427734375,1.84609055519104,0.8188619613647461,-0.03883838653564453
1702138973088617000,12.754616943359375,1.5262634754180908,0.7199127674102783,-0.37366390228271484
1702138973105613000,12.771613037109375,1.0665407180786133,0.2668118476867676,-0.36901283264160156
1702138973122600700,12.7886005859375,0.9267197847366333,-0.22893285751342773,0.025745391845703125
1702138973139587800,12.805587890625,0.6833600997924805,-0.5679826736450195,0.22726917266845703
1702138973156580000,12.822580078125,0.6696547865867615,-0.7011353969573975,0.2331829071044922
1702138973173578000,12.839577880859375,0.9982129335403442,-1.007458209991455,0.23477649688720703
1702138973190566100,12.856566162109376,1.3334167003631592,-1.9175662994384766,0.2707796096801758
1702138973207545300,12.87354541015625,2.068234443664551,-3.056429147720337,-0.3770170211791992
1702138973224547600,12.890547607421874,2.504648447036743,-3.5402793884277344,-1.414808750152588
1702138973241535000,12.907534912109375,2.246290445327759,-3.172727584838867,-1.5293269157409668
1702138973258523000,12.92452294921875,0.780990481376648,-3.031555414199829,-0.22535228729248047
1702138973275505000,12.9415048828125,-0.8525051474571228,-3.084467649459839,0.3006877899169922
1702138973292512500,12.958512451171876,-1.6131459474563599,-3.499382257461548,-0.24040985107421875
1702138973309499600,12.975499755859374,-1.0733635425567627,-3.2719786167144775,-1.647660255432129
1702138973326490600,12.99249072265625,-0.5002569556236267,-2.7774040699005127,-2.8201308250427246
1702138973343480300,13.009480224609375,0.10314995050430298,-3.000089645385742,-3.220531940460205
1702138973360471800,13.026471923828124,0.977868914604187,-3.0517358779907227,-3.0094733238220215
1702138973377461500,13.04346142578125,1.38699471950531,-2.9212827682495117,-2.1906356811523438
1702138973394452700,13.06045263671875,0.9886094927787781,-2.926264762878418,-2.0583581924438477
1702138973411442400,13.0774423828125,0.31373319029808044,-3.3147830963134766,-2.47560977935791
1702138973428431600,13.094431640625,0.030216574668884277,-3.6141891479492188,-2.4961400032043457
1702138973445426200,13.11142626953125,0.23002195358276367,-3.5444278717041016,-2.2751145362854004
1702138973462415400,13.128415283203125,-0.12011122703552246,-3.968599796295166,-1.5801153182983398
1702138973479404500,13.145404541015624,-0.5916604995727539,-4.534010410308838,-1.0062026977539062
1702138973496398300,13.1623984375,-0.6019487380981445,-4.5101518630981445,-1.2364959716796875
1702138973513394400,13.17939453125,-0.4291149377822876,-4.256251335144043,-1.4917001724243164
1702138973530376700,13.196376708984374,-0.6668176651000977,-4.298058032989502,-1.78702974319458
1702138973547366400,13.213366455078125,-0.8222364187240601,-4.974252700805664,-1.488316535949707
1702138973564358400,13.2303583984375,-0.33890748023986816,-5.370580673217773,-0.9267377853393555
1702138973581341400,13.247341552734374,-0.24870038032531738,-6.037646293640137,0.2616262435913086
1702138973598338800,13.2643388671875,-0.189508318901062,-6.057482719421387,0.9299173355102539
1702138973615327200,13.2813271484375,-0.30581068992614746,-6.033294200897217,1.5210342407226562
1702138973632321500,13.298321533203126,-1.1220332384109497,-5.758538246154785,1.8670358657836914
1702138973649310200,13.315310302734375,-1.4088308811187744,-5.8369646072387695,2.3263931274414062
1702138973666301000,13.332301025390626,-2.060960531234741,-6.510897636413574,2.8892316818237305
1702138973683291100,13.349291015625,-1.7107902765274048,-6.690443992614746,2.686403274536133
1702138973700282400,13.366282470703124,-0.746798038482666,-5.799212455749512,1.7286176681518555
1702138973717272300,13.383272216796875,-0.2927989959716797,-5.422726154327393,1.7738094329833984
1702138973734261500,13.400261474609374,-0.5563557744026184,-5.440117359161377,2.225417137145996
1702138973751254800,13.4172548828125,-0.8039783835411072,-5.524245262145996,1.744516372680664
1702138973768244500,13.434244384765625,-0.8935586214065552,-5.429371356964111,0.9663715362548828
1702138973785234400,13.451234375,-0.8991220593452454,-5.259740829467773,0.55828857421875
1702138973802225400,13.468225341796876,-0.8104208707809448,-5.0410051345825195,0.2861623764038086
1702138973819213300,13.48521337890625,-0.7024274468421936,-4.812173843383789,0.09963035583496094
1702138973836209000,13.502208984375,-0.6166453957557678,-4.484590530395508,-0.5323343276977539
1702138973853196300,13.5191962890625,-0.5257421731948853,-4.636923313140869,-0.7450723648071289
1702138973870189600,13.536189453125,-0.17320865392684937,-4.697784423828125,-0.7540044784545898
1702138973887159800,13.553159912109376,0.19385892152786255,-4.27377986907959,-0.3855142593383789
1702138973904169000,13.5701689453125,0.03685945272445679,-3.7061967849731445,-0.33362865447998047
1702138973921158700,13.58715869140625,-0.37339794635772705,-3.304255962371826,-1.1215486526489258
1702138973938149600,13.604149658203125,-0.7760846614837646,-3.368581771850586,-1.9096369743347168
1702138973955133400,13.621133544921875,-0.566862940788269,-3.3088526725769043,-2.488964080810547
1702138973972127700,13.638127685546875,0.23237496614456177,-3.3361868858337402,-2.2060351371765137
1702138973989118000,13.655117919921874,0.718299925327301,-3.0844650268554688,-1.240560531616211
1702138974006111500,13.672111572265624,0.6733396053314209,-2.5834617614746094,-0.5495719909667969
1702138974023101400,13.689101318359375,0.611058235168457,-2.2266902923583984,-0.9509649276733398
1702138974040093200,13.70609326171875,0.5083196759223938,-2.0860755443573,-1.6513209342956543
1702138974057082600,13.72308251953125,0.4160456359386444,-1.9867157936096191,-2.2081618309020996
1702138974074074000,13.74007421875,0.5724912881851196,-1.7911314964294434,-2.3375253677368164
1702138974091062800,13.757062744140624,0.7899256944656372,-1.4410710334777832,-1.9017081260681152
1702138974108044500,13.77404443359375,0.7715336680412292,-0.8969197273254395,-0.931757926940918
1702138974125047600,13.791047607421875,0.625166654586792,-0.3404264450073242,-0.4767169952392578
1702138974142023400,13.8080234375,0.48097097873687744,0.09952354431152344,-0.7465553283691406
1702138974159015200,13.82501513671875,0.5564422607421875,0.3470463752746582,-1.4609875679016113
1702138974176007000,13.8420068359375,0.8536702990531921,0.3936915397644043,-1.6157236099243164
1702138974192999000,13.8589990234375,1.289222240447998,0.29823732376098633,-1.363652229309082
1702138974209991400,13.875991455078125,1.4813563823699951,0.2576315402984619,-0.7277822494506836
1702138974226981400,13.8929814453125,1.3583177328109741,0.520047664642334,0.3220996856689453
1702138974243971300,13.909971435546876,1.4626593589782715,0.9506325721740723,0.6321487426757812
1702138974260961500,13.92696142578125,1.9410334825515747,1.367809772491455,0.16329479217529297
1702138974277950200,13.9439501953125,2.6830320358276367,1.2316932678222656,-0.1448068618774414
1702138974294940400,13.9609404296875,3.464334011077881,1.291722059249878,-0.48075008392333984
1702138974311933000,13.977932861328124,3.744400978088379,1.5860857963562012,-0.5372343063354492
1702138974328913700,13.99491357421875,2.8476247787475586,1.9259943962097168,0.020456314086914062
1702138974345916000,14.011916015625,1.8601129055023193,2.2980198860168457,0.18572473526000977
1702138974362902800,14.02890283203125,1.932008147239685,1.755692481994629,0.28193044662475586
1702138974379894300,14.045894287109375,2.4485363960266113,1.5913646221160889,0.311279296875
1702138974396885800,14.0628857421875,3.192847490310669,1.3880112171173096,0.45525312423706055
1702138974413877000,14.079876953125,3.029911756515503,1.4696385860443115,1.413170337677002
1702138974430869500,14.096869384765625,2.7186880111694336,1.5749835968017578,2.0821948051452637
1702138974447862800,14.11386279296875,2.54217529296875,1.387291431427002,2.6485934257507324
1702138974464848400,14.130848388671875,2.9184505939483643,1.118229866027832,2.8886160850524902
1702138974481839400,14.14783935546875,3.6477222442626953,0.8896770477294922,3.3827590942382812
1702138974498827800,14.164827880859375,4.360024452209473,0.8504824638366699,4.705428123474121
1702138974515815700,14.181815673828124,4.619997978210449,1.0146222114562988,6.465397834777832
1702138974532808000,14.198807861328126,4.287202835083008,0.8711361885070801,8.129698753356934
1702138974549798700,14.215798583984375,3.974186420440674,1.0494298934936523,7.796021461486816
1702138974566794800,14.232794677734375,3.4176080226898193,1.1667027473449707,6.0013017654418945
1702138974583785700,14.24978564453125,2.648782968521118,1.2950730323791504,4.5731520652771
1702138974600768300,14.266768310546874,2.0372977256774902,1.3232827186584473,3.7541565895080566
1702138974617762300,14.28376220703125,2.280730962753296,1.4746484756469727,3.4477624893188477
1702138974634755300,14.30075537109375,2.7521471977233887,1.757021427154541,3.195345878601074
1702138974651754500,14.31775439453125,2.770664930343628,1.9652493000030518,2.8552298545837402
1702138974668742000,14.334741943359376,2.6203970909118652,1.9505257606506348,2.252063274383545
1702138974685733000,14.351733154296875,2.5427722930908203,2.3162736892700195,1.7717266082763672
1702138974702712000,14.368712158203126,2.355916976928711,2.582259178161621,1.8649101257324219
1702138974719703800,14.385703857421875,1.9781756401062012,2.6945877075195312,2.4645566940307617
1702138974736704000,14.4027041015625,1.6232383251190186,2.7159154415130615,3.120865821838379
1702138974753695200,14.4196953125,1.5958890914916992,2.58689546585083,3.416804313659668
1702138974770684400,14.436684326171875,1.808241844177246,2.477653980255127,3.5121116638183594
1702138974787677200,14.45367724609375,2.035627841949463,2.244290351867676,3.629058837890625
1702138974804666000,14.470666015625,2.090884208679199,1.9314122200012207,4.076115608215332
1702138974821657300,14.4876572265625,2.4124536514282227,1.7044034004211426,4.848675727844238
1702138974838638600,14.504638671875,2.8261759281158447,1.7816052436828613,5.4833784103393555
1702138974855638800,14.521638671875,3.004155397415161,1.846236228942871,5.326319217681885
1702138974872625700,14.538625732421876,2.931162118911743,1.9199817180633545,4.390016078948975
1702138974889622000,14.5556220703125,2.3488006591796875,1.987955093383789,3.4772825241088867
1702138974906598400,14.572598388671874,1.409867525100708,1.9656822681427002,3.234360694885254
1702138974923603500,14.589603515625,0.9354169368743896,1.7824339866638184,3.2676520347595215
1702138974940587500,14.60658740234375,0.9217450618743896,1.620102882385254,2.957643508911133
1702138974957581800,14.623581787109375,1.4953439235687256,1.4107270240783691,2.477891445159912
1702138974974569000,14.64056884765625,2.1648881435394287,1.1671156883239746,1.8638238906860352
1702138974991565600,14.657565673828126,2.605703353881836,0.8741774559020996,1.5223722457885742
1702138975008552700,14.674552734375,2.7575674057006836,0.6477336883544922,1.3309659957885742
1702138975025543700,14.691543701171875,2.6461358070373535,0.4193229675292969,1.232539176940918
1702138975042533400,14.708533447265625,2.1126255989074707,0.27574586868286133,1.3226375579833984
1702138975059516000,14.725515869140626,1.674245834350586,0.2634296417236328,1.0334796905517578
1702138975076504000,14.742504150390625,1.5159826278686523,0.29993772506713867,0.46799278259277344
1702138975093505800,14.759505859375,1.4907913208007812,0.3211355209350586,0.0028791427612304688
1702138975110495500,14.77649560546875,1.3558902740478516,0.26010608673095703,-0.21422195434570312
1702138975127476500,14.7934765625,0.7774976491928101,0.27307963371276855,-0.2785968780517578
1702138975144476700,14.8104765625,0.17853683233261108,0.10087704658508301,-0.33589839935302734
1702138975161468000,14.827468017578125,-0.016621172428131104,-0.13251161575317383,0.021027565002441406
1702138975178459100,14.844459228515625,0.3433408737182617,-0.3143777847290039,0.31205272674560547
1702138975195446500,14.861446533203125,0.4785897135734558,-0.5869665145874023,0.160858154296875
1702138975212441300,14.87844140625,0.0077807605266571045,-0.8127942085266113,-0.34535694122314453
1702138975229430000,14.895429931640624,-0.8468298316001892,-1.0440833568572998,-1.1596546173095703
1702138975246419700,14.912419677734375,-1.3606441020965576,-1.2127623558044434,-1.9456210136413574
1702138975263411500,14.929411376953125,-0.7826117873191833,-1.2785203456878662,-2.2654800415039062
1702138975280401200,14.946401123046876,-0.03696410357952118,-1.0848016738891602,-2.3558578491210938
1702138975297381400,14.96338134765625,0.3872292637825012,-1.0957491397857666,-2.3744349479675293
1702138975314380000,14.980380126953126,0.43274834752082825,-1.1524584293365479,-2.39377498626709
1702138975331365000,14.997365234375,0.06631886214017868,-1.3213744163513184,-2.5567946434020996
1702138975348363300,15.01436328125,-0.38567742705345154,-1.3560359477996826,-2.944458484649658
1702138975365354200,15.031354248046876,-0.27651283144950867,-1.527066707611084,-3.0991764068603516
1702138975382341600,15.048341552734374,0.17247524857521057,-1.456127643585205,-2.803757667541504
1702138975399338000,15.065337890625,0.6147403120994568,-1.4798550605773926,-2.4346742630004883
1702138975416325400,15.082325439453125,0.5516535639762878,-1.8993821144104004,-2.0854015350341797
1702138975433316400,15.09931640625,1.3987454175949097,-2.3997795581817627,-1.9820961952209473
1702138975450306000,15.11630615234375,2.1655447483062744,-2.0635132789611816,-1.5411558151245117
1702138975467297800,15.1332978515625,0.6312314867973328,-1.7682383060455322,-1.2376298904418945
1702138975484287500,15.15028759765625,-1.3249614238739014,-2.4808552265167236,-1.1724576950073242
1702138975501278500,15.167278564453126,-2.4853415489196777,-3.3672430515289307,-1.2006187438964844
1702138975518268400,15.184268310546875,-1.5390174388885498,-3.669323444366455,-1.2670822143554688
1702138975535261700,15.20126171875,-0.6638084053993225,-4.008872032165527,-1.2504911422729492
1702138975552247800,15.218247802734375,-0.2666099965572357,-4.461092472076416,-1.3051538467407227
1702138975569241900,15.235241943359375,-0.6302838921546936,-5.2344770431518555,-0.8469524383544922
1702138975586229200,15.252229248046875,-0.7915314435958862,-5.25485897064209,-0.5580778121948242
1702138975603222300,15.26922216796875,-1.2500444650650024,-4.860380172729492,-0.8436203002929688
1702138975620211700,15.286211669921874,-1.1866340637207031,-4.620468616485596,-0.9899206161499023
1702138975637202700,15.30320263671875,-1.0398603677749634,-4.582181930541992,-0.6057167053222656
1702138975654192400,15.3201923828125,-1.2584166526794434,-5.49161958694458,0.9735746383666992
1702138975671182000,15.33718212890625,-1.5265367031097412,-6.260254383087158,2.0408287048339844
1702138975688173800,15.354173828125,-1.5736465454101562,-6.133049011230469,1.9786434173583984
1702138975705164800,15.371164794921874,-1.283848524093628,-5.835667610168457,1.765665054321289
1702138975722154800,15.38815478515625,-1.1153074502944946,-5.818343162536621,1.7799530029296875
1702138975739135700,15.4051357421875,-0.9404689073562622,-6.39509391784668,2.533651351928711
1702138975756136200,15.42213623046875,-0.9251976013183594,-6.7450666427612305,3.6263370513916016
1702138975773127200,15.439127197265625,-1.1768171787261963,-6.1798248291015625,2.981243133544922
1702138975790117000,15.4561171875,-1.810335636138916,-6.121708869934082,1.881032943725586
1702138975807108600,15.473108642578126,-1.9405300617218018,-6.003817558288574,0.008184432983398438
1702138975824098000,15.49009814453125,-1.4757860898971558,-6.266826629638672,-1.0400047302246094
1702138975841089000,15.507089111328124,-0.6486083269119263,-6.2204132080078125,-0.9670705795288086
1702138975858079000,15.524078857421875,-0.1761329174041748,-5.792452812194824,-0.5338191986083984
1702138975875070500,15.541070556640625,0.22903084754943848,-5.1800055503845215,-0.22420597076416016
1702138975892060400,15.558060302734376,0.535690426826477,-4.639819622039795,-0.2880058288574219
1702138975909065200,15.575065185546874,0.2811858057975769,-4.563996315002441,-0.5346803665161133
1702138975926038300,15.592038330078125,0.07020515203475952,-4.522213935852051,-0.8761959075927734
1702138975943033300,15.609033447265626,-0.5158474445343018,-4.405694961547852,-1.0298652648925781
1702138975960021800,15.626021728515624,-0.6758134365081787,-4.1802287101745605,-1.143235206604004
1702138975977013200,15.64301318359375,-0.2505572438240051,-3.6901566982269287,-1.201289176940918
1702138975994003200,15.660003173828125,0.3805272579193115,-3.069293975830078,-1.1527366638183594
1702138976010994700,15.67699462890625,-0.050623536109924316,-2.588667392730713,-0.8805065155029297
1702138976027984600,15.693984619140625,-1.1385407447814941,-2.2602880001068115,-0.9153242111206055
1702138976044975600,15.7109755859375,-1.7070845365524292,-2.173630475997925,-1.2932395935058594
1702138976061965300,15.72796533203125,-1.3406462669372559,-2.0088250637054443,-1.483551025390625
1702138976078957000,15.74495703125,-0.12887728214263916,-1.5110597610473633,-1.4845819473266602
1702138976095946500,15.761946533203124,0.6198391318321228,-1.4059677124023438,-1.2475457191467285
1702138976112934700,15.7789345703125,0.6009235382080078,-1.1162996292114258,-1.103818416595459
1702138976129927400,15.795927490234375,-0.1839619278907776,-0.7374439239501953,-1.6134934425354004
1702138976146919200,15.812919189453124,-0.9049063324928284,-0.9022059440612793,-2.1469650268554688
1702138976163902200,15.829902099609376,-0.3844947814941406,-1.3084731101989746,-1.8027820587158203
1702138976180899800,15.84689990234375,1.0121697187423706,-1.03163480758667,-1.2194461822509766
1702138976197889500,15.8638896484375,1.7835798263549805,-0.6970677375793457,-0.4848203659057617
1702138976214881000,15.880881103515625,2.0840160846710205,-0.3724555969238281,-0.043267250061035156
1702138976231871000,15.89787109375,1.7095650434494019,0.021519184112548828,0.11966133117675781
1702138976248862000,15.914862060546875,0.9001362323760986,0.2469172477722168,-0.009778022766113281
1702138976265852000,15.931851806640625,0.19746088981628418,0.6061596870422363,-0.19431114196777344
1702138976282847000,15.948846923828125,-0.19890165328979492,0.9433817863464355,-0.22362422943115234
1702138976299833000,15.9658330078125,0.967103123664856,0.6570329666137695,0.43324851989746094
1702138976316821000,15.982821044921875,2.8871004581451416,0.8254599571228027,1.1621732711791992
1702138976333804000,15.999803955078125,3.5619449615478516,1.3037848472595215,1.7735838890075684
1702138976350798300,16.01679833984375,2.520658254623413,1.6402826309204102,1.637829303741455
1702138976367784200,16.0337841796875,1.0721808671951294,1.7995600700378418,1.0768489837646484
1702138976384786400,16.050786376953123,0.08934974670410156,1.8328304290771484,0.5808119773864746
1702138976401775900,16.06777587890625,0.29953551292419434,1.906632900238037,0.25180625915527344
1702138976418756900,16.0847568359375,1.3314815759658813,2.0596282482147217,0.29440879821777344
1702138976435757300,16.10175732421875,2.401134490966797,1.8694581985473633,0.9623150825500488
1702138976452748500,16.11874853515625,3.0976476669311523,2.0123589038848877,1.3418025970458984
1702138976469738000,16.135738037109373,3.34358549118042,2.2179253101348877,1.1295371055603027
1702138976486729500,16.1527294921875,2.595583915710449,2.017703056335449,1.2335872650146484
1702138976503721700,16.1697216796875,1.5517213344573975,1.766624927520752,1.4840331077575684
1702138976520708400,16.186708251953124,1.1173136234283447,1.2241201400756836,2.176182746887207
1702138976537690000,16.203690185546876,1.8702244758605957,0.9155440330505371,3.131631851196289
1702138976554691800,16.22069189453125,3.4012205600738525,0.9383554458618164,3.8704895973205566
1702138976571681500,16.237681640625,4.504379749298096,0.9207406044006348,3.8919830322265625
1702138976588672500,16.254672607421874,4.847432613372803,0.9314236640930176,3.638533115386963
1702138976605658600,16.27165869140625,4.41896390914917,0.8377275466918945,3.4861841201782227
1702138976622657800,16.28865771484375,3.537815570831299,0.5973987579345703,3.6967172622680664
1702138976639636500,16.305636474609376,2.716188430786133,0.9783964157104492,3.795091152191162
1702138976656634600,16.322634521484375,2.375335931777954,1.564115047454834,3.8767600059509277
1702138976673624600,16.33962451171875,2.637883186340332,1.790048599243164,3.8907995223999023
1702138976690613500,16.356613525390625,3.522944688796997,1.8723018169403076,3.9758529663085938
1702138976707608300,16.3736083984375,3.6303346157073975,2.7512574195861816,3.366117000579834
1702138976724596700,16.3905966796875,2.765591859817505,3.187178611755371,3.12269926071167
1702138976741586400,16.40758642578125,1.1731197834014893,2.1856517791748047,3.2421927452087402
1702138976758574300,16.42457421875,1.4553711414337158,0.7755522727966309,2.8944149017333984
1702138976775571700,16.44157177734375,3.3836278915405273,-0.3457489013671875,2.718200206756592
1702138976792559000,16.45855908203125,5.300241470336914,-0.7720150947570801,2.582279682159424
1702138976809549000,16.475549072265625,6.621994495391846,-0.43349409103393555,2.8932552337646484
1702138976826540500,16.49254052734375,6.01699686050415,0.09754085540771484,3.7341251373291016
1702138976843530000,16.509530029296876,3.839913845062256,0.10642862319946289,4.343789100646973
1702138976860521000,16.52652099609375,1.4190170764923096,0.632054328918457,3.860421657562256
1702138976877511000,16.543510986328126,0.10473203659057617,1.2178459167480469,2.9711952209472656
1702138976894501600,16.560501708984376,-0.011035919189453125,1.6136319637298584,2.514456272125244
1702138976911493000,16.5774931640625,0.7827732563018799,1.7354624271392822,2.805445671081543
1702138976928483000,16.594483154296874,1.4928648471832275,1.594080924987793,3.7726197242736816
1702138976945472800,16.61147265625,1.7289118766784668,1.35919189453125,4.701562881469727
1702138976962464800,16.62846484375,1.9251220226287842,1.3998064994812012,4.832909107208252
1702138976979445500,16.645445556640624,2.4032251834869385,1.656820297241211,4.083591461181641
1702138976996445200,16.662445068359375,2.716417074203491,1.7521626949310303,3.337517738342285
1702138977013435100,16.67943505859375,3.0139153003692627,1.5711216926574707,2.8598403930664062
1702138977030426600,16.696426513671874,3.2428879737854004,1.3613319396972656,3.1241378784179688
1702138977047403000,16.713403076171875,3.442045211791992,1.3667058944702148,3.378049850463867
1702138977064407600,16.730407470703124,3.5376012325286865,1.429708480834961,3.1632938385009766
1702138977081397500,16.7473974609375,3.497973918914795,1.3707804679870605,2.5566391944885254
1702138977098389000,16.764388916015626,3.114053249359131,1.1508288383483887,1.809687614440918
1702138977115375400,16.781375244140627,2.375994920730591,0.9449172019958496,1.514286994934082
1702138977132373000,16.798373046875,1.5113192796707153,0.8858952522277832,1.4156908988952637
1702138977149348900,16.815348876953124,0.8465937376022339,0.8990902900695801,1.2767915725708008
1702138977166351000,16.83235107421875,0.6224813461303711,0.8487749099731445,0.7847890853881836
1702138977183340500,16.849340576171876,0.49996471405029297,0.7471761703491211,0.18575096130371094
1702138977200328000,16.866327880859377,0.20615744590759277,0.5904650688171387,-0.12621498107910156
1702138977217321700,16.88332177734375,-0.565698504447937,0.2987842559814453,-0.1853809356689453
1702138977234310700,16.900310546875,-1.27805757522583,-0.14101076126098633,-0.5331311225891113
1702138977251305200,16.91730517578125,-0.863194465637207,-0.05561017990112305,-1.2415924072265625
1702138977268294100,16.934294189453126,0.42938709259033203,-0.2497081756591797,-1.5300922393798828
1702138977285283800,16.951283935546876,0.9782777428627014,-0.6425065994262695,-0.9624862670898438
1702138977302275300,16.968275390625,0.661231279373169,-0.4689922332763672,-0.8621835708618164
1702138977319265000,16.98526513671875,-0.025567591190338135,-0.41422200202941895,-1.3777270317077637
1702138977336256300,17.00225634765625,-0.6282767057418823,-0.41420722007751465,-2.0712156295776367
1702138977353246000,17.019245849609376,-0.5769860744476318,-0.641953706741333,-2.2259678840637207
1702138977370237700,17.03623779296875,-0.632319450378418,-0.9464848041534424,-1.7702107429504395
1702138977387227100,17.05322705078125,-0.7374311685562134,-1.1287567615509033,-1.3174552917480469
1702138977404217900,17.0702177734375,-0.6991177797317505,-1.4651398658752441,-1.1068897247314453
1702138977421207800,17.087207763671874,-0.4203503429889679,-1.4184236526489258,-1.4035210609436035
1702138977438199600,17.104199462890627,-0.05471998453140259,-1.3750624656677246,-1.6980876922607422
1702138977455189200,17.121189208984376,-0.2904236614704132,-1.6785166263580322,-1.6588492393493652
1702138977472180500,17.138180419921873,-0.7175917625427246,-1.9243865013122559,-1.6935429573059082
1702138977489170200,17.155170166015626,-0.9683219194412231,-2.087002754211426,-2.2182421684265137
1702138977506161400,17.172161376953124,-0.8680764436721802,-2.304919958114624,-2.4021716117858887
1702138977523151400,17.1891513671875,-0.21585434675216675,-2.6051511764526367,-1.630678653717041
1702138977540142600,17.206142578125,-0.4085805416107178,-3.181838274002075,-1.2347164154052734
1702138977557132300,17.22313232421875,-0.7055391073226929,-3.892054796218872,-1.0907926559448242
1702138977574123500,17.24012353515625,-0.7109066247940063,-4.038209915161133,-0.38694190979003906
1702138977591100700,17.2571005859375,-1.3113130331039429,-3.722693920135498,-0.1073141098022461
1702138977608107000,17.27410693359375,-1.9336023330688477,-3.2375614643096924,-0.6904001235961914
1702138977625091600,17.291091552734375,-1.630358338356018,-3.549257755279541,-0.1819286346435547
1702138977642088200,17.308088134765626,-0.7821605801582336,-4.884242534637451,1.4061155319213867
1702138977659062500,17.3250625,-0.24876004457473755,-5.199504852294922,2.3784799575805664
1702138977676066800,17.34206689453125,-0.46551698446273804,-4.684959888458252,0.9502077102661133
1702138977693057800,17.359057861328125,-0.9222894310951233,-5.155172348022461,-1.8149824142456055
1702138977710042400,17.37604248046875,-1.3940778970718384,-4.73027229309082,-3.8895435333251953
1702138977727029000,17.393029052734374,-1.0506930351257324,-4.953901290893555,-3.4544010162353516
1702138977744020700,17.410020751953127,0.1219680905342102,-5.724569797515869,-2.4766931533813477
1702138977761010400,17.427010498046876,0.7183599472045898,-6.427134990692139,-1.3916902542114258
1702138977778006000,17.444006103515626,-0.8448224663734436,-6.139186859130859,1.5653018951416016
1702138977794989800,17.46098974609375,-2.5813088417053223,-5.201379776000977,3.386667251586914
1702138977811982300,17.477982421875,-3.7683534622192383,-4.915983200073242,3.3482799530029297
1702138977828973800,17.494973876953125,-3.196695566177368,-5.66777229309082,3.2867231369018555
1702138977845964500,17.511964599609374,-2.303518056869507,-6.299821853637695,3.2770261764526367
1702138977862954800,17.528954833984375,-2.2580902576446533,-7.100888252258301,3.805403709411621
1702138977879945700,17.54594580078125,-1.6744029521942139,-7.9226837158203125,2.2251758575439453
1702138977896933000,17.56293310546875,-1.1144471168518066,-7.9068603515625,-0.22942638397216797
1702138977913923000,17.579923095703126,-0.842911958694458,-7.990579605102539,-2.0534491539001465
1702138977930918700,17.596918701171877,-0.13247856497764587,-7.727344036102295,-2.6071176528930664
1702138977947907000,17.613906982421874,0.307417631149292,-7.507527828216553,-0.7076787948608398
1702138977964899300,17.6308994140625,-0.8838989734649658,-6.64712381362915,0.37355518341064453
1702138977981888300,17.64788818359375,-1.8776371479034424,-5.93915319442749,0.07164859771728516
1702138977998875600,17.664875732421876,-1.652431607246399,-5.697558879852295,-0.4923734664916992
1702138978015880000,17.6818798828125,-0.3101312518119812,-5.442174911499023,-1.2139081954956055
1702138978032867000,17.6988671875,0.9857920408248901,-5.007338523864746,-0.8565769195556641
1702138978049858600,17.715858642578127,0.8810669779777527,-4.171074867248535,-0.5791769027709961
1702138978066848500,17.7328486328125,0.25333935022354126,-3.5998449325561523,-0.8587732315063477
1702138978083839700,17.74983984375,-0.5318571925163269,-2.966334581375122,-1.4143247604370117
1702138978100829200,17.7668291015625,-0.7381119132041931,-2.6797821521759033,-1.900019645690918
1702138978117833000,17.7838330078125,-0.14925086498260498,-2.4314138889312744,-1.7611989974975586
1702138978134810400,17.800810302734376,0.7369588613510132,-2.1713528633117676,-1.3500699996948242
1702138978151801300,17.81780126953125,1.283050537109375,-1.768388032913208,-0.49019908905029297
1702138978168791600,17.83479150390625,1.2077752351760864,-1.0078978538513184,0.14094924926757812
1702138978185772300,17.851772216796874,0.6634532809257507,-0.37320756912231445,0.011302947998046875
1702138978202772700,17.868772705078126,0.13636863231658936,-0.041403770446777344,-0.44271183013916016
1702138978219753200,17.885753173828125,-0.00993037223815918,0.01018977165222168,-0.8472967147827148
1702138978236753700,17.902753662109376,0.292910099029541,0.19527840614318848,-1.0885295867919922
1702138978253745200,17.9197451171875,1.1422319412231445,0.36460065841674805,-0.7591652870178223
1702138978270734800,17.93673486328125,1.9283461570739746,0.70001220703125,0.3186988830566406
1702138978287725600,17.9537255859375,2.3715627193450928,0.9639019966125488,0.9301691055297852
1702138978304728800,17.970728759765624,2.018528699874878,1.1429357528686523,0.6616735458374023
1702138978321700400,17.987700439453125,1.3199607133865356,1.1825177669525146,-0.14988327026367188
1702138978338682400,18.004682373046876,0.7479821443557739,1.5029785633087158,-0.6982522010803223
1702138978355688000,18.02168798828125,0.5446422100067139,1.3431694507598877,-0.3944072723388672
1702138978372678000,18.038677978515626,0.936843752861023,1.1003170013427734,0.6472077369689941
1702138978389669000,18.055669189453123,1.4899860620498657,1.0850768089294434,1.7546653747558594
1702138978406659000,18.0726591796875,1.9124635457992554,0.5803318023681641,2.3581881523132324
1702138978423650000,18.089650146484374,2.8221824169158936,0.6614828109741211,1.8154149055480957
1702138978440639700,18.1066396484375,3.3624038696289062,0.7285146713256836,1.278520107269287
1702138978457629000,18.12362890625,4.036680698394775,0.9486355781555176,0.9759612083435059
1702138978474621000,18.140620849609373,4.222776889801025,1.2670621871948242,1.0066933631896973
1702138978491617000,18.157616943359375,4.089817523956299,2.051614284515381,1.558657169342041
1702138978508603600,18.174603759765624,3.4846270084381104,1.8806233406066895,2.5635671615600586
1702138978525590300,18.19159033203125,3.4442219734191895,1.4070611000061035,2.3862595558166504
1702138978542583300,18.208583251953126,3.9083003997802734,1.4105820655822754,1.4215803146362305
1702138978559564500,18.225564453125,4.184687614440918,1.5304436683654785,0.6071681976318359
1702138978576564000,18.24256396484375,3.79058575630188,1.93672776222229,0.15604734420776367
1702138978593556000,18.259555908203126,3.0273561477661133,2.476691484451294,0.9160451889038086
1702138978610545700,18.276545654296875,1.8474349975585938,1.1614747047424316,2.832663059234619
1702138978627536600,18.29353662109375,2.557137966156006,0.7281661033630371,2.277641773223877
1702138978644526300,18.3105263671875,4.386938571929932,0.8088250160217285,1.5213418006896973
1702138978661517800,18.327517822265627,5.717011451721191,1.1087021827697754,1.3860602378845215
1702138978678497300,18.344497314453125,5.503030776977539,1.313680648803711,3.059718132019043
1702138978695496200,18.36149609375,3.7695908546447754,0.3930678367614746,4.9821457862854
1702138978712491000,18.378490966796875,3.45566987991333,0.4072871208190918,3.992293357849121
1702138978729480000,18.39547998046875,3.7288293838500977,0.5599527359008789,2.852642059326172
1702138978746470000,18.412469970703125,3.7482705116271973,0.6936907768249512,2.4653329849243164
1702138978763460900,18.4294609375,2.82968807220459,0.9680485725402832,2.61441707611084
1702138978780450600,18.446450439453123,1.4918029308319092,1.1453461647033691,2.630283832550049
1702138978797431800,18.463431884765626,0.6830282211303711,1.5306930541992188,1.8654146194458008
1702138978814434600,18.4804345703125,0.3808164596557617,2.03108549118042,1.0987391471862793
1702138978831420400,18.49742041015625,0.6776361465454102,1.85910964012146,0.915168285369873
1702138978848412700,18.51441259765625,1.5831222534179688,1.7282631397247314,0.8314247131347656
1702138978865404200,18.531404052734374,1.2701632976531982,1.4758307933807373,2.130176067352295
1702138978882393900,18.548393798828126,0.4841434955596924,1.28346586227417,3.7762575149536133
1702138978899382500,18.565382568359375,-0.17405462265014648,1.4287691116333008,3.53366756439209
1702138978916377600,18.582377685546874,-0.3160562515258789,1.4012389183044434,2.4144139289855957
1702138978933366500,18.599366455078126,-0.3716268539428711,1.2419085502624512,2.0809168815612793
1702138978950356000,18.61635595703125,-0.7330255508422852,1.3138203620910645,2.5751514434814453
1702138978967337500,18.63333740234375,-1.1640191078186035,1.5575580596923828,3.1989736557006836
1702138978984337000,18.6503369140625,-1.2205595970153809,1.5456557273864746,3.5572075843811035
1702138979001328400,18.667328369140623,-0.2446765899658203,1.243405818939209,3.5479469299316406
1702138979018318300,18.684318359375,1.3815515041351318,0.8893733024597168,3.419602870941162
1702138979035311000,18.70131103515625,2.652949810028076,0.7066569328308105,3.399606704711914
1702138979052297500,18.71829736328125,3.3388161659240723,1.0043044090270996,3.5283679962158203
1702138979069290800,18.735290771484376,2.99381160736084,1.2828936576843262,4.009864330291748
1702138979086280200,18.7522802734375,2.4533751010894775,1.092771053314209,4.697825908660889
1702138979103271400,18.769271484375,2.3627688884735107,0.6131563186645508,4.404444217681885
1702138979120258600,18.786258544921875,2.7920961380004883,0.4266681671142578,3.3736467361450195
1702138979137255400,18.80325537109375,3.0942299365997314,0.42578840255737305,2.4903059005737305
1702138979154241000,18.820240966796874,2.6642043590545654,0.8866934776306152,2.2531752586364746
1702138979171235000,18.837235107421876,1.6812317371368408,1.1310834884643555,2.562425136566162
1702138979188223200,18.85422314453125,1.1181890964508057,1.360422134399414,2.4901585578918457
1702138979205214700,18.871214599609374,1.25254225730896,1.2509191036224365,2.0637612342834473
1702138979222202600,18.88820263671875,2.1948068141937256,1.2798218727111816,1.4546942710876465
1702138979239193000,18.905193115234376,2.8390626907348633,1.1813750267028809,1.2953720092773438
1702138979256188200,18.922188232421874,3.2388036251068115,1.3047363758087158,1.4365363121032715
1702138979273177000,18.939177001953126,3.130368232727051,1.3728721141815186,1.609187126159668
1702138979290166800,18.956166748046876,2.8751325607299805,1.2236261367797852,1.7487335205078125
1702138979307158000,18.973157958984373,2.8556623458862305,0.9744939804077148,1.2685985565185547
1702138979324147500,18.9901474609375,3.0431079864501953,0.7073204517364502,0.5136404037475586
1702138979341139200,19.00713916015625,3.261406898498535,0.49845004081726074,0.19840431213378906
1702138979358129200,19.024129150390625,3.2684450149536133,0.7120254039764404,-0.1482696533203125
1702138979375120100,19.0411201171875,2.7492988109588623,0.6317212581634521,-0.11577892303466797
1702138979392109600,19.058109619140627,2.356849431991577,0.3843529224395752,0.012355804443359375
1702138979409101000,19.07510107421875,2.2126705646514893,-0.09303998947143555,0.015943527221679688
1702138979426088400,19.09208837890625,1.9598942995071411,-0.5453388690948486,-0.2279052734375
1702138979443084800,19.109084716796875,1.2410309314727783,-0.3961982727050781,-1.0824031829833984
1702138979460072000,19.126072021484376,0.29311585426330566,-0.27583765983581543,-1.8263187408447266
1702138979477063200,19.143063232421873,-0.19882047176361084,-0.44115614891052246,-2.0997471809387207
1702138979494051800,19.1600517578125,-0.008213996887207031,-0.885343074798584,-2.084651470184326
1702138979511045400,19.17704541015625,0.7241703271865845,-0.9866414070129395,-1.9704914093017578
1702138979528046000,19.194046142578124,0.6620425581932068,-1.3657054901123047,-1.7090978622436523
1702138979545023200,19.211023193359374,0.2994734048843384,-1.7145071029663086,-1.833125114440918
1702138979562018000,19.22801806640625,0.1662590503692627,-1.7935519218444824,-2.117978096008301
1702138979579006500,19.24500634765625,-0.14499473571777344,-2.0293071269989014,-1.9337053298950195
1702138979595993300,19.261993408203125,-0.11020982265472412,-2.0578513145446777,-1.5395126342773438
1702138979612990200,19.278990234375,-0.4604068994522095,-2.0309951305389404,-1.248835563659668
1702138979629977300,19.295977294921876,-1.1438188552856445,-2.181382656097412,-1.2495899200439453
1702138979646957800,19.312957763671875,-1.3826167583465576,-2.484257221221924,-1.6065235137939453
1702138979663958500,19.32995849609375,-0.9507753849029541,-2.890517234802246,-1.7402825355529785
1702138979680949800,19.34694970703125,0.0368649959564209,-2.747929573059082,-1.7714910507202148
1702138979697929000,19.363928955078126,0.204229474067688,-2.6340084075927734,-1.7248549461364746
1702138979714930400,19.380930419921874,-0.4061583876609802,-2.7104034423828125,-1.1470794677734375
1702138979731920100,19.397920166015624,-1.0621488094329834,-2.9040255546569824,-0.8950214385986328
1702138979748911900,19.414911865234377,-1.1949745416641235,-2.86954402923584,-1.1850013732910156
1702138979765901800,19.43190185546875,-0.6976450085639954,-3.1024458408355713,-1.5307502746582031
1702138979782892800,19.448892822265623,-0.7111284136772156,-3.695572853088379,-1.2170524597167969
1702138979799882500,19.465882568359376,-1.0768184661865234,-4.518800258636475,-0.7273445129394531
1702138979816874200,19.482874267578126,-1.665137529373169,-5.531561851501465,-0.28224945068359375
1702138979833856000,19.49985595703125,-1.7451727390289307,-6.226054668426514,0.09109115600585938
1702138979850854700,19.516854736328124,-1.1509675979614258,-6.214567184448242,0.09218978881835938
1702138979867844400,19.53384423828125,-1.142404556274414,-6.000839710235596,0.36011600494384766
1702138979884837600,19.550837646484375,-1.2841620445251465,-5.808746814727783,0.26619434356689453
1702138979901824500,19.567824462890623,-1.0840044021606445,-5.652776718139648,-0.149993896484375
1702138979918806800,19.584806884765626,-0.3990944027900696,-5.929324150085449,0.1549358367919922
1702138979935806700,19.601806640625,0.18649587035179138,-6.131418228149414,1.6326074600219727
1702138979952795600,19.618795654296875,-0.10931763052940369,-5.914900302886963,2.5763235092163086
1702138979969790500,19.63579052734375,-1.2000093460083008,-5.649509906768799,2.2824363708496094
1702138979986779000,19.65277880859375,-1.8500704765319824,-5.487640857696533,1.1473121643066406
1702138980003758000,19.669758056640624,-2.4383907318115234,-5.4520697593688965,0.6187648773193359
1702138980020760300,19.68676025390625,-2.5185444355010986,-5.141024589538574,1.0130558013916016
1702138980037750000,19.70375,-2.0425522327423096,-5.229299545288086,2.049274444580078
1702138980054741200,19.7207412109375,-1.5487068891525269,-5.491504192352295,2.580965042114258
1702138980071731200,19.737731201171876,-0.5979443788528442,-5.4440202713012695,1.921309471130371
1702138980088722700,19.75472265625,0.09390237927436829,-5.326694488525391,0.9000320434570312
1702138980105711000,19.771711181640626,0.3534238934516907,-5.158185005187988,0.12197399139404297
1702138980122703400,19.788703369140624,0.04435130953788757,-4.946208953857422,0.20777320861816406
1702138980139682600,19.8056826171875,-1.047714352607727,-4.95552921295166,0.8132219314575195
1702138980156684800,19.822684814453126,-2.17086124420166,-4.7357306480407715,0.7861566543579102
1702138980173674200,19.83967431640625,-2.160125732421875,-4.265398025512695,0.03120136260986328
1702138980190665500,19.85666552734375,-1.448723554611206,-3.9261703491210938,-0.5053081512451172
1702138980207655400,19.873655517578126,-0.5251110196113586,-3.8185999393463135,-0.3155832290649414
1702138980224647000,19.89064697265625,-0.5233736038208008,-3.913078784942627,-0.3471212387084961
1702138980241636600,19.90763671875,-0.8116117715835571,-3.910118818283081,-0.6692333221435547
1702138980258622000,19.9246220703125,-0.9058317542076111,-3.5888166427612305,-1.1247367858886719
1702138980275617500,19.941617431640626,-0.40444087982177734,-3.1359188556671143,-1.2090835571289062
1702138980292609000,19.958609130859376,0.2589736878871918,-2.5674118995666504,-1.031123161315918
1702138980309598700,19.9755986328125,0.760278582572937,-2.1502251625061035,-0.8263959884643555
1702138980326589200,19.992589111328126,0.7304046154022217,-1.591780424118042,-1.2498130798339844
1702138980343569700,20.009569580078125,0.4042450487613678,-1.2607386112213135,-1.7283382415771484
1702138980360571100,20.026571044921877,-0.14639031887054443,-0.8806555271148682,-2.1138052940368652
1702138980377560800,20.043560791015626,-0.6635348200798035,-0.9233124256134033,-2.2636003494262695
1702138980394549200,20.06054931640625,-0.5124751329421997,-0.7962362766265869,-2.0747551918029785
1702138980411544000,20.0775439453125,-0.28254109621047974,-0.45061254501342773,-1.549705982208252
1702138980428530700,20.09453076171875,0.1241072416305542,0.09369683265686035,-1.25504732131958
1702138980445525800,20.11152587890625,0.6523106098175049,0.4026491641998291,-1.156768798828125
1702138980462514200,20.12851416015625,0.8804837465286255,0.6238923072814941,-1.1586484909057617
1702138980479500500,20.14550048828125,0.8832120895385742,0.8095293045043945,-1.1024255752563477
1702138980496502000,20.162501953125,0.7004829049110413,0.8773925304412842,-1.2669496536254883
1702138980513476000,20.17947607421875,0.7002555131912231,0.8538141250610352,-1.4296379089355469
1702138980530476300,20.196476318359377,1.0812551975250244,0.8848824501037598,-1.1548075675964355
1702138980547466000,20.213466064453126,1.3703975677490234,0.9713826179504395,-0.739957332611084
1702138980564457200,20.230457275390624,1.4247848987579346,1.099468469619751,-0.5171170234680176
1702138980581447400,20.247447509765625,1.324121356010437,1.2112367153167725,-0.5324630737304688
1702138980598438400,20.2644384765625,1.5311875343322754,1.2006895542144775,-0.7318687438964844
1702138980615425500,20.281425537109374,2.02498722076416,1.0573289394378662,-0.8445544242858887
1702138980632422100,20.298422119140625,2.81612229347229,1.0782740116119385,-0.7365880012512207
1702138980649409300,20.3154091796875,2.955735206604004,1.235687017440796,-0.2453899383544922
1702138980666400500,20.332400390625,2.4102859497070312,1.3338725566864014,0.3723735809326172
1702138980683390200,20.34939013671875,2.1772022247314453,1.2800977230072021,0.5803399085998535
1702138980700379100,20.366379150390625,2.525662422180176,0.5569825172424316,0.48403358459472656
1702138980717374200,20.383374267578127,3.648223400115967,0.6720590591430664,0.024890899658203125
1702138980734363000,20.40036279296875,4.3633246421813965,0.7981901168823242,1.4593467712402344
1702138980751352300,20.417352294921876,3.14732027053833,0.9767661094665527,3.553009510040283
1702138980768343800,20.43434375,1.5339601039886475,1.2341995239257812,4.53690242767334
1702138980785333500,20.45133349609375,0.9446148872375488,1.3677034378051758,4.1094136238098145
1702138980802317000,20.468317138671875,1.8746364116668701,0.4792141914367676,3.3898138999938965
1702138980819314400,20.485314453125,4.011910915374756,0.25127506256103516,2.9980196952819824
1702138980836306200,20.50230615234375,4.987502098083496,0.18337345123291016,3.3588361740112305
1702138980853295900,20.5192958984375,4.729079246520996,0.08671236038208008,3.851618766784668
1702138980870286800,20.536286865234374,4.243687629699707,0.36092662811279297,4.007575035095215
1702138980887276300,20.5532763671875,3.9916789531707764,1.065141201019287,3.3886399269104004
1702138980904268000,20.57026806640625,3.82130765914917,1.268087387084961,2.802143096923828
1702138980921258000,20.587258056640625,3.476593017578125,0.7690215110778809,2.7916383743286133
1702138980938249000,20.6042490234375,3.165337562561035,0.1921539306640625,3.1146931648254395
1702138980955237400,20.6212373046875,2.695312023162842,-0.16357660293579102,4.178672790527344
1702138980972232000,20.63823193359375,1.9204795360565186,0.3716578483581543,4.983041763305664
1702138980989220000,20.65522021484375,0.6065161228179932,1.3272089958190918,5.093852996826172
1702138981006211000,20.672211181640623,-0.6762475967407227,1.7567882537841797,5.0062255859375
1702138981023200800,20.68920068359375,-1.1422696113586426,1.8525667190551758,4.450127601623535
1702138981040192300,20.706192138671874,-0.47752904891967773,1.82977294921875,3.880770683288574
1702138981057172500,20.72317236328125,0.4874379634857178,1.85992431640625,3.8352622985839844
1702138981074173400,20.74017333984375,1.0883917808532715,1.5634746551513672,4.160726070404053
1702138981091153200,20.757153076171875,1.5773963928222656,1.406632900238037,4.133416652679443
1702138981108157000,20.774156982421875,2.004781484603882,1.0861306190490723,3.7548575401306152
1702138981125144000,20.79114404296875,2.509072780609131,1.312204360961914,3.099557399749756
1702138981142135600,20.808135498046877,2.126053810119629,1.465968132019043,2.92987060546875
1702138981159112400,20.825112548828123,1.5335798263549805,1.4511370658874512,3.169740676879883
1702138981176106800,20.842106689453125,1.2562215328216553,1.7744526863098145,3.2669777870178223
1702138981193098500,20.859098388671875,1.2958133220672607,2.0155606269836426,3.578908920288086
1702138981210088000,20.876087890625,1.239884853363037,2.1016387939453125,3.7967443466186523
1702138981227076600,20.89307666015625,1.0848033428192139,2.1348042488098145,3.487651824951172
1702138981244070700,20.910070556640626,1.2208278179168701,2.1696510314941406,3.2195539474487305
1702138981261059800,20.927059814453123,1.3385627269744873,2.0751843452453613,3.2018375396728516
1702138981278050600,20.944050537109376,1.6824772357940674,1.936253547668457,3.11712646484375
1702138981295039000,20.9610390625,2.3906545639038086,1.823265552520752,3.2314867973327637
1702138981312035000,20.97803515625,2.9639053344726562,1.7462730407714844,3.3638243675231934
1702138981329023000,20.99502294921875,3.6924750804901123,1.68629789352417,3.081880569458008
1702138981346013400,21.012013427734374,4.130436420440674,1.7049880027770996,2.941525459289551
1702138981363004000,21.02900390625,3.5996313095092773,1.4076647758483887,2.524747848510742
1702138981379994000,21.045994140625,3.1381847858428955,1.2835674285888672,1.6205625534057617
1702138981396985300,21.0629853515625,2.8755056858062744,1.211176872253418,0.7905340194702148
1702138981413976600,21.0799765625,3.0642824172973633,1.2812228202819824,0.8637995719909668
1702138981430963500,21.09696337890625,2.1366708278656006,1.5285630226135254,1.004293441772461
1702138981447957000,21.11395703125,0.6642621755599976,1.8440580368041992,0.8139448165893555
1702138981464946000,21.13094580078125,-0.26656484603881836,1.7289602756500244,0.4165515899658203
1702138981481937700,21.147937744140624,0.37934792041778564,1.5615262985229492,0.1295027732849121
1702138981498926000,21.164926025390624,1.7595574855804443,1.1386620998382568,0.04873085021972656
1702138981515928800,21.1819287109375,2.9068429470062256,0.6038641929626465,-0.42735719680786133
1702138981532916700,21.198916748046877,3.219752311706543,0.19919824600219727,-0.6046409606933594
1702138981549903600,21.215903564453125,2.637105941772461,-0.154388427734375,-0.5332212448120117
1702138981566898000,21.23289794921875,1.8414911031723022,-0.005986213684082031,-1.0598664283752441
1702138981583889700,21.2498896484375,1.465033769607544,0.1051945686340332,-0.6462416648864746
1702138981600879400,21.26687939453125,1.7840244770050049,0.19875001907348633,0.14919185638427734
1702138981617870300,21.283870361328123,1.861619234085083,-0.6636033058166504,1.0155086517333984
1702138981634860000,21.300860107421876,1.5782290697097778,-1.3228352069854736,0.8382606506347656
1702138981651851800,21.317851806640626,1.4721277952194214,-1.7050888538360596,0.12530231475830078
1702138981668841200,21.33484130859375,1.6012555360794067,-1.9380865097045898,-0.6267051696777344
1702138981685832200,21.351832275390624,1.989161491394043,-2.0794973373413086,-1.0599870681762695
1702138981702822400,21.368822509765625,1.523982048034668,-2.0548367500305176,-1.4894680976867676
1702138981719813600,21.385813720703126,0.527323842048645,-2.679889440536499,-1.9408822059631348
1702138981736803300,21.40280322265625,-0.12958791851997375,-2.9362998008728027,-2.3039321899414062
1702138981753794300,21.419794189453125,-0.06557738780975342,-2.8105075359344482,-3.2825255393981934
1702138981770776800,21.43677685546875,0.2731398344039917,-2.546358108520508,-3.8510308265686035
1702138981787776000,21.45377587890625,0.02395407110452652,-2.65397047996521,-3.7301440238952637
1702138981804765400,21.470765380859376,-0.2995526194572449,-2.7202701568603516,-2.805201530456543
1702138981821758000,21.487758056640626,-0.16487455368041992,-2.105380058288574,-2.5513381958007812
1702138981838744600,21.50474462890625,-0.09598099440336227,-2.169017791748047,-2.220801830291748
1702138981855738000,21.521738037109376,-0.903511106967926,-3.689406394958496,-1.2876577377319336
