time,seconds_elapsed,z,y,x
1701978670337737700,0.09673779296875,-0.3201017379760742,-0.18659305572509766,-0.2826721668243408
1701978670354731800,0.113731689453125,0.07808113098144531,-0.4075450897216797,-0.21974289417266846
1701978670371717600,0.130717529296875,0.3146390914916992,-0.5456216335296631,-0.0755472183227539
1701978670388711200,0.147711181640625,0.21644306182861328,-0.5552058219909668,-0.10690486431121826
1701978670405696000,0.164696044921875,-0.11724090576171875,-0.49986982345581055,-0.2896401882171631
1701978670422689000,0.18168896484375,-0.5501480102539062,-0.5184035301208496,-0.4582083225250244
1701978670439679700,0.1986796875,-0.8004646301269531,-0.530510663986206,-0.6164408922195435
1701978670456666000,0.215666015625,-0.9694805145263672,-0.6258068084716797,-0.7137618064880371
1701978670473666300,0.232666259765625,-0.9762363433837891,-0.6744370460510254,-1.1337708234786987
1701978670490636800,0.24963671875,-1.2382421493530273,-0.7144608497619629,-1.616255283355713
1701978670507630600,0.266630615234375,-1.485501766204834,-0.8506405353546143,-2.2336249351501465
1701978670524632000,0.283632080078125,-1.5919718742370605,-1.1110684871673584,-2.7482073307037354
1701978670541615900,0.300615966796875,-1.7576885223388672,-1.5657418966293335,-2.924532413482666
1701978670558608100,0.317608154296875,-1.7153172492980957,-2.025911331176758,-3.353877544403076
1701978670575594500,0.334594482421875,-1.7185630798339844,-2.6705265045166016,-4.101234436035156
1701978670592587000,0.3515869140625,-1.6666173934936523,-3.5754733085632324,-5.1034464836120605
1701978670609577500,0.368577392578125,-1.767439842224121,-4.531970500946045,-5.988208770751953
1701978670626564000,0.385564208984375,-2.322448492050171,-4.920244216918945,-6.939251899719238
1701978670643553300,0.40255322265625,-3.7656707763671875,-6.142409801483154,-5.826353549957275
1701978670660550000,0.4195498046875,-4.284523010253906,-6.479029655456543,-4.106302261352539
1701978670677531600,0.43653173828125,-2.2232298851013184,-5.69367790222168,-3.1529698371887207
1701978670694517200,0.453517333984375,-0.18095612525939941,-4.81194543838501,-2.504683494567871
1701978670711511000,0.470510986328125,-0.13364681601524353,-3.5059914588928223,-1.5498414039611816
1701978670728510700,0.4875107421875,-1.6970393657684326,-2.843656063079834,0.5585441589355469
1701978670745478700,0.504478759765625,-3.2962591648101807,-2.263533592224121,2.9152612686157227
1701978670762485000,0.521485107421875,-2.8397583961486816,-1.631713628768921,4.7906904220581055
1701978670779475500,0.538475341796875,0.18625175952911377,-0.6542750597000122,3.6760244369506836
1701978670796462000,0.555462158203125,2.7521228790283203,-0.005503848195075989,2.4671096801757812
1701978670813453000,0.572453125,3.7715091705322266,0.36706340312957764,2.2874155044555664
1701978670830445800,0.58944580078125,3.6162209510803223,0.7631835341453552,2.3598365783691406
1701978670847430700,0.6064306640625,2.606625556945801,0.8934478163719177,2.763917922973633
1701978670864424400,0.623424560546875,1.2966864109039307,1.0591849088668823,2.9681787490844727
1701978670881412400,0.640412353515625,0.36934351921081543,1.5639121532440186,2.8852787017822266
1701978670898405000,0.657405029296875,-0.04155236482620239,1.752416968345642,2.369023323059082
1701978670915389700,0.6743896484375,-0.27483898401260376,1.6222319602966309,1.7424488067626953
1701978670932382700,0.6913828125,-0.5461174249649048,1.4533809423446655,1.043609619140625
1701978670949373400,0.70837353515625,-1.0437968969345093,1.3183503150939941,0.3443470001220703
1701978670966360000,0.725360107421875,-1.6825788021087646,1.457524299621582,-0.25061607360839844
1701978670983351300,0.742351318359375,-2.379704475402832,1.7070640325546265,-0.5324525833129883
1701978671000343800,0.75934375,-2.5650675296783447,2.379977226257324,-0.3886375427246094
1701978671017328000,0.776328125,-2.4374570846557617,2.7744812965393066,0.05865478515625
1701978671034322400,0.793322509765625,-2.361626625061035,2.7082109451293945,0.0913543701171875
1701978671051310300,0.810310302734375,-1.773064136505127,2.923344612121582,0.24887561798095703
1701978671068302800,0.827302734375,-1.4740406274795532,3.002377986907959,0.20303821563720703
1701978671085284400,0.844284423828125,-0.9760693311691284,3.2033305168151855,0.15246963500976562
1701978671102280700,0.86128076171875,-0.614632248878479,3.1839399337768555,0.3352642059326172
1701978671119271400,0.878271484375,0.005263566970825195,2.8326475620269775,0.6861705780029297
1701978671136251100,0.895251220703125,0.7431952953338623,2.3960788249969482,0.4105863571166992
1701978671153249800,0.912249755859375,1.4917114973068237,2.1577422618865967,0.047222137451171875
1701978671170241000,0.929240966796875,2.064772844314575,2.441967010498047,-0.11525821685791016
1701978671187226000,0.94622607421875,2.5533745288848877,2.9060235023498535,-0.05620765686035156
1701978671204208000,0.9632080078125,2.0064010620117188,1.8331739902496338,1.5723819732666016
1701978671221210000,0.980210205078125,1.7591334581375122,0.957449197769165,2.5813522338867188
1701978671238190300,0.9971904296875,1.2679556608200073,0.3850555419921875,2.2366561889648438
1701978671255186400,1.0141865234375,1.4284038543701172,-0.023046016693115234,1.1857900619506836
1701978671272190700,1.031190673828125,1.739585518836975,-0.3124351501464844,0.536346435546875
1701978671289168100,1.048168212890625,2.1728103160858154,-0.3201894760131836,0.7643117904663086
1701978671306160000,1.06516015625,2.3222556114196777,-0.31308746337890625,1.7492246627807617
1701978671323137500,1.082137451171875,1.8697075843811035,-0.2734098434448242,1.8640336990356445
1701978671340136700,1.09913671875,1.0736315250396729,-0.7733988761901855,1.4024620056152344
1701978671357128200,1.116128173828125,0.6489953994750977,-1.384732961654663,0.3879241943359375
1701978671374118100,1.1331181640625,0.8631385564804077,-1.846163272857666,-0.041767120361328125
1701978671391100200,1.15010009765625,1.3921198844909668,-2.5000991821289062,0.4368782043457031
1701978671408086000,1.1670859375,1.7977516651153564,-3.2998783588409424,1.5265388488769531
1701978671425087700,1.184087646484375,1.5229144096374512,-3.269256830215454,2.2828540802001953
1701978671442076700,1.20107666015625,0.9383965730667114,-2.7270073890686035,2.48184871673584
1701978671459054300,1.218054443359375,0.99361252784729,-2.180464267730713,2.0263633728027344
1701978671476056600,1.235056640625,0.9508305788040161,-2.2165331840515137,2.2231550216674805
1701978671493045000,1.252044921875,0.08736217021942139,-2.498020648956299,2.7014036178588867
1701978671510034200,1.2690341796875,-0.9306643009185791,-3.4604146480560303,2.3462133407592773
1701978671527022300,1.286022216796875,0.09949827194213867,-5.492218017578125,2.4635276794433594
1701978671544016400,1.303016357421875,1.3822368383407593,-5.276097297668457,2.049403190612793
1701978671561004300,1.32000439453125,0.9026482105255127,-4.324552536010742,1.7758941650390625
1701978671577981200,1.336981201171875,-0.12512826919555664,-4.710466384887695,2.5422868728637695
1701978671594981400,1.3539814453125,-0.5667147636413574,-5.327052116394043,2.9562015533447266
1701978671611964400,1.37096435546875,-1.5932031869888306,-5.575345039367676,2.811648368835449
1701978671628953300,1.387953369140625,-2.1038818359375,-6.0629425048828125,2.3986434936523438
1701978671645953500,1.40495361328125,-0.24186110496520996,-6.353911399841309,1.826303482055664
1701978671662943200,1.421943115234375,1.1930320262908936,-6.505542755126953,1.573307991027832
1701978671679935500,1.438935546875,1.7789417505264282,-6.399049758911133,1.7679357528686523
1701978671696918300,1.455918212890625,1.1833326816558838,-6.415997505187988,1.9431982040405273
1701978671713915000,1.472914794921875,0.7068077325820923,-6.150022029876709,1.8104286193847656
1701978671730904800,1.48990478515625,1.002943515777588,-5.784519195556641,1.5777158737182617
1701978671747895000,1.50689501953125,1.0182117223739624,-5.841073989868164,1.8118562698364258
1701978671764877600,1.523877685546875,1.1447091102600098,-6.269453048706055,1.9966249465942383
1701978671781873700,1.540873779296875,1.6711828708648682,-6.815587997436523,1.5264110565185547
1701978671798846700,1.5578466796875,2.533486843109131,-6.676850318908691,0.18150711059570312
1701978671815847700,1.57484765625,3.0955166816711426,-6.463203430175781,-0.6557474136352539
1701978671832823300,1.5918232421875,2.981889009475708,-5.9457621574401855,-0.8575267791748047
1701978671849834800,1.608834716796875,2.2406678199768066,-4.939549922943115,-0.7556076049804688
1701978671866819800,1.62581982421875,1.4005992412567139,-4.419328689575195,-0.3409767150878906
1701978671883814400,1.642814453125,0.7388604283332825,-4.143017768859863,-0.2972240447998047
1701978671900796400,1.65979638671875,0.8593651652336121,-4.216489315032959,-0.3280811309814453
1701978671917810200,1.67681005859375,1.3384191989898682,-3.9589552879333496,-0.6325578689575195
1701978671934778000,1.693778076171875,1.8984405994415283,-3.5033857822418213,-0.9989042282104492
1701978671951773400,1.7107734375,2.1941909790039062,-2.951554298400879,-1.4476432800292969
1701978671968761300,1.72776123046875,2.1384525299072266,-2.8660454750061035,-1.4177570343017578
1701978671985747700,1.744747802734375,2.5490646362304688,-2.6742637157440186,-1.008448600769043
1701978672002739200,1.7617392578125,2.857036590576172,-2.6309759616851807,-0.6754703521728516
1701978672019733800,1.778733642578125,3.0495965480804443,-2.2285516262054443,-0.8976297378540039
1701978672036714500,1.795714599609375,3.496872901916504,-1.892805576324463,-1.2862677574157715
1701978672053701000,1.812701171875,3.8170597553253174,-1.4975686073303223,-1.51912260055542
1701978672070696400,1.829696533203125,4.327242374420166,-1.1006078720092773,-1.572887897491455
1701978672087689200,1.846689208984375,4.408172130584717,-0.8494515419006348,-1.0750494003295898
1701978672104676000,1.863676025390625,4.0401611328125,-0.599998950958252,-0.5930328369140625
1701978672121669600,1.880669677734375,4.181148529052734,0.04108572006225586,-0.6184854507446289
1701978672138661000,1.8976611328125,4.426181793212891,0.246734619140625,-0.7857809066772461
1701978672155646200,1.914646240234375,4.714714050292969,0.21178960800170898,-0.9235405921936035
1701978672172623000,1.931623046875,5.096405029296875,0.2743239402770996,-0.8937153816223145
1701978672189633000,1.948633056640625,5.492345333099365,0.17722034454345703,-0.564669132232666
1701978672206614500,1.965614501953125,5.853302955627441,0.22763681411743164,0.11630916595458984
1701978672223606500,1.9826064453125,6.011300086975098,0.35847902297973633,1.0222907066345215
1701978672240600000,1.99960009765625,6.598018169403076,0.3703618049621582,1.3171415328979492
1701978672257585000,2.0165849609375,6.912942886352539,0.267366886138916,0.9289546012878418
1701978672274576600,2.03357666015625,6.840431213378906,0.3399167060852051,0.1439509391784668
1701978672291566600,2.050566650390625,6.534317970275879,0.5264139175415039,-0.1267561912536621
1701978672308557300,2.067557373046875,5.8898468017578125,0.7562427520751953,0.3281993865966797
1701978672325544200,2.084544189453125,5.299406051635742,1.1964421272277832,1.8498950004577637
1701978672342535200,2.10153515625,4.724009990692139,1.6335349082946777,2.996549606323242
1701978672359528200,2.118528076171875,4.623507499694824,1.7390046119689941,3.002279758453369
1701978672376512300,2.13551220703125,4.716564178466797,1.8406729698181152,2.3407745361328125
1701978672393505500,2.152505615234375,4.5094451904296875,1.9232673645019531,1.852020263671875
1701978672410496300,2.169496337890625,4.170940399169922,1.8839402198791504,1.9178996086120605
1701978672427483000,2.18648291015625,3.470396041870117,1.53456449508667,2.992854118347168
1701978672444475000,2.203474853515625,3.1346445083618164,1.1413145065307617,4.547061920166016
1701978672461465000,2.220465087890625,3.111833095550537,1.1713004112243652,5.083968639373779
1701978672478449200,2.23744921875,3.1273016929626465,1.235976219177246,4.8255720138549805
1701978672495442400,2.2544423828125,3.149169921875,0.6623740196228027,5.233154296875
1701978672512429300,2.27142919921875,2.732769012451172,0.12258577346801758,5.543647289276123
1701978672529429500,2.288429443359375,1.9336210489273071,0.27695226669311523,5.41349458694458
1701978672546410500,2.305410400390625,1.3499722480773926,0.5548267364501953,6.00436544418335
1701978672563410200,2.32241015625,0.8955469131469727,0.46628761291503906,6.543601989746094
1701978672580394200,2.339394287109375,0.8381340503692627,-0.15230417251586914,6.351294040679932
1701978672597380600,2.356380615234375,1.0746057033538818,-0.4395418167114258,4.513680458068848
1701978672614372900,2.373372802734375,1.4666695594787598,0.11593437194824219,1.958397388458252
1701978672631362800,2.39036279296875,1.9037424325942993,1.1655845642089844,-0.10300159454345703
1701978672648353500,2.407353515625,1.0810508728027344,1.365884780883789,-0.2817423343658447
1701978672665340200,2.424340087890625,0.047304630279541016,1.48811674118042,0.3296623229980469
1701978672682331100,2.4413310546875,-0.669123649597168,1.9438190460205078,0.6262321472167969
1701978672699324200,2.45832421875,-0.5531895160675049,2.765040874481201,0.272183895111084
1701978672716308500,2.47530859375,-0.49559903144836426,3.591538429260254,0.020138978958129883
1701978672733301800,2.4923017578125,-0.9325029850006104,3.777125835418701,0.1114511489868164
1701978672750292200,2.509292236328125,-2.0185298919677734,3.802112579345703,0.8521156311035156
1701978672767278300,2.5262783203125,-3.224787473678589,3.9350366592407227,1.4256982803344727
1701978672784271600,2.543271728515625,-3.974595069885254,4.467560768127441,1.3350601196289062
1701978672801260800,2.5602607421875,-4.244925022125244,4.620620250701904,1.2794198989868164
1701978672818241000,2.577240966796875,-4.392714977264404,4.4679059982299805,0.9322128295898438
1701978672835238100,2.594238037109375,-3.373131036758423,4.30023193359375,0.857994794845581
1701978672852229400,2.6112294921875,-2.5648069381713867,3.8598766326904297,1.3319604396820068
1701978672869222100,2.62822216796875,-1.5884394645690918,3.1224308013916016,1.9551146030426025
1701978672886204000,2.645203857421875,-0.605461835861206,2.72265625,2.497664213180542
1701978672903192300,2.6621923828125,-0.011130094528198242,3.0530600547790527,2.835068464279175
1701978672920193000,2.679193115234375,-0.1410691738128662,3.624134063720703,2.9280831813812256
1701978672937183500,2.69618359375,-0.7561347484588623,4.044830322265625,3.656127452850342
1701978672954162000,2.713161865234375,-1.748908519744873,3.9807214736938477,4.593353271484375
1701978672971159000,2.730158935546875,-1.7350404262542725,3.356872081756592,4.931983470916748
1701978672988138000,2.747137939453125,-0.6240105628967285,3.1764159202575684,4.5654497146606445
1701978673005139200,2.76413916015625,0.658982515335083,3.0560474395751953,4.27971887588501
1701978673022137300,2.781137451171875,1.7282036542892456,2.2896647453308105,4.668503284454346
1701978673039109400,2.798109375,2.675731897354126,1.7936105728149414,5.516967296600342
1701978673056105000,2.81510498046875,3.389716148376465,1.4085454940795898,7.081386566162109
1701978673073098200,2.83209814453125,3.5954322814941406,1.4207267761230469,7.899461269378662
1701978673090088700,2.849088623046875,3.9620628356933594,1.668785572052002,7.06909704208374
1701978673107075300,2.866075439453125,4.534480094909668,1.756840705871582,5.2333664894104
1701978673124056800,2.883056884765625,5.25318717956543,1.2269859313964844,4.1507697105407715
1701978673141053200,2.90005322265625,6.199240684509277,0.9400854110717773,3.9537458419799805
1701978673158041900,2.917041748046875,5.996386528015137,0.6008439064025879,4.710294723510742
1701978673175035400,2.934035400390625,4.582930564880371,0.868567943572998,5.293501853942871
1701978673192013600,2.951013671875,3.8057949542999268,1.7487878799438477,4.870882511138916
1701978673209017600,2.968017578125,4.042441368103027,2.1533751487731934,3.824288845062256
1701978673225994800,2.984994873046875,5.215672492980957,1.6824898719787598,3.7525010108947754
1701978673242994700,3.00199462890625,6.98811149597168,1.3135356903076172,3.8845605850219727
1701978673259974000,3.018973876953125,8.390625,0.9291539192199707,4.14792537689209
1701978673276975900,3.035975830078125,8.528852462768555,0.7746529579162598,4.402714252471924
1701978673293962800,3.052962646484375,7.9601521492004395,0.43262243270874023,4.179844856262207
1701978673310957800,3.069957763671875,7.64712381362915,-0.3664383888244629,3.296841621398926
1701978673327935200,3.086935302734375,7.375326156616211,-1.3833236694335938,1.905435562133789
1701978673344938200,3.103938232421875,7.85648775100708,-1.8416142463684082,0.5154910087585449
1701978673361925400,3.12092529296875,7.674030303955078,-1.8004450798034668,-0.3502640724182129
1701978673378902000,3.137902099609375,7.079927444458008,-1.6253371238708496,-0.4467315673828125
1701978673395904500,3.154904541015625,5.761113166809082,-2.430964946746826,0.4341287612915039
1701978673412895200,3.171895263671875,4.8890790939331055,-2.8522768020629883,0.5106840133666992
1701978673429884000,3.1888837890625,4.430266857147217,-2.990370750427246,-0.2008218765258789
1701978673446874600,3.20587451171875,4.943171501159668,-2.5340025424957275,-0.7504291534423828
1701978673463860700,3.22286083984375,5.01249885559082,-2.3792378902435303,-0.5439310073852539
1701978673480844800,3.2398447265625,4.665681838989258,-2.9721152782440186,0.5430498123168945
1701978673497832000,3.25683203125,4.367857933044434,-3.099168300628662,0.7375020980834961
1701978673514834200,3.273834228515625,4.457562446594238,-3.2187600135803223,0.5405616760253906
1701978673531825400,3.290825439453125,4.6427321434021,-3.604442834854126,0.6719894409179688
1701978673548814600,3.307814697265625,4.823983192443848,-4.2376298904418945,0.8696489334106445
1701978673565800000,3.324800048828125,4.792018890380859,-4.962454795837402,0.6587285995483398
1701978673582795800,3.341795654296875,4.889537811279297,-5.350346088409424,-0.17250728607177734
1701978673599764200,3.35876416015625,5.096519470214844,-5.524805068969727,-1.0396947860717773
1701978673616772400,3.3757724609375,5.292644023895264,-5.590610027313232,-1.4700493812561035
1701978673633758000,3.392758056640625,4.803708076477051,-5.787087440490723,-1.3799943923950195
1701978673650757000,3.409757080078125,3.905935287475586,-6.039793968200684,-0.3791799545288086
1701978673667741400,3.426741455078125,2.7952687740325928,-6.256634712219238,0.6644487380981445
1701978673684732700,3.443732666015625,1.7615318298339844,-6.085607528686523,0.8716459274291992
1701978673701720600,3.460720458984375,1.2968116998672485,-6.249392986297607,0.5602407455444336
1701978673718711800,3.4777119140625,0.9148471355438232,-6.665018081665039,0.66558837890625
1701978673735700700,3.49470068359375,1.3233522176742554,-6.590605735778809,1.6281204223632812
1701978673752681000,3.511680908203125,-0.6532907485961914,-6.264964580535889,3.5998315811157227
1701978673769680100,3.52868017578125,-2.4733169078826904,-5.606677532196045,3.6526622772216797
1701978673786658600,3.545658447265625,-2.5756118297576904,-5.924336910247803,2.7297563552856445
1701978673803652400,3.56265234375,-1.8315632343292236,-6.351198673248291,1.7319087982177734
1701978673820643000,3.57964306640625,-0.8611798286437988,-6.793906211853027,1.061964988708496
1701978673837629700,3.596629638671875,-0.9765820503234863,-7.304311752319336,1.9718122482299805
1701978673854620400,3.613620361328125,-1.7534615993499756,-7.1986589431762695,3.033503532409668
1701978673871612400,3.6306123046875,-2.3495378494262695,-6.275204658508301,3.126333236694336
1701978673888599300,3.647599365234375,-3.240917205810547,-5.4738078117370605,2.5647363662719727
1701978673905588700,3.664588623046875,-3.463879108428955,-5.318992614746094,2.4774999618530273
1701978673922584600,3.68158447265625,-2.6916604042053223,-5.950900077819824,2.7159910202026367
1701978673939566800,3.69856689453125,-1.2075190544128418,-6.827286720275879,2.407778739929199
1701978673956561400,3.7155615234375,0.5766052007675171,-7.126119613647461,1.8047161102294922
1701978673973546800,3.732546630859375,1.446613073348999,-6.509826183319092,1.115427017211914
1701978673990541300,3.749541259765625,1.1279319524765015,-5.777246475219727,0.8715238571166992
1701978674007531000,3.766531005859375,0.7574203014373779,-5.466744899749756,0.873408317565918
1701978674024521200,3.783521240234375,1.0436503887176514,-5.7162675857543945,1.4387292861938477
1701978674041508600,3.800508544921875,1.8374428749084473,-6.098217964172363,1.5525884628295898
1701978674058497800,3.817497802734375,3.006234884262085,-6.0857343673706055,0.8644962310791016
1701978674075489300,3.8344892578125,3.755664348602295,-5.890480041503906,0.23441791534423828
1701978674092487700,3.85148779296875,4.013628005981445,-5.461647033691406,-0.26471996307373047
1701978674109479200,3.868479248046875,3.4929842948913574,-5.069606781005859,-0.6498451232910156
1701978674126467300,3.88546728515625,2.619615316390991,-4.735897064208984,-0.6602363586425781
1701978674143456000,3.9024560546875,2.2358546257019043,-4.176821708679199,-0.7713260650634766
1701978674160447000,3.919447021484375,1.6097098588943481,-3.8795039653778076,-0.9750747680664062
1701978674177425400,3.93642529296875,1.7460250854492188,-3.2749009132385254,-1.8424372673034668
1701978674194426600,3.953426513671875,2.231328010559082,-2.703416585922241,-2.554469585418701
1701978674211415600,3.97041552734375,1.822180986404419,-2.5820300579071045,-2.207789421081543
1701978674228406300,3.98740625,1.2941436767578125,-2.7377212047576904,-1.0887727737426758
1701978674245395000,4.00439501953125,1.5814741849899292,-2.6140878200531006,-0.38102245330810547
1701978674262386000,4.021385986328125,2.45556378364563,-2.274134874343872,-0.0904693603515625
1701978674279369200,4.038369140625,3.2674033641815186,-1.7397863864898682,-0.21408748626708984
1701978674296365800,4.05536572265625,4.005373001098633,-1.1502296924591064,-0.5392894744873047
1701978674313352000,4.07235205078125,4.616242408752441,-0.9426202774047852,-0.693535327911377
1701978674330348000,4.08934814453125,4.586202144622803,-1.021955966949463,-0.42655086517333984
1701978674347323400,4.106323486328125,4.623310089111328,-1.3564386367797852,0.31560802459716797
1701978674364325000,4.1233251953125,5.305922508239746,-1.2406716346740723,0.6923036575317383
1701978674381313500,4.1403134765625,5.934744834899902,-0.43643999099731445,0.6241245269775391
1701978674398304500,4.157304443359375,6.204812049865723,0.5968890190124512,0.38692378997802734
1701978674415293200,4.174293212890625,6.145333290100098,1.174891471862793,0.36660099029541016
1701978674432284200,4.1912841796875,5.847777366638184,1.3988113403320312,0.6922245025634766
1701978674449272600,4.2082724609375,5.35076904296875,1.5030279159545898,1.1767058372497559
1701978674466263800,4.225263916015625,5.208565711975098,1.6678171157836914,1.2735357284545898
1701978674483252500,4.24225244140625,5.586779594421387,1.8727812767028809,1.1119141578674316
1701978674500243500,4.259243408203125,5.8438334465026855,2.2463088035583496,1.0080909729003906
1701978674517232000,4.276232177734375,5.816320419311523,2.0654306411743164,1.5651588439941406
1701978674534223400,4.293223388671875,5.729212760925293,1.657475471496582,2.033085346221924
1701978674551212000,4.3102119140625,5.675907135009766,1.511793613433838,2.2595877647399902
1701978674568192000,4.32719189453125,5.568543434143066,1.6384239196777344,1.9416718482971191
1701978674585191700,4.344191650390625,5.885809898376465,1.9758901596069336,1.620816707611084
1701978674602171600,4.361171630859375,5.472603797912598,1.7578282356262207,1.798795223236084
1701978674619166000,4.378166015625,5.398739337921143,1.5505166053771973,2.193485736846924
1701978674636163800,4.395163818359375,5.584244251251221,1.5434041023254395,2.5066914558410645
1701978674653151000,4.41215087890625,5.782468318939209,1.3253021240234375,2.6957497596740723
1701978674670144800,4.429144775390625,5.6063385009765625,1.169611930847168,2.5266475677490234
1701978674687126500,4.44612646484375,5.520590305328369,1.2804241180419922,2.4345550537109375
1701978674704122000,4.4631220703125,4.867299556732178,1.3972482681274414,2.913933753967285
1701978674721104100,4.480104248046875,3.7579619884490967,1.2585406303405762,3.8749184608459473
1701978674738090200,4.49709033203125,3.255246639251709,1.0021276473999023,4.690197467803955
1701978674755089700,4.514089599609375,3.2807130813598633,0.7026443481445312,4.642601013183594
1701978674772070000,4.53106982421875,3.427492380142212,0.6012024879455566,4.354989051818848
1701978674789058800,4.548058837890625,2.6685385704040527,0.9391312599182129,4.035991668701172
1701978674806060300,4.565060302734375,1.0503935813903809,1.2200031280517578,4.044904708862305
1701978674823049200,4.58204931640625,-0.5903663635253906,0.9838042259216309,4.627191543579102
1701978674840029700,4.59902978515625,-1.8803927898406982,0.8659639358520508,4.776953220367432
1701978674857028900,4.61602880859375,-1.9265697002410889,0.5928473472595215,4.757862091064453
1701978674874019600,4.63301953125,-1.7157726287841797,0.852506160736084,4.264071941375732
1701978674891008500,4.650008544921875,-1.6212620735168457,1.3758091926574707,3.369168758392334
1701978674907982000,4.666982177734375,-1.9251430034637451,1.1014037132263184,2.2538442611694336
1701978674924988200,4.68398828125,-1.9621531963348389,0.6969990730285645,1.042464256286621
1701978674941979000,4.700978759765625,-1.1287765502929688,0.3464031219482422,1.0028014183044434
1701978674958980600,4.717980712890625,-1.6167488098144531,1.0542950630187988,1.6093840599060059
1701978674975958800,4.734958740234375,-1.9317119121551514,1.3349394798278809,2.5391464233398438
1701978674992947500,4.751947509765625,-2.4547739028930664,0.9262008666992188,2.7858738899230957
1701978675009938200,4.768938232421875,-2.0065033435821533,1.0250592231750488,1.257802963256836
1701978675026916400,4.785916259765625,-1.1287040710449219,1.566246509552002,-0.16703271865844727
1701978675043915300,4.802915283203125,-1.099257469177246,1.8288617134094238,0.10486197471618652
1701978675060909300,4.819909423828125,-1.7712135314941406,2.2218356132507324,1.2852981090545654
1701978675077897500,4.8368974609375,-2.6058478355407715,2.677112102508545,2.5749428272247314
1701978675094872800,4.853872802734375,-2.955487012863159,2.9819722175598145,3.158740997314453
1701978675111879700,4.870879638671875,-2.2893309593200684,3.413130760192871,2.880709171295166
1701978675128882700,4.887882568359375,-1.6525557041168213,3.6652259826660156,2.7250611782073975
1701978675145853400,4.904853515625,-1.5427167415618896,3.9030041694641113,3.2508180141448975
1701978675162835500,4.92183544921875,-1.784853219985962,3.987860679626465,4.586480140686035
1701978675179836400,4.93883642578125,-1.9419176578521729,4.186416149139404,6.388919830322266
1701978675196825300,4.955825439453125,-1.9945170879364014,4.460814952850342,7.182072639465332
1701978675213817000,4.972817138671875,-0.8400933742523193,4.546427249908447,6.599613189697266
1701978675230793000,4.98979296875,0.5683281421661377,4.062685012817383,5.961548328399658
1701978675247796000,5.0067958984375,2.225649833679199,3.6444473266601562,5.5242414474487305
1701978675264781600,5.023781494140625,3.3756213188171387,3.196606159210205,5.925937652587891
1701978675281778200,5.040778076171875,3.4395689964294434,2.8228745460510254,6.972930431365967
1701978675298764000,5.057763916015625,3.215642213821411,2.742532730102539,6.8964152336120605
1701978675315755300,5.07475537109375,3.212583303451538,2.449098587036133,6.130306720733643
1701978675332744000,5.091743896484375,3.1680006980895996,1.926732063293457,5.279824256896973
1701978675349720000,5.108719970703125,2.974484920501709,1.7024264335632324,4.342625141143799
1701978675366727400,5.1257275390625,3.0535707473754883,1.0440220832824707,3.7960548400878906
1701978675383714600,5.142714599609375,3.7363669872283936,0.42487335205078125,3.4684700965881348
1701978675400703000,5.159702880859375,4.845056533813477,0.4141101837158203,3.392660140991211
1701978675417683700,5.17668359375,5.417700290679932,1.171478271484375,3.249331474304199
1701978675434680300,5.193680419921875,5.545388221740723,1.7830467224121094,3.399631977081299
1701978675451661800,5.210661865234375,5.302229881286621,1.6581106185913086,3.2930660247802734
1701978675468662500,5.22766259765625,5.53697395324707,1.3080487251281738,3.0946221351623535
1701978675485653500,5.244653564453125,6.29591178894043,0.9886431694030762,3.085447311401367
1701978675502642200,5.26164208984375,7.092867374420166,0.8601245880126953,3.368253707885742
1701978675519633200,5.278633056640625,7.345578193664551,0.996208667755127,3.908355712890625
1701978675536621600,5.29562158203125,7.3409013748168945,0.48618078231811523,3.9947171211242676
1701978675553610000,5.31260986328125,7.655679702758789,0.09259843826293945,3.9589223861694336
1701978675570604000,5.32960400390625,7.059797286987305,-0.8091025352478027,3.0700197219848633
1701978675587592400,5.346592529296875,7.342684745788574,-1.2493672370910645,2.241382598876953
1701978675604580900,5.363580810546875,6.448616981506348,-1.367475986480713,1.9703116416931152
1701978675621572000,5.380572021484375,5.842226982116699,-1.6575026512145996,1.7345643043518066
1701978675638560800,5.397560791015625,5.666973114013672,-1.9881064891815186,1.6448049545288086
1701978675655551700,5.4145517578125,5.6147332191467285,-2.431262254714966,1.6015958786010742
1701978675672540200,5.4315400390625,5.870359897613525,-3.1448686122894287,1.5194263458251953
1701978675689531400,5.448531494140625,6.034366130828857,-3.748760223388672,1.1454133987426758
1701978675706520000,5.46552001953125,6.079530715942383,-3.88242769241333,0.5164995193481445
1701978675723511000,5.482510986328125,5.671627998352051,-3.928269386291504,0.3416147232055664
1701978675740502800,5.499502685546875,4.897216796875,-4.141429901123047,0.6404399871826172
1701978675757487600,5.516487548828125,4.413814544677734,-4.838297367095947,0.9137601852416992
1701978675774479400,5.533479248046875,4.471620559692383,-5.615951061248779,0.8403282165527344
1701978675791470300,5.55047021484375,4.509246349334717,-5.896732807159424,0.5066928863525391
1701978675808459000,5.567458984375,3.9581096172332764,-5.796184539794922,0.2159280776977539
1701978675825439700,5.584439697265625,2.550508737564087,-6.301501750946045,0.9301462173461914
1701978675842438700,5.601438720703125,1.332842469215393,-6.727960586547852,1.1188621520996094
1701978675859419100,5.618419189453125,0.885443925857544,-6.90818977355957,0.35424232482910156
1701978675876428800,5.6354287109375,1.6897388696670532,-6.9734601974487305,-0.8975696563720703
1701978675893409300,5.6524091796875,2.292618751525879,-6.6060967445373535,-2.315417766571045
1701978675910398200,5.669398193359375,2.3690669536590576,-6.569608211517334,-2.1957859992980957
1701978675927389000,5.686388916015625,0.5999947786331177,-6.784222602844238,-0.30109405517578125
1701978675944377600,5.703377685546875,-0.7087688446044922,-6.436196327209473,0.11093997955322266
1701978675961368600,5.72036865234375,-0.8670103549957275,-5.9427361488342285,0.21560192108154297
1701978675978357200,5.737357177734375,-1.047339916229248,-5.83040714263916,-0.8383502960205078
1701978675995348200,5.75434814453125,-0.05609738826751709,-6.761290550231934,-0.33144378662109375
1701978676012332500,5.77133251953125,-0.8492497205734253,-7.6030120849609375,2.075529098510742
1701978676029332500,5.78833251953125,-1.216719388961792,-7.171795845031738,3.4775257110595703
1701978676046306300,5.805306396484375,-0.6047043800354004,-6.028670310974121,2.0401782989501953
1701978676063307300,5.822307373046875,-0.9837690591812134,-5.480326175689697,0.33383750915527344
1701978676080296400,5.83929638671875,-1.6093841791152954,-5.662957668304443,-0.33705615997314453
1701978676097287200,5.856287109375,-2.2216551303863525,-6.189822673797607,1.039170265197754
1701978676114276000,5.873276123046875,-2.091942548751831,-6.427074909210205,2.513535499572754
1701978676131266800,5.890266845703125,-2.6884636878967285,-5.689972877502441,3.586252212524414
1701978676148256000,5.907256103515625,-2.7684178352355957,-4.595759391784668,2.682864189147949
1701978676165246500,5.92424658203125,-3.197402000427246,-4.479296684265137,1.6221065521240234
1701978676182235100,5.941235107421875,-3.172083616256714,-4.510075569152832,1.2414731979370117
1701978676199215600,5.958215576171875,-2.383098602294922,-4.688760757446289,1.541966438293457
1701978676216215000,5.975215087890625,-1.6129426956176758,-5.039920806884766,2.3387279510498047
1701978676233204000,5.992203857421875,-0.5683625340461731,-5.542963027954102,2.961153030395508
1701978676250196500,6.009196533203125,-0.023138225078582764,-5.919353485107422,2.7413816452026367
1701978676267176000,6.026176025390625,0.5104246735572815,-5.594265937805176,1.1718978881835938
1701978676284174300,6.04317431640625,0.8712807893753052,-5.850081920623779,0.13521480560302734
1701978676301157600,6.06015771484375,1.5363256931304932,-6.259380340576172,-0.37445640563964844
1701978676318143700,6.077143798828125,2.314180374145508,-6.318950176239014,-0.1851825714111328
1701978676335144700,6.094144775390625,2.6021053791046143,-5.91158390045166,0.08640861511230469
1701978676352133600,6.111133544921875,1.4948267936706543,-5.799798965454102,0.8941841125488281
1701978676369114000,6.128114013671875,1.584303617477417,-5.650700092315674,0.28217506408691406
1701978676386113500,6.145113525390625,1.9887983798980713,-5.650813102722168,-0.4533376693725586
1701978676403104000,6.16210400390625,2.647979259490967,-5.365074157714844,-1.1359634399414062
1701978676420087800,6.179087890625,3.260124683380127,-4.808028221130371,-1.5083770751953125
1701978676437083600,6.196083740234375,3.22379732131958,-4.143074035644531,-1.182145118713379
1701978676454072600,6.213072509765625,2.80027437210083,-3.885991096496582,-0.5872678756713867
1701978676471063800,6.230063720703125,2.3031094074249268,-3.714743137359619,-0.7471199035644531
1701978676488041700,6.247041748046875,2.4784703254699707,-3.5658986568450928,-1.169281005859375
1701978676505043000,6.26404296875,3.100414514541626,-3.041292428970337,-1.6746253967285156
1701978676522032000,6.2810322265625,3.7970993518829346,-2.406508684158325,-1.7037558555603027
1701978676539012400,6.298012451171875,3.701246738433838,-1.9332635402679443,-1.0662107467651367
1701978676556011500,6.315011474609375,3.662675380706787,-1.729912281036377,-0.3462963104248047
1701978676573002500,6.33200244140625,3.5288267135620117,-1.7101478576660156,-0.19075298309326172
1701978676589991400,6.348991455078125,4.042509078979492,-1.469207763671875,-0.8492588996887207
1701978676606982400,6.365982421875,4.503998279571533,-1.2190885543823242,-1.0442743301391602
1701978676623968500,6.382968505859375,4.788390159606934,-0.9196429252624512,-0.8224067687988281
1701978676640964600,6.399964599609375,4.71424674987793,-0.5235180854797363,-0.2691655158996582
1701978676657950500,6.416950439453125,5.036487579345703,-0.2558441162109375,0.08664941787719727
1701978676674939100,6.433939208984375,5.306061744689941,-0.1788196563720703,0.1905221939086914
1701978676691930400,6.450930419921875,5.594087600708008,-0.022153377532958984,0.09363985061645508
1701978676708929500,6.467929443359375,5.893709182739258,0.30797767639160156,0.06436967849731445
1701978676725899300,6.484899169921875,5.800382614135742,0.6614699363708496,0.46230506896972656
1701978676742891000,6.50189111328125,6.005802154541016,0.6755404472351074,1.3953156471252441
1701978676759880400,6.51888037109375,6.090992450714111,0.6776447296142578,2.5363149642944336
1701978676776873200,6.535873291015625,6.386673927307129,0.8340482711791992,3.3540687561035156
1701978676793869600,6.55286962890625,6.856698989868164,1.392174243927002,3.3783488273620605
1701978676810862800,6.56986279296875,6.667396545410156,1.7367396354675293,2.9853172302246094
1701978676827838700,6.586838623046875,6.18215274810791,1.6369824409484863,2.630187511444092
1701978676844839000,6.6038388671875,5.948792457580566,1.5603632926940918,2.59332275390625
1701978676861829600,6.62082958984375,5.326778411865234,1.4387931823730469,2.6458301544189453
1701978676878819600,6.637819580078125,5.229875564575195,1.7205281257629395,2.7635583877563477
1701978676895808500,6.65480859375,4.809676647186279,2.1564788818359375,3.046072483062744
1701978676912796400,6.67179638671875,4.3407745361328125,2.1782584190368652,3.653623580932617
1701978676929790700,6.688790771484375,3.844730854034424,1.5518651008605957,3.960087776184082
1701978676946773000,6.70577294921875,3.826504945755005,0.9769420623779297,3.5142173767089844
1701978676963770000,6.72277001953125,4.579436302185059,1.0781612396240234,2.755296230316162
1701978676980756700,6.7397568359375,4.356573581695557,1.3630399703979492,2.8332200050354004
1701978676997729300,6.756729248046875,3.465045690536499,0.8364543914794922,3.8277173042297363
1701978677014734300,6.773734375,3.1732676029205322,0.22747468948364258,4.479645729064941
1701978677031728600,6.790728759765625,3.083224296569824,-0.14576244354248047,4.350038528442383
1701978677048718000,6.807718017578125,2.943904399871826,0.05631542205810547,3.6544981002807617
1701978677065704200,6.8247041015625,2.045997142791748,-0.004020214080810547,3.05656099319458
1701978677082700500,6.841700439453125,1.2722012996673584,0.026184558868408203,3.084517478942871
1701978677099689200,6.858689208984375,-0.027663707733154297,0.06666040420532227,3.44960355758667
1701978677116677400,6.875677490234375,-0.8484745025634766,0.4891395568847656,3.249547004699707
1701978677133663700,6.892663818359375,-1.2645127773284912,0.9336967468261719,2.8505353927612305
1701978677150660000,6.90966015625,-1.5297443866729736,1.3124284744262695,2.489015579223633
1701978677167643400,6.926643310546875,-1.544011116027832,1.4162840843200684,2.3761544227600098
1701978677184638200,6.94363818359375,-1.3595781326293945,1.5497899055480957,1.6581506729125977
1701978677201627000,6.960626953125,-0.7216339111328125,2.055492401123047,0.9599661827087402
1701978677218609200,6.977609130859375,-0.6724786758422852,2.3772716522216797,1.4384360313415527
1701978677235596500,6.994596435546875,-0.8840057849884033,2.8002495765686035,1.9879045486450195
1701978677252596200,7.01159619140625,-1.2354624271392822,3.298811912536621,2.1093568801879883
1701978677269585000,7.0285849609375,-1.2194879055023193,3.526704788208008,2.015275478363037
1701978677286565000,7.045565185546875,-1.3782684803009033,3.5878429412841797,2.102369785308838
1701978677303562200,7.062562255859375,-1.3355278968811035,3.8640923500061035,2.6239585876464844
1701978677320541400,7.07954150390625,-1.5801379680633545,4.073420524597168,3.657196521759033
1701978677337535500,7.096535400390625,-1.7768793106079102,4.1063642501831055,4.983767986297607
1701978677354525200,7.113525146484375,-1.7120075225830078,4.271572113037109,5.510097503662109
1701978677371517200,7.13051708984375,-1.1377384662628174,4.625351428985596,5.410660743713379
1701978677388504800,7.1475048828125,-0.5614829063415527,4.8073015213012695,5.202821731567383
1701978677405495800,7.164495849609375,-0.22345948219299316,4.779201984405518,5.109874248504639
1701978677422487300,7.1814873046875,0.011200666427612305,4.3784098625183105,5.342850208282471
1701978677439474000,7.198473876953125,0.5929193496704102,3.6074652671813965,5.913585662841797
1701978677456464100,7.215464111328125,1.239609956741333,3.0689949989318848,6.561812877655029
1701978677473453600,7.23245361328125,1.328594446182251,2.9573349952697754,6.939006805419922
1701978677490444300,7.2494443359375,0.9195423126220703,2.5909805297851562,6.378953456878662
1701978677507440600,7.266440673828125,1.4571192264556885,2.0775599479675293,4.901113033294678
1701978677524427000,7.283427001953125,2.875229597091675,1.5069642066955566,3.692267894744873
1701978677541417000,7.3004169921875,4.313713550567627,0.5784382820129395,3.817074775695801
1701978677558403000,7.317403076171875,4.803767204284668,0.029007434844970703,4.392195224761963
1701978677575391200,7.33439111328125,4.198526382446289,-0.027754783630371094,4.9448981285095215
1701978677592395500,7.3513955078125,3.4149675369262695,-0.031096935272216797,4.220355033874512
1701978677609381600,7.368381591796875,3.2144336700439453,0.18764543533325195,2.630648612976074
1701978677626362400,7.3853623046875,3.651540756225586,0.2372584342956543,1.7386560440063477
1701978677643358700,7.402358642578125,4.268506050109863,0.09171056747436523,1.726522445678711
1701978677660352000,7.41935205078125,4.722568988800049,-0.22643232345581055,2.3753914833068848
1701978677677341200,7.436341064453125,4.650201797485352,-0.08678150177001953,2.696094512939453
1701978677694332000,7.453331787109375,4.336424827575684,0.19693660736083984,2.255739212036133
1701978677711321000,7.470321044921875,4.237735271453857,0.40370655059814453,1.6893644332885742
1701978677728313900,7.48731396484375,4.771062850952148,0.5597233772277832,1.5030946731567383
1701978677745298400,7.50429833984375,4.877737045288086,0.6741538047790527,1.9972877502441406
1701978677762291500,7.52129150390625,4.536401271820068,0.3568429946899414,2.068826198577881
1701978677779275000,7.53827490234375,4.3650031089782715,0.07864952087402344,2.5254034996032715
1701978677796268000,7.55526806640625,4.443211555480957,0.011158943176269531,2.297386646270752
1701978677813257500,7.572257568359375,4.73129415512085,-0.4012284278869629,1.8910250663757324
1701978677830253600,7.589253662109375,5.400567054748535,-0.8165187835693359,1.1997041702270508
1701978677847240000,7.606239990234375,5.548616886138916,-1.2902801036834717,0.4737262725830078
1701978677864230700,7.623230712890625,5.05611515045166,-1.620361328125,0.15572166442871094
1701978677881219600,7.640219482421875,5.425637245178223,-1.7130930423736572,-0.6592087745666504
1701978677898210300,7.657210205078125,5.050759315490723,-2.1642792224884033,-0.43293094635009766
1701978677915199000,7.674198974609375,5.026617050170898,-2.60836124420166,-0.3006410598754883
1701978677932190000,7.69118994140625,4.811173439025879,-3.044691562652588,-0.5180444717407227
1701978677949179000,7.708178955078125,5.017821311950684,-2.9058661460876465,-1.0944604873657227
1701978677966169600,7.725169677734375,4.742973327636719,-2.8855559825897217,-1.1053962707519531
1701978677983158500,7.742158447265625,4.444579124450684,-2.9484729766845703,-0.4121980667114258
1701978678000137700,7.7591376953125,3.926821231842041,-3.1486940383911133,0.48171234130859375
1701978678017138200,7.77613818359375,3.7610487937927246,-3.5996057987213135,0.7118902206420898
1701978678034129200,7.793129150390625,3.9685094356536865,-3.8329038619995117,0.22016620635986328
1701978678051117600,7.81011767578125,4.250843048095703,-3.9713897705078125,-0.21279525756835938
1701978678068098800,7.827098876953125,4.301529884338379,-4.223865985870361,-0.14280986785888672
1701978678085097500,7.844097412109375,3.393761396408081,-4.731687545776367,0.25742530822753906
1701978678102088400,7.86108837890625,2.748100996017456,-4.96575403213501,0.6041135787963867
1701978678119077000,7.8780771484375,2.432079553604126,-5.563129425048828,0.7615346908569336
1701978678136067800,7.89506787109375,2.4275479316711426,-5.884439945220947,0.8405561447143555
1701978678153057000,7.91205712890625,2.0756490230560303,-5.6024250984191895,0.49448490142822266
1701978678170037000,7.929037109375,1.4052534103393555,-4.785849571228027,-0.0824441909790039
1701978678187036700,7.94603662109375,1.0444985628128052,-4.683107376098633,-0.1319875717163086
1701978678204024800,7.96302490234375,0.9644970893859863,-4.66219425201416,0.332550048828125
1701978678221019000,7.980018798828125,0.2499532699584961,-5.330270290374756,1.3398056030273438
1701978678237997000,7.9969970703125,-0.19948434829711914,-5.436062812805176,0.9069881439208984
1701978678254996000,8.013995849609374,-0.08504772186279297,-5.3623247146606445,-0.46613121032714844
1701978678271984000,8.030984130859375,-0.12923455238342285,-5.35776424407959,-1.829503059387207
1701978678288978200,8.047978271484375,0.20706486701965332,-5.252692699432373,-1.7911691665649414
1701978678305966300,8.06496630859375,-0.27869200706481934,-5.259347915649414,-0.5862503051757812
1701978678322946300,8.0819462890625,-1.7085909843444824,-5.161198139190674,0.6231927871704102
1701978678339946500,8.098946533203126,-3.0266311168670654,-4.920647144317627,0.17134857177734375
1701978678356935000,8.115934814453125,-3.145897150039673,-4.6340837478637695,-0.975682258605957
1701978678373926000,8.13292578125,-2.864668846130371,-4.935346603393555,-0.047156333923339844
1701978678390915800,8.149915771484375,-2.2936601638793945,-4.782707691192627,3.066706657409668
1701978678407899100,8.166899169921875,-2.9452013969421387,-3.533048629760742,5.961641311645508
1701978678424889900,8.183889892578126,-3.8272905349731445,-2.884519577026367,6.464387893676758
1701978678441882400,8.20088232421875,-3.3801565170288086,-3.543335437774658,4.498333930969238
1701978678458877200,8.217877197265626,-2.297278881072998,-4.895386695861816,2.8016433715820312
1701978678475865000,8.234864990234374,-0.5322209596633911,-5.927742004394531,2.0548887252807617
1701978678492854000,8.25185400390625,0.8388280272483826,-6.691010475158691,2.359628677368164
1701978678509845000,8.268844970703125,0.9521477818489075,-6.500338077545166,2.101191520690918
1701978678526833400,8.28583349609375,0.8529680371284485,-6.695749759674072,0.974492073059082
1701978678543824400,8.302824462890625,0.8568226099014282,-6.360631942749023,-0.29152870178222656
1701978678560813300,8.319813232421875,0.912028968334198,-6.524735927581787,-0.3745260238647461
1701978678577804300,8.33680419921875,0.6065280437469482,-7.1032257080078125,0.80609130859375
1701978678594792700,8.353792724609375,0.050882697105407715,-7.181468486785889,1.7354402542114258
1701978678611784000,8.370783935546875,0.06759679317474365,-7.428430557250977,1.559274673461914
1701978678628772600,8.387772705078126,1.5746545791625977,-6.634939193725586,-0.3068971633911133
1701978678645763600,8.404763671875,2.41418194770813,-5.858096122741699,-1.7304325103759766
1701978678662749400,8.42174951171875,2.58919095993042,-5.667010307312012,-1.6380615234375
1701978678679741700,8.43874169921875,1.8426191806793213,-5.612626075744629,-0.6852483749389648
1701978678696732200,8.455732177734374,0.18740099668502808,-4.9485321044921875,0.8215866088867188
1701978678713723100,8.47272314453125,-1.5592660903930664,-3.686896562576294,0.6699209213256836
1701978678730711800,8.4897119140625,-0.7851938605308533,-3.4692726135253906,-0.24132823944091797
1701978678747702800,8.506702880859375,1.1099015474319458,-2.731842279434204,-1.3827424049377441
1701978678764691200,8.523691162109374,1.5956099033355713,-1.9583179950714111,-1.8959121704101562
1701978678781682200,8.54068212890625,1.6519441604614258,-1.4537105560302734,-1.5831804275512695
1701978678798671000,8.557671142578124,1.0805717706680298,-0.8873851299285889,-0.7828884124755859
1701978678815662000,8.574662109375,0.37626075744628906,-0.07011556625366211,0.10187721252441406
1701978678832650800,8.591650634765625,-0.5253828763961792,0.3502020835876465,1.31170654296875
1701978678849637400,8.608637451171875,-0.31648707389831543,0.43364810943603516,1.4214344024658203
1701978678866631000,8.625630859375,1.5217878818511963,0.42419910430908203,0.7159976959228516
1701978678883621400,8.642621337890626,3.0750198364257812,0.48806285858154297,0.4192361831665039
1701978678900600600,8.6596005859375,4.143811225891113,0.5414667129516602,0.5409417152404785
1701978678917610800,8.67661083984375,4.092262268066406,0.07446813583374023,1.2849903106689453
1701978678934590200,8.693590087890625,4.212653160095215,0.03898191452026367,1.8780860900878906
1701978678951581000,8.710580810546874,3.9354958534240723,0.12360000610351562,1.9492521286010742
1701978678968569900,8.72756982421875,4.164156913757324,0.07683944702148438,1.26790189743042
1701978678985558300,8.744558349609376,5.054798603057861,-0.8115124702453613,0.8323922157287598
1701978679002551800,8.7615517578125,6.613506317138672,-1.8659920692443848,0.6122856140136719
1701978679019540500,8.77854052734375,7.823565483093262,-2.0532703399658203,0.28226709365844727
1701978679036529200,8.795529052734375,8.0435791015625,-1.6725211143493652,-0.0385289192199707
1701978679053523700,8.812523681640625,7.845370769500732,-1.262589454650879,-0.17821025848388672
1701978679070508800,8.8295087890625,6.984128475189209,-1.3221211433410645,-0.011872291564941406
1701978679087499800,8.846499755859375,6.5446271896362305,-1.5413322448730469,-0.19033193588256836
1701978679104488400,8.863488525390625,6.433956623077393,-1.4956488609313965,-0.8309822082519531
1701978679121479400,8.8804794921875,6.374181270599365,-1.430649757385254,-1.2117362022399902
1701978679138468400,8.89746826171875,6.601496696472168,-1.1608519554138184,-0.9877443313598633
1701978679155459000,8.914458984375,6.194212436676025,-0.7947101593017578,0.6916904449462891
1701978679172447700,8.93144775390625,5.221985816955566,-0.7873806953430176,2.657841205596924
1701978679189439000,8.94843896484375,4.8930768966674805,-1.0602049827575684,2.939188003540039
1701978679206417700,8.965417724609376,5.4918904304504395,-0.309293270111084,1.359994888305664
1701978679223418600,8.982418701171875,5.73529052734375,0.4294710159301758,0.34984827041625977
1701978679240407300,8.9994072265625,5.265366554260254,0.5542960166931152,0.6205539703369141
1701978679257387800,9.0163876953125,4.147586345672607,0.5268158912658691,2.527277946472168
1701978679274389000,9.033388916015625,3.455996036529541,0.8140225410461426,3.9011693000793457
1701978679291378000,9.0503779296875,3.27111554145813,1.3082427978515625,4.082920074462891
1701978679308351000,9.06735107421875,3.082066059112549,1.3493099212646484,3.503997802734375
1701978679325357800,9.08435791015625,3.0618972778320312,0.7779240608215332,3.0115456581115723
1701978679342346500,9.101346435546875,3.0120840072631836,0.46280574798583984,2.8933253288269043
1701978679359333400,9.11833349609375,2.5159265995025635,0.4979887008666992,3.8267459869384766
1701978679376326400,9.135326416015625,1.481827735900879,0.4084177017211914,5.895641803741455
1701978679393314600,9.152314453125,0.5349822044372559,0.2615375518798828,7.132166385650635
1701978679410308000,9.16930810546875,0.8865065574645996,0.7670950889587402,6.007871627807617
1701978679427286800,9.186286865234376,1.0880951881408691,1.425269603729248,5.085073471069336
1701978679444285700,9.20328564453125,0.3524441719055176,1.6090025901794434,4.9753031730651855
1701978679461276700,9.220276611328124,-0.7299985885620117,1.3056292533874512,4.447909832000732
1701978679478254600,9.237254638671875,-1.1097512245178223,1.5968804359436035,3.2399473190307617
1701978679495252700,9.254252685546875,-0.9789519309997559,2.173464298248291,2.545292377471924
1701978679512248600,9.27124853515625,-0.9813623428344727,2.4008092880249023,2.954009532928467
1701978679529236000,9.288236083984375,-0.6365504264831543,2.552022933959961,2.880436420440674
1701978679546224600,9.305224609375,0.1614060401916504,1.8651065826416016,2.1181845664978027
1701978679563215600,9.322215576171875,0.8881163597106934,1.7490887641906738,0.3698086738586426
1701978679580194000,9.339194091796875,1.4292001724243164,2.3548049926757812,-1.2784857749938965
1701978679597202400,9.356202392578124,0.7881994247436523,2.8209943771362305,-1.0821928977966309
1701978679614177500,9.373177490234376,-0.9164431095123291,3.180255889892578,1.0054068565368652
1701978679631178200,9.39017822265625,-3.1054635047912598,3.3532347679138184,3.336127281188965
1701978679648166400,9.40716650390625,-4.25100040435791,3.288858413696289,3.784961223602295
1701978679665154800,9.42415478515625,-4.010265350341797,3.066985607147217,2.5654783248901367
1701978679682143700,9.441143798828126,-3.3783090114593506,2.7809667587280273,1.2888908386230469
1701978679699134200,9.45813427734375,-2.9414236545562744,2.44187593460083,1.0936717987060547
1701978679716123400,9.475123291015626,-2.8422787189483643,1.92588472366333,2.267561435699463
1701978679733111600,9.492111572265625,-3.0793421268463135,1.867177963256836,4.226820945739746
1701978679750105600,9.509105712890625,-3.2467703819274902,2.0617685317993164,4.977555274963379
1701978679767093800,9.52609375,-2.8381550312042236,1.9502735137939453,3.9449095726013184
1701978679784080400,9.543080322265626,-1.9551875591278076,1.8915023803710938,2.347811698913574
1701978679801076200,9.560076171875,-1.353865623474121,1.7466797828674316,1.821533203125
1701978679818054000,9.577053955078124,-1.0325489044189453,1.7709908485412598,2.0273919105529785
1701978679835053600,9.594053466796876,-0.5080990791320801,1.8002424240112305,3.1397976875305176
1701978679852030500,9.611030517578126,-0.35655808448791504,2.1236190795898438,4.3237624168396
1701978679869021400,9.628021484375,0.12199640274047852,2.2545952796936035,4.939774513244629
1701978679886024700,9.645024658203125,0.9474897384643555,2.206517219543457,4.718722820281982
1701978679903009300,9.66200927734375,1.5274746417999268,2.1890463829040527,3.925546646118164
1701978679920006700,9.679006591796876,1.7416019439697266,2.2074856758117676,3.2692055702209473
1701978679936994800,9.695994873046875,1.3080170154571533,2.524442195892334,3.8716516494750977
1701978679953979000,9.712978759765624,0.8765716552734375,2.5885825157165527,5.0897932052612305
1701978679970974700,9.729974609375,1.4327173233032227,2.0330166816711426,4.569521427154541
1701978679987961000,9.746961181640625,2.5502569675445557,1.7384939193725586,3.028625965118408
1701978680004952000,9.7639521484375,3.5395255088806152,1.6544561386108398,1.9621658325195312
1701978680021940700,9.780940673828125,4.083148956298828,1.6037416458129883,1.479459285736084
1701978680038933000,9.79793310546875,4.457481384277344,1.6963376998901367,1.2294607162475586
1701978680055920400,9.81492041015625,5.187912940979004,1.4728364944458008,1.1475939750671387
1701978680072907300,9.8319072265625,5.825865268707275,1.1325397491455078,2.246239185333252
1701978680089894000,9.848893798828126,5.860227584838867,1.2037949562072754,3.3275766372680664
1701978680106891300,9.865891357421875,5.970907688140869,1.443223476409912,3.084068775177002
1701978680123862000,9.882862060546875,6.446349143981934,1.408921718597412,2.078767776489258
1701978680140873000,9.899873046875,6.804780006408691,1.3650691509246826,1.4169197082519531
1701978680157860000,9.916860107421876,6.889859199523926,1.26568603515625,1.424548625946045
1701978680174850300,9.933850341796875,6.507720470428467,0.9260878562927246,1.8054242134094238
1701978680191839200,9.950839111328126,5.68017578125,0.741187334060669,2.084193229675293
1701978680208827600,9.96782763671875,5.222162246704102,0.6962912082672119,1.5282254219055176
1701978680225810700,9.984810791015626,5.03734016418457,0.6397528648376465,0.8796210289001465
1701978680242798600,10.001798583984375,5.117137432098389,0.19298839569091797,0.5652613639831543
1701978680259791000,10.018791015625,5.36799430847168,-0.1916484832763672,0.3705267906188965
1701978680276781800,10.03578173828125,5.331103324890137,-0.49822330474853516,0.67864990234375
1701978680293772300,10.052772216796875,5.505372047424316,-0.5482683181762695,1.075690746307373
1701978680310764800,10.069764892578124,5.578041076660156,-0.7726154327392578,1.413679599761963
1701978680327758300,10.08675830078125,5.816515922546387,-1.127668857574463,1.0895843505859375
1701978680344738800,10.10373876953125,6.267750263214111,-1.294450283050537,0.4049711227416992
1701978680361738200,10.12073828125,6.343062400817871,-1.6186027526855469,0.14046001434326172
1701978680378729000,10.13772900390625,5.915786266326904,-1.897383689880371,0.24263763427734375
1701978680395718000,10.1547177734375,5.642396450042725,-2.0210046768188477,0.3102731704711914
1701978680412709000,10.171709228515626,5.384213924407959,-2.2194159030914307,0.35166358947753906
1701978680429697300,10.188697265625,5.214256763458252,-2.3338418006896973,0.05504417419433594
1701978680446688300,10.205688232421876,5.251220703125,-2.1720361709594727,-0.30637359619140625
1701978680463676200,10.22267626953125,4.576070785522461,-2.5057520866394043,-0.18848705291748047
1701978680480669200,10.239669189453124,4.053749084472656,-3.4690771102905273,0.3434896469116211
1701978680497653000,10.256653076171874,3.797888994216919,-3.953951835632324,0.4066324234008789
1701978680514648000,10.27364794921875,3.6490554809570312,-3.6221423149108887,-0.061473846435546875
1701978680531636700,10.29063671875,3.677635431289673,-3.5956838130950928,-0.21640396118164062
1701978680548627500,10.30762744140625,2.9579367637634277,-4.391834259033203,0.12669944763183594
1701978680565616400,10.324616455078125,2.216923236846924,-5.357208251953125,0.1455211639404297
1701978680582607000,10.341607177734375,2.0783169269561768,-6.291160583496094,0.11916351318359375
1701978680599596000,10.358595947265625,2.108457326889038,-6.171149253845215,0.0014123916625976562
1701978680616587300,10.375587158203125,1.816028356552124,-5.865681171417236,0.2630119323730469
1701978680633576000,10.392575927734375,0.8123353719711304,-6.247408866882324,1.3422794342041016
1701978680650566700,10.409566650390625,0.05517125129699707,-6.327149391174316,1.8035917282104492
1701978680667555600,10.4265556640625,-1.5633902549743652,-6.4468183517456055,1.3469438552856445
1701978680684546600,10.443546630859375,-1.9305527210235596,-6.4131059646606445,0.40236854553222656
1701978680701533000,10.460532958984375,-1.7482669353485107,-6.170307159423828,0.5423555374145508
1701978680718528800,10.47752880859375,-0.9503700733184814,-6.636295318603516,1.7249107360839844
1701978680735515400,10.494515380859376,-0.821544885635376,-6.831258296966553,3.1305694580078125
1701978680752506000,10.511506103515625,-0.1532425880432129,-6.914239883422852,2.8634653091430664
1701978680769483800,10.52848388671875,0.4924982786178589,-7.039505958557129,1.251312255859375
1701978680786475800,10.545475830078125,-0.06886160373687744,-6.584347248077393,-0.1667003631591797
1701978680803473000,10.562472900390626,-1.4785797595977783,-6.8153510093688965,0.054526329040527344
1701978680820462800,10.579462890625,-2.697213888168335,-6.390346527099609,0.7903785705566406
1701978680837441800,10.59644189453125,-3.9530162811279297,-5.7154388427734375,2.232419967651367
1701978680854439700,10.613439697265624,-4.140541076660156,-5.267246246337891,2.7908124923706055
1701978680871421400,10.63042138671875,-3.70176100730896,-5.1733622550964355,3.030035972595215
1701978680888415200,10.647415283203125,-2.930288076400757,-5.151608467102051,2.931004524230957
1701978680905408300,10.664408203125,-1.6683070659637451,-5.104568958282471,2.0732851028442383
1701978680922401000,10.681401123046875,-0.8014262914657593,-5.285918712615967,1.2675132751464844
1701978680939389700,10.6983896484375,-0.07943415641784668,-5.6203107833862305,1.3968477249145508
1701978680956377900,10.7153779296875,-0.08883142471313477,-5.661242485046387,1.4767189025878906
1701978680973362000,10.73236181640625,-0.23411178588867188,-5.758968830108643,1.4993600845336914
1701978680990356200,10.749356201171874,-0.07086122035980225,-5.243853569030762,1.0298700332641602
1701978681007341000,10.766341064453124,-0.16279864311218262,-5.155147552490234,0.6030254364013672
1701978681024341200,10.78334130859375,-0.07235896587371826,-5.334461212158203,0.747279167175293
1701978681041324800,10.80032470703125,-0.3571425676345825,-5.331927299499512,0.5660610198974609
1701978681058313000,10.81731298828125,-0.11258411407470703,-4.845880508422852,-0.4195518493652344
1701978681075308000,10.83430810546875,0.4367516040802002,-4.35391902923584,-0.9897089004516602
1701978681092297500,10.85129736328125,1.4202107191085815,-3.9159996509552,-0.679779052734375
1701978681109284400,10.868284423828126,2.050644874572754,-3.7034809589385986,0.26056480407714844
1701978681126270700,10.885270751953126,1.963380217552185,-3.7359485626220703,0.9686832427978516
1701978681143274200,10.902274169921874,2.267547369003296,-3.346015453338623,0.23268985748291016
1701978681160262700,10.9192626953125,2.14809250831604,-2.9000651836395264,-0.6559257507324219
1701978681177246200,10.93624609375,1.4877090454101562,-2.5850670337677,-0.9263763427734375
1701978681194242600,10.95324267578125,1.376176118850708,-3.250065326690674,-0.7388391494750977
1701978681211231500,10.9702314453125,2.8701133728027344,-3.4280388355255127,-0.8593606948852539
1701978681228220400,10.987220458984375,3.3328933715820312,-2.3549845218658447,-1.525146484375
1701978681245211000,11.0042109375,2.8399710655212402,-1.544121265411377,-1.8239006996154785
1701978681262211000,11.021211181640625,1.943023920059204,-1.3406925201416016,-1.6814560890197754
1701978681279184000,11.038183837890625,1.3316903114318848,-1.4542522430419922,-1.639951229095459
1701978681296178200,11.05517822265625,1.7115395069122314,-1.9120330810546875,-1.5494818687438965
1701978681313171700,11.072171630859375,2.4697701930999756,-2.097966194152832,-1.6750588417053223
1701978681330164000,11.0891640625,4.256275177001953,-1.446101188659668,-1.6755576133728027
1701978681347142400,11.106142333984375,4.978555679321289,-1.0160551071166992,-1.3280558586120605
1701978681364139300,11.12313916015625,5.313270568847656,-1.251779556274414,-0.4918994903564453
1701978681381132300,11.14013232421875,5.381842136383057,-1.2918939590454102,-0.5255184173583984
1701978681398121000,11.157120849609376,5.514413833618164,-1.1552801132202148,-0.9131007194519043
1701978681415109600,11.174109619140625,5.645765781402588,-1.342686653137207,-0.9036331176757812
1701978681432100600,11.1911005859375,6.1380157470703125,-1.0905323028564453,-0.6804714202880859
1701978681449089500,11.208089599609375,6.745620250701904,-0.9071965217590332,-0.004762172698974609
1701978681466070300,11.2250703125,7.1909589767456055,-1.1219892501831055,1.1062283515930176
1701978681483066600,11.242066650390624,7.356129169464111,-0.909085750579834,1.6075081825256348
1701978681500062500,11.2590625,7.014118671417236,-0.2434830665588379,1.3010754585266113
1701978681517038600,11.27603857421875,6.005736351013184,-0.20787668228149414,1.1034116744995117
1701978681534037500,11.29303759765625,5.413998603820801,-0.2948164939880371,1.4536519050598145
1701978681551031300,11.31003125,4.993758201599121,-0.3349761962890625,1.897404670715332
1701978681568019700,11.327019775390625,5.327160835266113,-0.036939144134521484,2.4707136154174805
1701978681585008400,11.34400830078125,5.474018096923828,0.5888967514038086,2.4273767471313477
1701978681601999600,11.36099951171875,5.42392635345459,0.9780645370483398,2.1308484077453613
1701978681618988000,11.377988037109375,5.371551036834717,1.122361183166504,1.864436149597168
1701978681635979300,11.394979248046875,5.240922451019287,1.1461920738220215,1.9723968505859375
1701978681652964400,11.41196435546875,4.610313415527344,1.0131630897521973,2.612423896789551
1701978681669962500,11.42896240234375,4.220182418823242,1.15879487991333,3.2679243087768555
1701978681686945300,11.4459453125,4.3904128074646,1.512864112854004,3.521209239959717
1701978681703939000,11.46293896484375,5.009965896606445,1.655095100402832,3.7563161849975586
1701978681720929800,11.4799296875,5.346521854400635,1.8728537559509277,3.8636136054992676
1701978681737911300,11.496911376953125,5.414845943450928,1.9158143997192383,3.788543224334717
1701978681754907100,11.5139072265625,4.771970748901367,1.60532808303833,4.02803897857666
1701978681771897900,11.53089794921875,3.8987374305725098,1.4757466316223145,5.0184478759765625
1701978681788887000,11.547886962890624,3.0542187690734863,1.406585693359375,5.498025894165039
1701978681805878000,11.5648779296875,2.563661813735962,0.8802709579467773,5.5168232917785645
1701978681822866200,11.5818662109375,2.6834921836853027,0.1700911521911621,5.457927703857422
1701978681839855000,11.598855224609375,2.955622911453247,-0.6653809547424316,5.230084419250488
1701978681856849200,11.61584912109375,3.1089913845062256,-0.8093271255493164,5.373239994049072
1701978681873837600,11.632837646484376,2.108708620071411,-0.7223997116088867,6.536484718322754
1701978681890826000,11.649825927734375,0.14096355438232422,-0.45217132568359375,7.8112406730651855
1701978681907817000,11.66681689453125,-0.7297954559326172,0.04969358444213867,6.398463726043701
1701978681924806100,11.68380615234375,-0.8204746246337891,0.021401405334472656,4.462700843811035
1701978681941796600,11.700796630859376,-1.0714573860168457,0.2423553466796875,2.9425888061523438
1701978681958775300,11.717775390625,-1.1028895378112793,0.5835890769958496,2.4663848876953125
1701978681975776800,11.73477685546875,-0.9183363914489746,1.347590446472168,2.3248109817504883
1701978681992764000,11.751763916015625,-1.073155403137207,1.821533203125,2.5613698959350586
1701978682009758200,11.76875830078125,-1.0245981216430664,1.326988697052002,2.6593985557556152
1701978682026745000,11.7857451171875,-0.6381797790527344,0.9825811386108398,2.2271242141723633
1701978682043736000,11.802736083984374,-0.6329541206359863,1.010572910308838,1.2674994468688965
1701978682060725000,11.81972509765625,-0.37658023834228516,1.5418496131896973,0.43261003494262695
1701978682077716000,11.836716064453125,-0.9583339691162109,2.1583876609802246,0.6518778800964355
1701978682094704600,11.85370458984375,-1.908581256866455,2.696242332458496,1.4060759544372559
1701978682111695600,11.870695556640625,-2.745553970336914,3.045602798461914,1.686598777770996
1701978682128684300,11.887684326171875,-3.7497687339782715,2.7925357818603516,2.341251850128174
1701978682145675000,11.904675048828125,-3.704404592514038,2.4509830474853516,2.5662364959716797
1701978682162664000,11.921663818359375,-3.439100980758667,2.0599851608276367,2.2717175483703613
1701978682179655000,11.938655029296875,-2.9237070083618164,2.041599750518799,1.8109359741210938
1701978682196643800,11.955643798828126,-3.21826434135437,2.7534523010253906,1.8966121673583984
1701978682213634800,11.972634765625,-4.048716068267822,3.001368999481201,2.1050806045532227
1701978682230623500,11.98962353515625,-4.583399772644043,3.0782251358032227,2.5023932456970215
1701978682247624400,12.00662451171875,-4.0077619552612305,2.822906970977783,2.905203342437744
1701978682264603400,12.023603271484374,-2.223756790161133,2.933149814605713,3.1357855796813965
1701978682281594400,12.040594482421875,-0.6437544822692871,2.7149572372436523,3.3721938133239746
1701978682298589200,12.057589111328125,0.7271080017089844,2.8075032234191895,3.7212905883789062
1701978682315574300,12.07457421875,1.2399070262908936,3.1419639587402344,3.6880412101745605
1701978682332563200,12.091563232421874,1.2279434204101562,3.43827486038208,3.6701531410217285
1701978682349554000,12.108553955078126,0.9038393497467041,3.654651641845703,3.980207920074463
1701978682366542800,12.12554296875,0.4123270511627197,3.6149439811706543,4.6838154792785645
1701978682383533300,12.142533203125,0.24674534797668457,3.299159526824951,4.967817306518555
1701978682400522200,12.159522216796875,1.4510133266448975,3.156006336212158,4.377678394317627
1701978682417510700,12.1765107421875,3.3790295124053955,3.0240373611450195,3.8781747817993164
1701978682434505000,12.1935048828125,4.881789207458496,3.1616625785827637,4.21451997756958
1701978682451493400,12.210493408203124,4.763700485229492,3.125436305999756,4.758304595947266
1701978682468482000,12.22748193359375,3.207521438598633,2.84121036529541,4.988546848297119
1701978682485472800,12.24447265625,2.1707582473754883,2.20424222946167,4.827310562133789
1701978682502462000,12.2614619140625,2.4294629096984863,2.038193702697754,4.065672874450684
1701978682519452700,12.27845263671875,2.6375436782836914,2.474127769470215,3.1094202995300293
1701978682536441600,12.295441650390625,3.1360421180725098,2.479188919067383,3.1071672439575195
1701978682553427500,12.312427490234375,3.5924668312072754,2.282299518585205,3.746795177459717
1701978682570421200,12.329421142578125,3.905770778656006,2.1385555267333984,4.220218181610107
1701978682587427800,12.346427734375,3.8822999000549316,1.786722183227539,4.630362033843994
1701978682604398600,12.363398681640625,3.8574466705322266,1.6104984283447266,4.516091823577881
1701978682621389600,12.3803896484375,3.447096109390259,1.6298308372497559,3.3320112228393555
1701978682638367700,12.39736767578125,3.714782953262329,1.3945021629333496,2.177927017211914
1701978682655374300,12.414374267578125,4.47797966003418,1.1426806449890137,1.8524560928344727
1701978682672358700,12.431358642578125,4.7462477684021,0.703951358795166,1.8521270751953125
1701978682689351400,12.448351318359375,4.798391819000244,0.4551839828491211,1.8790903091430664
1701978682706340400,12.46534033203125,4.637341499328613,0.35837411880493164,1.639249324798584
1701978682723331000,12.4823310546875,4.412426948547363,0.07169580459594727,1.0093779563903809
1701978682740320000,12.499320068359374,4.587003231048584,-0.23414850234985352,0.5366568565368652
1701978682757300500,12.516300537109375,4.959125518798828,-0.3374943733215332,0.15761899948120117
1701978682774299600,12.533299560546874,5.292430877685547,-0.5703253746032715,0.17752647399902344
1701978682791290600,12.55029052734375,5.629880905151367,-0.8925657272338867,0.3299236297607422
1701978682808266000,12.567265869140625,6.072193622589111,-1.1606659889221191,0.46779441833496094
1701978682825270800,12.584270751953126,5.917997360229492,-1.3639376163482666,0.9017057418823242
1701978682842259200,12.60125927734375,5.80445671081543,-1.4817585945129395,1.0018997192382812
1701978682859250200,12.618250244140626,5.703060150146484,-1.8550596237182617,1.1371307373046875
1701978682876239000,12.635239013671875,5.74224328994751,-2.0485568046569824,1.1915998458862305
1701978682893230000,12.65222998046875,6.1625823974609375,-2.323784828186035,1.4241952896118164
1701978682910218800,12.66921875,6.52154541015625,-2.5258243083953857,1.3854198455810547
1701978682927199200,12.68619921875,6.61969518661499,-2.9248881340026855,1.1500911712646484
1701978682944188200,12.703188232421875,6.65406608581543,-3.2618212699890137,0.9586429595947266
1701978682961192000,12.72019189453125,6.116607666015625,-3.157278537750244,0.9868497848510742
1701978682978178600,12.737178466796875,5.244688510894775,-3.2726857662200928,1.1870307922363281
1701978682995163600,12.75416357421875,4.53972053527832,-3.7447402477264404,1.6127614974975586
1701978683012158200,12.771158203125,3.897226333618164,-4.285293102264404,1.8398218154907227
1701978683029148700,12.788148681640624,3.8018789291381836,-4.6200995445251465,1.077754020690918
1701978683046126600,12.805126708984375,3.6414270401000977,-4.901949882507324,0.3445911407470703
1701978683063111700,12.822111572265625,3.1887383460998535,-4.996018409729004,-0.16067790985107422
1701978683080117800,12.83911767578125,1.6903712749481201,-4.7907938957214355,-0.5009088516235352
1701978683097093600,12.85609375,0.07820606231689453,-4.930662631988525,-0.1276226043701172
1701978683114097400,12.873097412109376,-0.8863167762756348,-5.4221391677856445,0.8622102737426758
1701978683131088600,12.890088623046875,-0.5023815631866455,-5.864710330963135,1.1254043579101562
1701978683148077300,12.907077392578126,0.3334062099456787,-5.971892833709717,0.42485618591308594
1701978683165068000,12.924068115234375,0.5733374357223511,-5.8469767570495605,-0.11389350891113281
1701978683182056700,12.941056640625,-0.40726423263549805,-6.054330825805664,-0.40900325775146484
1701978683199048000,12.9580478515625,-1.376065969467163,-6.017054557800293,-0.1679859161376953
1701978683216036600,12.97503662109375,-2.1020593643188477,-5.747625350952148,0.20322799682617188
1701978683233027600,12.992027587890625,-2.1761012077331543,-5.622950553894043,0.5758495330810547
1701978683250016500,13.0090166015625,-1.721998929977417,-5.96544885635376,0.8896255493164062
1701978683267005000,13.0260048828125,-1.8350634574890137,-6.247534275054932,0.9653759002685547
1701978683283999000,13.0429990234375,-1.3942279815673828,-6.391103267669678,0.6037168502807617
1701978683300987100,13.059987060546876,-0.8563764095306396,-6.5416998863220215,0.8572559356689453
1701978683317976000,13.07697607421875,-1.1866178512573242,-5.601783752441406,2.902920722961426
1701978683334972000,13.093971923828125,-3.085198402404785,-5.092370510101318,5.58447265625
1701978683351946500,13.110946533203125,-4.457962989807129,-5.297800064086914,5.219272613525391
1701978683368946700,13.12794677734375,-2.958137035369873,-5.820781230926514,2.524524688720703
1701978683385935400,13.144935302734375,-0.06807065010070801,-6.127569675445557,1.0849103927612305
1701978683402926300,13.16192626953125,2.422384023666382,-6.225735664367676,1.471536636352539
1701978683419915300,13.178915283203125,2.906949996948242,-6.7388153076171875,2.5314369201660156
1701978683436906000,13.195906005859374,1.013563871383667,-7.030498504638672,2.995547294616699
1701978683453884400,13.212884521484375,-0.6784493923187256,-6.560524940490723,1.60211181640625
1701978683470886100,13.22988623046875,-1.124502420425415,-5.722812175750732,0.28734493255615234
1701978683487874800,13.246874755859375,-0.5846328735351562,-5.744765281677246,-0.029135704040527344
1701978683504864000,13.263864013671874,1.138863205909729,-5.753210067749023,0.16347789764404297
1701978683521857300,13.280857177734376,2.634133815765381,-6.112349510192871,0.5936956405639648
1701978683538834200,13.297834228515624,3.15553617477417,-5.793752670288086,0.6216459274291992
1701978683555816000,13.31481591796875,2.8317325115203857,-5.223437309265137,0.5413007736206055
1701978683572814600,13.331814697265624,2.4442648887634277,-4.528765678405762,0.3430194854736328
1701978683589814000,13.34881396484375,1.8875242471694946,-3.926302433013916,0.8589982986450195
1701978683606794200,13.365794189453124,0.7503963708877563,-4.3057541847229,2.2334089279174805
1701978683623794000,13.3827939453125,0.2883545160293579,-4.592375755310059,2.285869598388672
1701978683640785000,13.399784912109375,1.1893565654754639,-4.30613899230957,0.5758953094482422
1701978683657773800,13.41677392578125,2.7809667587280273,-3.3469173908233643,-0.9289007186889648
1701978683674764500,13.4337646484375,3.8115592002868652,-2.7043607234954834,-1.0417499542236328
1701978683691750700,13.450750732421875,3.827955722808838,-2.686541795730591,0.24733924865722656
1701978683708744200,13.467744140625,2.6099250316619873,-2.966675043106079,1.8794784545898438
1701978683725725200,13.48472509765625,2.3718035221099854,-2.854848623275757,1.5199251174926758
1701978683742711800,13.5017119140625,3.152266263961792,-2.3092570304870605,0.2532920837402344
1701978683759702800,13.518702880859376,3.625972032546997,-1.5362436771392822,-0.42463111877441406
1701978683776693200,13.535693359375,3.218226909637451,-0.9729843139648438,-0.1426219940185547
1701978683793684200,13.552684326171875,2.335610866546631,-1.1251497268676758,-0.27423095703125
1701978683810681300,13.569681396484375,1.7401964664459229,-0.86431884765625,-0.6763277053833008
1701978683827664100,13.5866640625,1.1229453086853027,-0.5314502716064453,-0.7906675338745117
1701978683844663600,13.60366357421875,1.5644882917404175,-0.27651023864746094,-0.4289212226867676
1701978683861650200,13.620650146484374,2.218057870864868,-0.6231822967529297,0.5049276351928711
1701978683878645200,13.637645263671875,3.326744794845581,-1.2796125411987305,1.0749907493591309
1701978683895632100,13.654632080078125,4.629637718200684,-1.5974483489990234,0.7251105308532715
1701978683912620300,13.671620361328126,5.783260822296143,-1.6045584678649902,0.3038029670715332
1701978683929614600,13.688614501953126,6.6968183517456055,-1.4244942665100098,-0.07310056686401367
1701978683946600200,13.70560009765625,7.192019462585449,-1.647334098815918,-0.11466598510742188
1701978683963588900,13.7225888671875,7.795037269592285,-1.5708260536193848,-0.15733623504638672
1701978683980585000,13.7395849609375,8.61893367767334,-0.8784165382385254,-0.07113075256347656
1701978683997571300,13.7565712890625,8.520256996154785,-0.37905168533325195,0.388948917388916
1701978684014562600,13.7735625,8.154149055480957,0.0010957717895507812,0.8959784507751465
1701978684031551000,13.790551025390625,7.545392036437988,0.06275224685668945,1.295267105102539
1701978684048542200,13.807542236328125,7.000500679016113,-0.023774147033691406,1.7210440635681152
1701978684065531000,13.82453076171875,6.637984752655029,0.24024009704589844,1.8071894645690918
1701978684082520300,13.841520263671875,6.059580326080322,0.5524539947509766,2.07183837890625
1701978684099512000,13.858511962890624,5.769288539886475,0.991335391998291,2.551661968231201
1701978684116501800,13.875501708984375,5.586684703826904,1.2437787055969238,3.306316375732422
1701978684133490400,13.892490478515626,5.30283260345459,1.5558929443359375,3.6092000007629395
1701978684150481200,13.909481201171875,4.994913578033447,1.8663439750671387,3.2098469734191895
1701978684167459800,13.9264599609375,4.504030704498291,2.1133065223693848,2.306778907775879
1701978684184461300,13.94346142578125,4.380018711090088,2.2431836128234863,2.078089714050293
1701978684201447400,13.960447509765626,4.19235372543335,2.190680503845215,2.7606124877929688
1701978684218443800,13.97744384765625,3.9379472732543945,2.0651416778564453,4.403619289398193
1701978684235430000,13.994429931640624,3.7193071842193604,1.8730010986328125,5.0900726318359375
1701978684252419000,14.011419189453125,3.8821539878845215,1.9131994247436523,4.74084997177124
1701978684269400000,14.028400146484374,3.099846839904785,1.6655306816101074,3.976283550262451
1701978684286388700,14.045388671875,2.5959067344665527,0.9120736122131348,3.6748476028442383
1701978684303379500,14.06237939453125,1.7866322994232178,0.12960338592529297,4.342942237854004
1701978684320378000,14.079378173828125,0.5662822723388672,0.11396646499633789,5.785887241363525
1701978684337358000,14.096358154296874,-1.3426480293273926,-0.2328324317932129,7.5086259841918945
1701978684354352400,14.113352294921874,-1.9115734100341797,-0.0673213005065918,5.857853412628174
1701978684371337700,14.130337646484374,-1.0038156509399414,1.0661816596984863,3.1209311485290527
1701978684388338400,14.14733837890625,-0.15182065963745117,0.988490104675293,3.591757297515869
1701978684405324300,14.16432421875,-0.16829967498779297,0.7263021469116211,4.944087982177734
1701978684422315500,14.1813154296875,-0.09891080856323242,0.6693110466003418,4.956079959869385
1701978684439306000,14.198305908203125,-0.030350208282470703,0.43894481658935547,3.3893065452575684
1701978684456289800,14.215289794921874,0.18085241317749023,0.5604977607727051,1.6120948791503906
1701978684473282600,14.232282470703124,-0.5178179740905762,0.5374016761779785,0.4688401222229004
1701978684490271000,14.24927099609375,-1.632143497467041,0.7429437637329102,-0.24647951126098633
1701978684507262000,14.266261962890624,-3.394587993621826,1.1468300819396973,0.1428384780883789
1701978684524255500,14.28325537109375,-4.718293190002441,1.8047003746032715,0.9822239875793457
1701978684541244200,14.300244140625,-5.277613639831543,2.6144156455993652,1.5145263671875
1701978684558231300,14.317231201171875,-4.799531936645508,2.7154550552368164,2.436767578125
1701978684575227100,14.33422705078125,-3.857595920562744,2.379502296447754,2.4723496437072754
1701978684592206600,14.35120654296875,-2.5674314498901367,2.1342101097106934,2.118288278579712
1701978684609204700,14.368204833984375,-2.2711005210876465,1.804774284362793,3.060305118560791
1701978684626187800,14.385187744140625,-2.166926383972168,1.75205659866333,3.930830717086792
1701978684643184000,14.40218408203125,-1.6081390380859375,1.941225528717041,4.274738788604736
1701978684660180000,14.419179931640626,-0.9915070533752441,2.0269107818603516,4.652098178863525
1701978684677167000,14.4361669921875,-0.6071348190307617,2.05479097366333,5.281182289123535
1701978684694161000,14.453160888671874,0.017960548400878906,1.998906135559082,5.416571140289307
1701978684711144000,14.47014404296875,0.5072445869445801,1.952552318572998,4.616925239562988
1701978684728137700,14.4871376953125,0.8187720775604248,1.8923182487487793,3.3179397583007812
1701978684745126400,14.50412646484375,1.0425975322723389,1.8522272109985352,2.5976738929748535
1701978684762117400,14.521117431640626,0.8978133201599121,1.7702364921569824,2.973611831665039
1701978684779104500,14.5381044921875,0.7653627395629883,1.9089198112487793,3.991910457611084
1701978684796090400,14.55509033203125,0.5693368911743164,2.2170591354370117,4.586726665496826
1701978684813076000,14.572075927734375,0.8766994476318359,2.3744559288024902,4.407820224761963
1701978684830077200,14.5890771484375,1.901066780090332,2.329733371734619,3.9624037742614746
1701978684847065900,14.60606591796875,2.9253013134002686,2.0414905548095703,3.485318660736084
1701978684864056800,14.623056884765624,4.1565985679626465,1.8333187103271484,3.352574348449707
1701978684881045500,14.64004541015625,4.67685604095459,1.6456093788146973,3.6450157165527344
1701978684898036700,14.65703662109375,4.759101390838623,1.492422103881836,4.091545581817627
1701978684915022800,14.67402294921875,4.232960224151611,1.4590940475463867,4.505581378936768
1701978684932019200,14.691019287109375,3.5146498680114746,1.4960145950317383,4.139049053192139
1701978684949005300,14.70800537109375,3.416992664337158,1.0612668991088867,3.438253402709961
1701978684965985800,14.72498583984375,4.032871723175049,0.5659346580505371,2.7649898529052734
1701978684982985000,14.74198486328125,4.771135330200195,0.23652315139770508,2.0392189025878906
1701978684999976200,14.75897607421875,5.131589889526367,-0.36061763763427734,1.6802096366882324
1701978685016974600,14.775974609375,5.572662353515625,-0.6543693542480469,1.5102510452270508
1701978685033945600,14.792945556640625,5.529738426208496,-0.7638583183288574,1.380948543548584
1701978685050942000,14.80994189453125,4.768251419067383,-0.6120014190673828,1.3611030578613281
1701978685067938000,14.82693798828125,3.813868522644043,-0.35663414001464844,0.6342206001281738
1701978685084924700,14.843924560546874,3.9302031993865967,-0.659998893737793,-0.3213319778442383
1701978685101915400,14.860915283203125,4.507071495056152,-0.4436683654785156,-1.728668212890625
1701978685118904300,14.877904296875,4.676980972290039,-0.5221524238586426,-2.247000217437744
1701978685135891700,14.8948916015625,4.613104820251465,-0.6291322708129883,-2.3938841819763184
1701978685152873500,14.91187353515625,4.0111775398254395,-0.7357931137084961,-1.995481014251709
1701978685169875000,14.928875,3.2291181087493896,-0.8364238739013672,-1.9493212699890137
1701978685186853000,14.94585302734375,3.2183115482330322,-1.0210351943969727,-2.1074299812316895
1701978685203854800,14.962854736328126,3.812469244003296,-0.8810839653015137,-2.075458526611328
1701978685220843500,14.979843505859375,3.862072467803955,-0.6338677406311035,-1.8776483535766602
1701978685237834500,14.99683447265625,3.295778751373291,-0.8009767532348633,-0.9210352897644043
1701978685254823200,15.0138232421875,2.2043275833129883,-0.968590259552002,0.024610519409179688
1701978685271811600,15.0308115234375,1.874845266342163,-1.0378217697143555,0.14931583404541016
1701978685288806000,15.047805908203125,2.427556037902832,-1.253974199295044,-0.29834938049316406
1701978685305794000,15.0647939453125,3.1496448516845703,-1.4311091899871826,-0.9255986213684082
1701978685322783000,15.081782958984375,3.583649158477783,-1.6322548389434814,-0.9815120697021484
1701978685339774000,15.09877392578125,3.50105619430542,-1.9730901718139648,-0.6048479080200195
1701978685356763400,15.115763427734375,3.3830583095550537,-2.5493826866149902,-0.16932392120361328
1701978685373753600,15.132753662109375,3.244452476501465,-3.1182644367218018,0.0056133270263671875
1701978685390740500,15.149740478515625,3.082043170928955,-3.6104276180267334,0.4471778869628906
1701978685407735600,15.166735595703125,2.828519582748413,-3.925856828689575,1.0662717819213867
1701978685424722200,15.18372216796875,2.472965955734253,-4.377656936645508,1.1786394119262695
1701978685441710600,15.200710693359374,2.848118543624878,-4.795551300048828,0.9007282257080078
1701978685458704600,15.21770458984375,3.125626802444458,-5.100962162017822,0.6231451034545898
1701978685475682600,15.2346826171875,3.303431510925293,-4.889704704284668,0.02441883087158203
1701978685492661200,15.2516611328125,2.876002550125122,-5.0392231941223145,0.1289691925048828
1701978685509675500,15.268675537109376,1.643141269683838,-5.615841865539551,0.5741691589355469
1701978685526662100,15.285662109375,0.5858414173126221,-6.020535469055176,0.42101573944091797
1701978685543652900,15.30265283203125,0.033280372619628906,-5.371487140655518,-0.4697284698486328
1701978685560641800,15.319641845703124,-0.3952827453613281,-4.360725402832031,-0.9480047225952148
1701978685577632500,15.336632568359375,-0.662935733795166,-3.9339113235473633,-0.3206653594970703
1701978685594621700,15.35362158203125,-0.8582549095153809,-4.471157073974609,0.820012092590332
1701978685611601700,15.3706015625,-1.2317638397216797,-5.161211013793945,1.828709602355957
1701978685628604000,15.38760400390625,-1.4366490840911865,-5.758815765380859,1.5256271362304688
1701978685645591000,15.404591064453125,-1.810565710067749,-5.657329082489014,-0.2577075958251953
1701978685662579500,15.421579345703124,-1.3882288932800293,-5.553550720214844,-1.3260221481323242
1701978685679574300,15.43857421875,-1.2054345607757568,-5.050004959106445,-0.7959966659545898
1701978685696550100,15.455550048828124,-1.2376384735107422,-4.914456367492676,1.3032941818237305
1701978685713551600,15.472551513671876,-1.8257956504821777,-5.090564250946045,3.3299922943115234
1701978685730538000,15.4895380859375,-1.5169498920440674,-5.0473785400390625,3.5065040588378906
1701978685747534000,15.5065341796875,-1.4039933681488037,-5.183864593505859,2.4713001251220703
1701978685764520200,15.523520263671875,-0.7586574554443359,-5.787364959716797,1.8249359130859375
1701978685781511200,15.54051123046875,0.012714385986328125,-6.190336227416992,1.461522102355957
1701978685798500000,15.5575,0.39867985248565674,-6.368884086608887,1.3575429916381836
1701978685815491000,15.574490966796875,0.30051708221435547,-6.1424946784973145,1.519129753112793
1701978685832477700,15.591477783203125,-0.27498888969421387,-5.999630928039551,1.751490592956543
1701978685849473000,15.60847314453125,-1.0685367584228516,-6.0690507888793945,2.032444953918457
1701978685866459600,15.625459716796875,-0.8650784492492676,-6.12462043762207,1.848562240600586
1701978685883450600,15.64245068359375,-0.11180281639099121,-6.40966796875,1.5479660034179688
1701978685900439300,15.659439208984375,1.1244277954101562,-6.596423625946045,1.4022855758666992
1701978685917430500,15.676430419921875,1.6876912117004395,-6.251533031463623,1.226027488708496
1701978685934419500,15.69341943359375,1.3255261182785034,-6.3909454345703125,1.2718181610107422
1701978685951407600,15.71040771484375,1.0275129079818726,-6.482582092285156,0.9608621597290039
1701978685968401700,15.727401611328125,1.2385871410369873,-6.2405242919921875,0.5562143325805664
1701978685985390000,15.74439013671875,0.8989428281784058,-5.850766181945801,0.6136035919189453
1701978686002379000,15.76137890625,0.400898814201355,-5.471230983734131,0.9022293090820312
1701978686019370000,15.778369873046875,0.038828253746032715,-5.027120113372803,0.4164571762084961
1701978686036358700,15.795358642578124,-0.16880369186401367,-4.6720123291015625,-0.04397296905517578
1701978686053349400,15.812349365234375,0.1933666467666626,-4.4952778816223145,-0.4057168960571289
1701978686070338600,15.829338623046874,1.0936837196350098,-3.9440650939941406,-0.6749439239501953
1701978686087315700,15.846315673828125,1.5948045253753662,-3.343801259994507,-0.4989442825317383
1701978686104318200,15.863318115234375,1.3700813055038452,-3.056884527206421,0.1652517318725586
1701978686121309200,15.88030908203125,1.7618356943130493,-2.7607650756835938,1.1541099548339844
1701978686138298000,15.897298095703125,2.0722479820251465,-2.3541507720947266,1.2613353729248047
1701978686155289000,15.9142890625,2.498655319213867,-1.965787410736084,0.9314441680908203
1701978686172278000,15.931278076171875,2.562941312789917,-1.8503670692443848,0.5754585266113281
1701978686189252000,15.948252197265624,2.908714532852173,-1.8436555862426758,0.24355220794677734
1701978686206258000,15.9652578125,3.267029047012329,-1.8746414184570312,0.7306137084960938
1701978686223236600,15.982236572265625,4.253907680511475,-1.6289176940917969,1.3337059020996094
1701978686240228600,15.999228515625,5.1928510665893555,-0.5278573036193848,1.6493539810180664
1701978686257230800,16.01623095703125,5.088554859161377,0.4087862968444824,1.638442039489746
1701978686274217200,16.03321728515625,4.396279811859131,0.9355754852294922,1.388319492340088
1701978686291208200,16.050208251953126,3.7508928775787354,1.533958911895752,1.0729284286499023
1701978686308197000,16.067197021484375,3.0843324661254883,1.4792051315307617,1.312145709991455
1701978686325181400,16.084181396484375,3.5024197101593018,1.5549883842468262,1.7308640480041504
1701978686342176300,16.10117626953125,3.9746532440185547,1.7214860916137695,1.807753562927246
1701978686359168500,16.11816845703125,4.632676601409912,1.5481362342834473,1.686159610748291
1701978686376156700,16.13515673828125,5.391705513000488,1.6076350212097168,0.9892005920410156
1701978686393148000,16.15214794921875,5.896579742431641,2.054492950439453,0.21907281875610352
1701978686410136600,16.169136474609374,5.601634979248047,2.4044933319091797,0.005023956298828125
1701978686427127600,16.18612744140625,4.963542461395264,2.3686819076538086,0.5772433280944824
1701978686444116200,16.2031162109375,4.341825485229492,2.0695724487304688,1.6100635528564453
1701978686461107200,16.220107177734373,4.1642374992370605,2.211716651916504,1.8752532005310059
1701978686478096400,16.237096435546874,4.360563278198242,2.7439613342285156,1.6168313026428223
1701978686495084800,16.254084716796875,4.2314252853393555,2.9858312606811523,1.533432960510254
1701978686512075300,16.2710751953125,4.207779407501221,2.8178048133850098,1.3932561874389648
1701978686529069800,16.28806982421875,4.48121452331543,2.4593849182128906,1.7794427871704102
1701978686546045400,16.30504541015625,5.116714000701904,2.5883078575134277,2.324521541595459
1701978686563046400,16.32204638671875,5.207475185394287,2.9439475536346436,2.918397903442383
1701978686580048400,16.33904833984375,4.856017589569092,3.097233295440674,3.1259889602661133
1701978686597026600,16.356026611328126,4.652420997619629,3.3730721473693848,2.6979432106018066
1701978686614015500,16.373015380859375,4.150365829467773,3.322068691253662,2.8599853515625
1701978686631006200,16.390006103515624,3.6214447021484375,2.909144401550293,3.243783473968506
1701978686647995100,16.4069951171875,3.2857837677001953,2.8605775833129883,3.3145341873168945
1701978686664986400,16.423986328125,2.289116859436035,2.9838614463806152,2.967527389526367
1701978686681972200,16.44097216796875,1.5375208854675293,2.950338840484619,2.549513816833496
1701978686698968600,16.457968505859377,0.7050461769104004,2.7011051177978516,2.337545394897461
1701978686715944000,16.47494384765625,-0.08558320999145508,2.2551488876342773,2.7781496047973633
1701978686732946000,16.49194580078125,-1.2761421203613281,1.5194664001464844,3.687772750854492
1701978686749934300,16.508934326171875,-2.957693099975586,0.9802327156066895,4.158969879150391
1701978686766915000,16.5259150390625,-2.9910740852355957,0.7393198013305664,4.039783000946045
1701978686783904000,16.542904052734375,-1.7414517402648926,0.6254425048828125,4.028573989868164
1701978686800905500,16.559905517578127,-0.8418397903442383,0.4182868003845215,4.6264967918396
1701978686817894100,16.57689404296875,-0.4738945960998535,0.24240446090698242,5.297084808349609
1701978686834884900,16.593884765625,-0.6680235862731934,0.46381330490112305,4.310711860656738
1701978686851873800,16.610873779296874,-1.058800220489502,1.0338425636291504,2.419339895248413
1701978686868865000,16.627864990234375,-1.3943147659301758,1.7332124710083008,1.4444105625152588
1701978686885848300,16.644848388671875,-1.6170954704284668,1.5770606994628906,2.0643749237060547
1701978686902842000,16.661842041015625,-1.592846393585205,0.953554630279541,2.780949115753174
1701978686919835400,16.67883544921875,-1.2110605239868164,0.7204670906066895,2.593912363052368
1701978686936815000,16.695815185546873,-0.7132830619812012,1.1744718551635742,1.351363182067871
1701978686953813500,16.7128134765625,-0.44786548614501953,1.9324865341186523,0.9049885272979736
1701978686970804200,16.72980419921875,-1.214789867401123,2.1034340858459473,1.4907808303833008
1701978686987783000,16.746782958984376,-2.249619483947754,1.8902664184570312,2.6073086261749268
1701978687004773600,16.763773681640625,-2.7399654388427734,1.7676424980163574,2.780811309814453
1701978687021770800,16.780770751953124,-2.4669384956359863,2.0676369667053223,2.4013161659240723
1701978687038764000,16.797763916015626,-2.1783928871154785,2.275089740753174,2.3852875232696533
1701978687055755300,16.81475537109375,-1.6658568382263184,2.404345989227295,2.8390731811523438
1701978687072744000,16.831743896484376,-1.212440013885498,2.314176559448242,3.902498483657837
1701978687089732900,16.84873291015625,-0.80126953125,2.180215835571289,5.45240592956543
1701978687106719700,16.8657197265625,-0.3738393783569336,2.270659923553467,6.4353156089782715
1701978687123712800,16.882712646484375,-0.33783531188964844,2.281757354736328,6.075230598449707
1701978687140703500,16.899703369140624,-0.18352842330932617,2.156233310699463,4.901138782501221
1701978687157689900,16.91668994140625,-0.2247180938720703,1.93912935256958,3.9689908027648926
1701978687174675200,16.93367529296875,0.34299588203430176,1.818753719329834,3.640803098678589
1701978687191672600,16.950672607421875,0.9647934436798096,1.714604377746582,3.819077491760254
1701978687208663000,16.9676630859375,0.9403696060180664,1.5298199653625488,4.456122398376465
1701978687225647400,16.9846474609375,0.7008819580078125,1.5556678771972656,4.367105484008789
1701978687242640400,17.001640380859374,0.9231882095336914,1.924173355102539,3.8641357421875
1701978687259622000,17.018621826171874,0.5708198547363281,1.9785118103027344,3.7977476119995117
1701978687276612400,17.0356123046875,1.1819803714752197,1.5676188468933105,3.815835475921631
1701978687293608200,17.052608154296873,3.187534809112549,1.3033628463745117,3.921952724456787
1701978687310600700,17.0696005859375,4.5573859214782715,1.675673484802246,3.3879895210266113
1701978687327584500,17.08658447265625,5.271270751953125,1.5274066925048828,3.394927501678467
1701978687344583000,17.1035830078125,5.031346321105957,1.442899227142334,3.1354117393493652
1701978687361570300,17.1205703125,4.071117401123047,1.2399005889892578,2.837336540222168
1701978687378563300,17.137563232421876,3.1742265224456787,1.2667012214660645,2.328979015350342
1701978687395551200,17.15455126953125,2.864645481109619,1.2280669212341309,2.371647357940674
1701978687412540700,17.171540771484374,3.5846574306488037,0.91766357421875,2.678859233856201
1701978687429532000,17.188531982421875,4.40234375,0.7780051231384277,2.586338520050049
1701978687446528500,17.205528564453125,4.484971523284912,0.28577184677124023,2.273301124572754
1701978687463510500,17.222510498046876,4.195744037628174,-0.007903099060058594,1.4912128448486328
1701978687480501800,17.239501708984374,3.7763795852661133,-0.17394447326660156,0.8916749954223633
1701978687497480200,17.256480224609376,3.1259961128234863,-0.3155250549316406,0.47472143173217773
1701978687514481400,17.2734814453125,2.9886560440063477,-0.38724279403686523,0.21805381774902344
1701978687531467500,17.290467529296876,3.3827755451202393,-0.5189719200134277,0.0637354850769043
1701978687548463900,17.3074638671875,3.9760375022888184,-0.6921567916870117,0.1365346908569336
1701978687565450200,17.3244501953125,4.510858535766602,-0.770012378692627,0.12392616271972656
1701978687582438100,17.341438232421876,4.404961585998535,-0.988957405090332,0.1858673095703125
1701978687599432400,17.358432373046874,4.179230690002441,-1.0861353874206543,0.127044677734375
1701978687616410000,17.37541015625,4.189596652984619,-1.2357430458068848,0.016834259033203125
1701978687633408800,17.39240869140625,4.3225531578063965,-1.4880690574645996,-0.22397422790527344
1701978687650401800,17.40940185546875,4.541044235229492,-1.5315804481506348,-0.5340576171875
1701978687667389400,17.426389404296874,4.705493927001953,-1.3238303661346436,-0.7161140441894531
1701978687684380700,17.443380615234375,4.598331451416016,-1.276642084121704,-0.6193151473999023
1701978687701369300,17.460369384765624,4.274453163146973,-1.6160519123077393,-0.120330810546875
1701978687718360600,17.477360595703125,4.003563404083252,-2.065582752227783,0.23435306549072266
1701978687735349200,17.494349365234374,3.966010093688965,-2.2648167610168457,0.2908515930175781
1701978687752327700,17.51132763671875,3.303168773651123,-2.5013089179992676,0.18629169464111328
1701978687769324000,17.528323974609375,2.9282755851745605,-2.915195941925049,-0.23201847076416016
1701978687786312200,17.545312255859375,2.9544105529785156,-3.513409376144409,-0.5506410598754883
1701978687803303700,17.5623037109375,3.309968948364258,-3.8803439140319824,-0.7584867477416992
1701978687820294700,17.579294677734374,3.678091526031494,-4.109712600708008,-0.5368413925170898
1701978687837280000,17.596280029296874,3.026583671569824,-4.251814842224121,0.4140491485595703
1701978687854268700,17.6132685546875,2.098506212234497,-4.317843914031982,0.4359712600708008
1701978687871259400,17.63025927734375,1.6932117938995361,-4.554696083068848,-0.2520151138305664
1701978687888254000,17.64725390625,2.186575412750244,-4.802997589111328,-0.7524967193603516
1701978687905247000,17.6642470703125,2.3318421840667725,-4.755686283111572,0.03470802307128906
1701978687922237400,17.681237548828125,1.4993207454681396,-4.804903984069824,0.9515933990478516
1701978687939228700,17.698228759765627,0.6733971834182739,-4.951716423034668,1.0267009735107422
1701978687956208600,17.715208740234374,0.2631967067718506,-5.246228218078613,0.12665176391601562
1701978687973202200,17.7322021484375,-0.17899107933044434,-5.246514320373535,-1.1500968933105469
1701978687990198500,17.749198486328126,-0.18698322772979736,-4.925348281860352,-1.2428569793701172
1701978688007175200,17.766175048828124,-0.36467981338500977,-5.338356018066406,-0.5511312484741211
1701978688024176600,17.7831767578125,-0.7578204870223999,-5.488966941833496,0.6413860321044922
1701978688041157600,17.80015771484375,-2.0343267917633057,-5.636445045471191,1.7846107482910156
1701978688058150700,17.817150634765625,-3.224419355392456,-5.587225914001465,1.8157291412353516
1701978688075139600,17.8341396484375,-2.7886064052581787,-5.181874752044678,1.7725658416748047
1701978688092129800,17.8511298828125,-2.373425006866455,-4.969602584838867,1.9599056243896484
1701978688109119700,17.86811962890625,-2.0487067699432373,-5.1744279861450195,2.2144927978515625
1701978688126118100,17.8851181640625,-1.4530118703842163,-5.347071170806885,2.4960594177246094
1701978688143107300,17.902107421875,-1.293589472770691,-5.921745777130127,3.717893600463867
1701978688160097800,17.919097900390625,-1.566584587097168,-6.492352485656738,5.017134666442871
1701978688177087000,17.9360869140625,-2.164336681365967,-6.448223114013672,4.596512794494629
1701978688194075400,17.953075439453126,-2.565976619720459,-6.631524562835693,2.6683874130249023
1701978688211069400,17.9700693359375,-2.529818058013916,-7.201865196228027,0.4427509307861328
1701978688228045600,17.987045654296875,-1.5300155878067017,-7.497331619262695,-1.127242088317871
1701978688245046800,18.004046875,-0.3426949977874756,-7.625911712646484,-1.3728876113891602
1701978688262037500,18.02103759765625,0.6461041569709778,-7.056349754333496,-0.5270595550537109
1701978688279017500,18.038017578125,0.2696669101715088,-6.2137908935546875,1.4267044067382812
1701978688296017700,18.055017578125,-1.1083056926727295,-5.595198154449463,2.6098690032958984
1701978688313003800,18.072003662109374,-1.3496062755584717,-5.295581817626953,1.560114860534668
1701978688329999600,18.08899951171875,-0.8507472276687622,-5.283239364624023,0.06426143646240234
1701978688346986000,18.105986083984376,0.17470312118530273,-5.160470008850098,-0.6597919464111328
1701978688363966500,18.122966552734376,0.4441472291946411,-5.292975902557373,-0.5182647705078125
1701978688380966000,18.1399658203125,0.5484607815742493,-5.373533248901367,-0.0769338607788086
1701978688397954300,18.156954345703124,1.360661506652832,-5.289915084838867,0.9432086944580078
1701978688414945800,18.17394580078125,1.9594751596450806,-4.725128173828125,1.3586702346801758
1701978688431930600,18.1909306640625,1.7263153791427612,-4.108716011047363,0.6490707397460938
1701978688448925700,18.20792578125,2.0468673706054688,-3.963183879852295,-0.34136486053466797
1701978688465916700,18.224916748046876,2.3302507400512695,-3.5065197944641113,-1.3359899520874023
1701978688482916000,18.241916015625,2.2579917907714844,-2.8674285411834717,-1.8728466033935547
1701978688499894300,18.258894287109374,2.122415781021118,-2.4891815185546875,-1.4086689949035645
1701978688516887000,18.275886962890624,2.1194262504577637,-2.1863231658935547,-0.8607187271118164
1701978688533876200,18.292876220703125,2.2161333560943604,-1.8019423484802246,-0.5951128005981445
1701978688550857000,18.30985693359375,2.2303707599639893,-1.5231215953826904,-0.8317184448242188
1701978688567856000,18.326856201171875,2.0170202255249023,-1.2364659309387207,-1.6871981620788574
1701978688584844300,18.34384423828125,2.444702386856079,-0.7203776836395264,-2.3844523429870605
1701978688601836500,18.36083642578125,2.2284042835235596,-0.47115397453308105,-2.554586887359619
1701978688618822400,18.377822509765625,1.837712049484253,-0.5937941074371338,-1.9289836883544922
1701978688635818000,18.39481787109375,1.8861825466156006,-0.6560695171356201,-1.010810375213623
1701978688652794000,18.411794189453126,2.3504016399383545,-0.5468831062316895,-0.8030891418457031
1701978688669795600,18.428795654296874,2.986057758331299,-0.2960176467895508,-0.9700231552124023
1701978688686784500,18.445784423828126,3.0287301540374756,-0.16093730926513672,-1.121955394744873
1701978688703775200,18.462775146484375,3.0105385780334473,-0.29683971405029297,-0.5993432998657227
1701978688720764200,18.47976416015625,2.887845993041992,-0.3375520706176758,-0.12258434295654297
1701978688737755400,18.49675537109375,3.10884428024292,-0.2827291488647461,0.39948463439941406
1701978688754744000,18.513744140625,3.6762542724609375,0.12174081802368164,0.5368137359619141
1701978688771735000,18.530735107421876,4.2004313468933105,0.1806640625,0.5960555076599121
1701978688788724000,18.547723876953125,4.705545902252197,0.16632509231567383,0.6239480972290039
1701978688805715000,18.56471484375,5.060798645019531,0.03881406784057617,0.7093572616577148
1701978688822703900,18.581703857421875,5.249358177185059,-0.036106109619140625,0.5444765090942383
1701978688839694800,18.59869482421875,5.217730522155762,0.2701454162597656,0.32457971572875977
1701978688856683500,18.61568359375,4.976665496826172,0.28473806381225586,0.5039801597595215
1701978688873674500,18.632674560546874,5.228179454803467,0.3618435859680176,0.919827938079834
1701978688890659600,18.64965966796875,5.2936625480651855,0.46233320236206055,1.2761588096618652
1701978688907654400,18.666654296875,5.302116870880127,0.598808765411377,1.5896039009094238
1701978688924640500,18.683640625,4.871263027191162,0.9422163963317871,1.7760396003723145
1701978688941636900,18.700636962890623,4.710990905761719,1.2330808639526367,1.7535862922668457
1701978688958623000,18.717623046875,4.343618392944336,0.9795947074890137,1.9031295776367188
1701978688975614200,18.7346142578125,4.191564083099365,1.221696376800537,2.140608310699463
1701978688992603100,18.75160302734375,3.8659753799438477,1.3626832962036133,2.961333751678467
1701978689009593900,18.76859375,3.4044594764709473,1.6448392868041992,3.931563377380371
1701978689026580000,18.785580078125,3.0751307010650635,1.703470230102539,4.163420677185059
1701978689043570700,18.80257080078125,3.2780275344848633,1.781479835510254,3.4830856323242188
1701978689060565200,18.819565185546875,3.3671207427978516,1.8209996223449707,2.7463841438293457
1701978689077550300,18.83655029296875,2.956700325012207,1.9071764945983887,2.6886444091796875
1701978689094545700,18.853545654296877,2.3304269313812256,1.7520394325256348,3.9002022743225098
1701978689111526100,18.870526123046876,1.5236937999725342,1.5893855094909668,4.985608100891113
1701978689128522200,18.887522216796874,0.7783141136169434,1.347181797027588,5.323880195617676
1701978689145510400,18.904510498046875,0.26429319381713867,1.6301021575927734,4.639433860778809
1701978689162504400,18.92150439453125,0.10650777816772461,1.673600673675537,3.669769287109375
1701978689179492900,18.938492919921874,0.0339207649230957,1.11604642868042,3.615189552307129
1701978689196471300,18.95547119140625,0.07131147384643555,0.43140125274658203,4.697437286376953
1701978689213473000,18.97247314453125,-0.9560713768005371,0.35569286346435547,6.048543453216553
1701978689230462000,18.9894619140625,-1.5474114418029785,0.9580459594726562,4.947427749633789
1701978689247458300,19.006458251953124,-0.6845827102661133,2.1699185371398926,3.175424098968506
1701978689264438300,19.023438232421874,-0.32793617248535156,2.683114528656006,2.4680047035217285
1701978689281432300,19.040432373046876,-0.5501708984375,2.4116973876953125,2.9169507026672363
1701978689298421200,19.057421142578125,-1.512967586517334,1.6019682884216309,3.5760488510131836
1701978689315412500,19.07441259765625,-2.4027085304260254,1.3051881790161133,3.0014171600341797
1701978689332401400,19.0914013671875,-2.9058570861816406,1.4941482543945312,2.071063995361328
1701978689349389600,19.1083896484375,-3.077998638153076,1.6718330383300781,1.644113540649414
1701978689366380300,19.12538037109375,-2.589836597442627,1.6777844429016113,1.8774685859680176
1701978689383375600,19.142375732421876,-1.6579594612121582,1.5133113861083984,2.7120518684387207
1701978689400361000,19.15936083984375,-0.15063714981079102,1.6477704048156738,3.037461280822754
1701978689417352400,19.1763525390625,1.0862276554107666,1.9527020454406738,3.149486541748047
1701978689434342000,19.193341796875,1.4157044887542725,2.0866193771362305,3.457545280456543
1701978689451331800,19.210331787109375,0.8383078575134277,2.261721611022949,3.9199905395507812
1701978689468320800,19.22732080078125,-0.38946008682250977,2.3893303871154785,4.553792953491211
1701978689485311700,19.244311767578125,-1.1453394889831543,2.6322598457336426,4.818536281585693
1701978689502300700,19.26130078125,-0.8899731636047363,2.8703980445861816,4.431422710418701
1701978689519291100,19.278291015625,-0.3304452896118164,2.9451217651367188,4.074341773986816
1701978689536280000,19.295280029296876,0.32487916946411133,2.942368507385254,3.9155373573303223
1701978689553271600,19.312271484375,1.0409743785858154,3.1451783180236816,3.680697441101074
1701978689570260200,19.32926025390625,1.5662612915039062,3.2863929271698,4.515105724334717
1701978689587247000,19.3462470703125,1.5484936237335205,3.1753554344177246,5.479363441467285
1701978689604244000,19.363243896484374,1.875610113143921,3.0966732501983643,5.695076942443848
1701978689621231000,19.380231201171874,2.007054090499878,2.7535240650177,4.927433490753174
1701978689638220000,19.397219970703127,2.3016867637634277,2.146745204925537,3.7313051223754883
1701978689655211000,19.4142109375,3.234220504760742,1.5257129669189453,2.5108695030212402
1701978689672199700,19.43119970703125,4.248621940612793,1.0622668266296387,1.6578621864318848
1701978689689193200,19.448193115234375,4.72451114654541,0.6236429214477539,1.161353588104248
1701978689706179600,19.4651796875,4.835784435272217,0.41548633575439453,0.7676477432250977
1701978689723168000,19.48216796875,4.403399467468262,0.27094125747680664,0.6996183395385742
1701978689740161800,19.499161865234374,4.096007823944092,0.25147485733032227,0.5944805145263672
1701978689757150500,19.516150390625,3.7807610034942627,0.2837357521057129,0.0594487190246582
1701978689774139400,19.533139404296875,4.070476055145264,0.3303947448730469,-0.580845832824707
1701978689791130000,19.550130126953125,4.314134120941162,0.532160758972168,-0.8374929428100586
1701978689808119000,19.567119140625,4.092824935913086,0.623013973236084,-0.43437719345092773
1701978689825113900,19.58411376953125,3.088653564453125,0.5687532424926758,0.673102855682373
1701978689842094800,19.6010947265625,1.6734755039215088,0.5122165679931641,1.2129325866699219
1701978689859090200,19.618090087890625,1.1965606212615967,0.23192834854125977,0.6124086380004883
1701978689876078800,19.635078857421874,1.6438730955123901,0.024250030517578125,-0.5215587615966797
1701978689893069800,19.65206982421875,2.9971654415130615,-0.0596613883972168,-1.0022859573364258
1701978689910044400,19.66904443359375,3.6397974491119385,-0.4002866744995117,-0.834235668182373
1701978689927046700,19.686046630859376,4.093010425567627,-0.7753324508666992,-0.47452354431152344
1701978689944041000,19.703041015625,4.009933948516846,-1.224708080291748,0.27565956115722656
1701978689961029400,19.720029296875,3.3223814964294434,-1.44380521774292,0.18914222717285156
1701978689978018600,19.7370185546875,2.701418876647949,-1.625478982925415,-0.6368961334228516
1701978689995009500,19.754009521484374,3.101762294769287,-1.9942941665649414,-0.9333600997924805
1701978690011989000,19.770989013671876,3.6981682777404785,-1.8763608932495117,-0.9384956359863281
1701978690028989200,19.7879892578125,3.4453229904174805,-1.8756489753723145,-0.6873340606689453
1701978690045976300,19.804976318359376,3.3368892669677734,-1.8248381614685059,-0.4931011199951172
1701978690062970600,19.821970703125,2.791959047317505,-2.0684478282928467,-0.7543439865112305
1701978690079941000,19.838941162109375,2.520522117614746,-2.5999889373779297,-1.0135526657104492
1701978690096948000,19.855947998046876,3.204184055328369,-3.3563942909240723,-1.0622873306274414
1701978690113938000,19.87293798828125,3.9270639419555664,-3.3138391971588135,-1.5991487503051758
1701978690130928600,19.8899287109375,4.055272579193115,-3.1901071071624756,-1.7760767936706543
1701978690147917300,19.906917236328123,4.094927787780762,-3.1488122940063477,-1.723731517791748
1701978690164908500,19.923908447265624,3.285374164581299,-3.5329952239990234,-1.4201159477233887
1701978690181897200,19.940897216796873,2.336815595626831,-3.467663288116455,-1.5431103706359863
1701978690198888400,19.957888427734375,0.9118831753730774,-3.658353328704834,-1.6074228286743164
1701978690215877400,19.97487744140625,1.0697842836380005,-4.523192405700684,-0.5620193481445312
1701978690232868000,19.9918681640625,2.208522081375122,-4.17604398727417,-0.3709440231323242
1701978690249869000,20.008869140625,2.635831356048584,-4.2376017570495605,-0.2932243347167969
1701978690266848000,20.025847900390627,2.0630741119384766,-4.142938613891602,-0.2616138458251953
1701978690283826700,20.04282666015625,0.19140100479125977,-4.52553653717041,-0.16615867614746094
1701978690300828000,20.059827880859373,-0.9024766683578491,-4.688780307769775,-0.7399587631225586
1701978690317814300,20.076814208984374,-1.0426793098449707,-4.809296607971191,-1.4997272491455078
1701978690334810400,20.093810302734376,-0.16192245483398438,-4.31888484954834,-2.145259380340576
1701978690351796700,20.110796630859376,0.21399128437042236,-3.8349103927612305,-1.2666816711425781
1701978690368787700,20.12778759765625,-0.9877901077270508,-3.621943950653076,0.6390314102172852
1701978690385776400,20.1447763671875,-1.678682804107666,-4.186127662658691,2.0787906646728516
1701978690402767600,20.161767578125,-2.325901985168457,-4.293089866638184,2.367725372314453
1701978690419756500,20.178756591796876,-1.9700589179992676,-4.107243537902832,2.3531312942504883
1701978690436747500,20.19574755859375,-2.310059070587158,-4.321136474609375,1.8353662490844727
1701978690453736400,20.212736328125,-2.070988178253174,-4.973234176635742,0.9232387542724609
1701978690470730200,20.229730224609376,-1.9924988746643066,-5.710018157958984,1.0444822311401367
1701978690487713300,20.24671337890625,-1.0147171020507812,-5.864148139953613,1.3730354309082031
1701978690504709600,20.263709716796875,-1.262596607208252,-6.140068054199219,1.8282890319824219
1701978690521696300,20.2806962890625,-1.8566033840179443,-6.2751336097717285,1.923182487487793
1701978690538687000,20.29768701171875,-1.9384407997131348,-6.209011077880859,1.2711782455444336
1701978690555676000,20.314676025390625,-1.4137897491455078,-6.381192207336426,1.2456893920898438
1701978690572667000,20.3316669921875,-0.6401093006134033,-6.5985636711120605,1.2332839965820312
1701978690589655800,20.34865576171875,-0.32574498653411865,-6.675945281982422,1.3502960205078125
1701978690606646800,20.365646728515625,-0.5848138332366943,-6.965926647186279,1.0865201950073242
1701978690623635200,20.38263525390625,-0.6459017992019653,-7.087800979614258,0.6033687591552734
1701978690640626700,20.399626708984375,-0.4861443042755127,-6.855768203735352,0.2700309753417969
1701978690657615400,20.416615478515624,-0.03956151008605957,-6.438479423522949,0.1384601593017578
1701978690674606300,20.4336064453125,0.3248937129974365,-6.068665504455566,0.561553955078125
1701978690691584800,20.450584716796875,-0.08487081527709961,-5.928223609924316,1.5585355758666992
1701978690708586000,20.4675859375,-0.1875765323638916,-5.923454284667969,1.6732254028320312
1701978690725571000,20.484571044921875,0.6634111404418945,-5.875997543334961,0.9349288940429688
1701978690742566100,20.501566162109373,1.5860607624053955,-5.377756118774414,0.15696239471435547
1701978690759542300,20.518542236328123,1.793431043624878,-4.805759429931641,0.02528858184814453
1701978690776536000,20.5355361328125,0.5800184011459351,-4.666893005371094,0.42868804931640625
1701978690793530000,20.552530029296875,-0.07567322254180908,-4.2273054122924805,0.36021900177001953
1701978690810516000,20.569515869140623,-0.24454474449157715,-3.973440647125244,-0.06725120544433594
1701978690827510000,20.586510009765625,0.4960530996322632,-3.977599620819092,-0.3304166793823242
1701978690844508200,20.603508056640624,1.3933333158493042,-3.659207582473755,-0.5596113204956055
1701978690861494300,20.620494384765625,1.884092092514038,-3.1398370265960693,-0.7703790664672852
1701978690878479600,20.637479736328125,2.2735681533813477,-2.451894998550415,-1.013702392578125
1701978690895474200,20.65447412109375,2.1363275051116943,-1.9882678985595703,-0.8104419708251953
1701978690912462800,20.671462890625,2.1860971450805664,-1.6513638496398926,-0.5365467071533203
1701978690929456600,20.68845654296875,2.590831756591797,-1.4839401245117188,-0.10067081451416016
1701978690946459100,20.705459228515625,3.157059669494629,-1.2109360694885254,-0.007124900817871094
1701978690963431200,20.72243115234375,4.093718528747559,-0.6896476745605469,-0.15915298461914062
1701978690980425000,20.739425048828124,4.505238056182861,-0.3062753677368164,0.06767749786376953
1701978690997414000,20.756413818359373,4.461925983428955,0.004785060882568359,0.5633430480957031
1701978691014405000,20.773405029296875,4.174506664276123,0.43210649490356445,0.8505887985229492
1701978691031392000,20.79039208984375,4.054421424865723,1.1279020309448242,1.0656366348266602
1701978691048384800,20.807384765625,3.6258604526519775,1.7252795696258545,0.9904146194458008
1701978691065373700,20.824373779296874,2.8951985836029053,2.157412052154541,0.6611027717590332
1701978691082364700,20.84136474609375,2.0947978496551514,2.3194308280944824,0.4590592384338379
1701978691099353300,20.858353271484376,1.5191872119903564,2.4097161293029785,0.36046791076660156
1701978691116343300,20.87534326171875,1.042747139930725,2.6923391819000244,-0.17554759979248047
1701978691133332200,20.892332275390626,0.8938241004943848,3.1609885692596436,-0.5569443702697754
1701978691150326300,20.909326171875,0.8521453142166138,3.6702544689178467,-0.8046274185180664
1701978691167323400,20.926323486328126,1.220144510269165,3.735804557800293,-0.45293378829956055
1701978691184307000,20.943306884765626,1.7172638177871704,3.745694160461426,0.07238149642944336
1701978691201293300,20.960293212890626,2.208284378051758,3.863415479660034,0.5013656616210938
1701978691218284300,20.9772841796875,2.377776861190796,3.8716647624969482,0.9567198753356934
1701978691235272700,20.994272705078124,2.696749210357666,3.9081966876983643,1.0389676094055176
1701978691252253000,21.0112529296875,3.363703966140747,3.75215220451355,0.8480019569396973
1701978691269241000,21.028240966796876,4.936481475830078,3.4888298511505127,0.9497990608215332
1701978691286237700,21.04523779296875,5.787471771240234,3.171395778656006,2.15573787689209
1701978691303229700,21.062229736328124,4.958122253417969,3.4084672927856445,2.895808696746826
1701978691320222200,21.07922216796875,3.8499796390533447,3.2004852294921875,2.722689628601074
1701978691337201000,21.096200927734376,3.0368380546569824,3.5480637550354004,1.2624688148498535
1701978691354186000,21.11318603515625,1.854812741279602,3.5658535957336426,0.4614858627319336
1701978691371183000,21.13018310546875,1.0428175926208496,3.4744999408721924,0.8053746223449707
1701978691388181200,21.14718115234375,0.49678564071655273,2.7525181770324707,2.0952744483947754
1701978691405172700,21.1641728515625,0.05799269676208496,2.3395800590515137,3.095179557800293
1701978691422162400,21.181162353515624,0.28566980361938477,1.8309416770935059,3.0606818199157715
1701978691439140600,21.198140625,0.9530630111694336,1.8379855155944824,2.354495048522949
1701978691456141800,21.215141845703126,0.9161708354949951,1.7870512008666992,2.4381656646728516
1701978691473126100,21.232126220703126,0.2868373394012451,1.3994145393371582,3.2892560958862305
1701978691490120400,21.249120361328124,-1.0183310508728027,0.6644377708435059,4.1715192794799805
1701978691507100200,21.26610009765625,-1.6611790657043457,-0.0785822868347168,4.620021343231201
1701978691524102100,21.28310205078125,-1.5957624912261963,-0.3830604553222656,4.375582218170166
1701978691541084000,21.300083984375,-1.016840934753418,-0.5058870315551758,3.524444103240967
1701978691558078000,21.317077880859376,-0.275296688079834,-0.027235031127929688,1.8112006187438965
1701978691575060500,21.334060546875,-0.514324426651001,0.4302024841308594,1.3532042503356934
1701978691592052000,21.351052001953125,-1.8621306419372559,1.2204399108886719,2.068863868713379
1701978691609051600,21.3680517578125,-3.3375816345214844,2.0944108963012695,3.2522926330566406
1701978691626045200,21.385045166015626,-4.13596248626709,2.419132709503174,4.802107334136963
1701978691643031300,21.40203125,-3.207212209701538,2.872608184814453,5.019225597381592
1701978691660022500,21.4190224609375,-2.1817102432250977,2.2604470252990723,4.136808395385742
1701978691677011200,21.43601123046875,-0.9991059303283691,1.0562806129455566,2.589594841003418
1701978691694002200,21.453002197265626,-0.5307832956314087,0.6791338920593262,0.9565386772155762
1701978691710991000,21.4699912109375,-1.3222705125808716,0.8944921493530273,0.2900528907775879
1701978691727982000,21.486982177734376,-2.768641948699951,1.1802330017089844,1.2307090759277344
1701978691744970800,21.503970703125,-4.292379379272461,1.5276737213134766,2.5625767707824707
1701978691761961700,21.520961669921874,-4.874874114990234,1.8217229843139648,3.1181063652038574
1701978691778950700,21.53795068359375,-4.452742576599121,2.1682300567626953,2.310230255126953
1701978691795942000,21.55494189453125,-3.327702283859253,2.2783632278442383,1.7651305198669434
1701978691812930600,21.5719306640625,-2.084477663040161,2.1803579330444336,1.9049906730651855
1701978691829921000,21.588921142578126,-1.4769827127456665,1.8498120307922363,2.691554069519043
1701978691846911000,21.605910888671875,-1.2887119054794312,1.7171754837036133,4.275235652923584
1701978691863891000,21.622890869140626,-1.0300183296203613,2.3624157905578613,4.862222671508789
