time,seconds_elapsed,z,y,x
1702058804107296300,0.051296142578125,-1.3176363706588745,-1.0250319242477417,-0.9013316631317139
1702058804123986400,0.067986328125,-1.6957619190216064,-1.5097534656524658,-0.950506329536438
1702058804140836600,0.084836669921875,-1.8790215253829956,-1.9040669202804565,-1.1774427890777588
1702058804157831200,0.1018310546875,-1.8842138051986694,-1.6250542402267456,-1.5360206365585327
1702058804174826800,0.11882666015625,-1.6525431871414185,-0.6050620079040527,-1.8368717432022095
1702058804191816700,0.135816650390625,-1.0227410793304443,0.6110179424285889,-1.8078557252883911
1702058804208803000,0.152802978515625,-0.27977627515792847,1.758986473083496,-1.212720274925232
1702058804225804800,0.1698046875,-0.1612684279680252,1.7938058376312256,-0.38209620118141174
1702058804242784800,0.18678466796875,-0.5577199459075928,1.326341152191162,0.25045475363731384
1702058804259789300,0.203789306640625,-0.9056077003479004,0.6334672570228577,0.6569855809211731
1702058804276780500,0.220780517578125,-1.30801522731781,-2.0503692626953125,0.6415612101554871
1702058804293775600,0.237775634765625,-1.2832751274108887,-2.6416866779327393,0.8500189781188965
1702058804310770000,0.25477001953125,-1.0994046926498413,-2.291355609893799,0.7816020846366882
1702058804327760400,0.271760498046875,-0.9202684760093689,-0.9159924387931824,0.6436992287635803
1702058804344751900,0.288751953125,-0.7823656797409058,-0.36300668120384216,0.46761733293533325
1702058804361751800,0.305751708984375,-0.7728972434997559,-1.2515101432800293,0.15943582355976105
1702058804378740200,0.322740234375,-0.8518515825271606,-1.665065884590149,0.00366519158706069
1702058804395737900,0.33973779296875,-0.7996225953102112,-1.3431400060653687,0.04382958263158798
1702058804412719000,0.356718994140625,-0.4444044530391693,-1.0166324377059937,0.22876903414726257
1702058804429726000,0.373725830078125,0.12278391420841217,-1.1808024644851685,0.3462078869342804
1702058804446715400,0.39071533203125,0.5627595782279968,-2.258216142654419,0.27977627515792847
1702058804463711700,0.407711669921875,0.7783950567245483,-2.420095443725586,0.3929390609264374
1702058804480707000,0.42470703125,1.2780828475952148,-2.6119070053100586,0.5427537560462952
1702058804497696000,0.441696044921875,1.99752938747406,-2.194533348083496,0.7648032903671265
1702058804514691300,0.45869140625,2.6676485538482666,-1.427744746208191,0.9647089242935181
1702058804531687400,0.4756875,2.9162707328796387,-1.7460055351257324,1.0228939056396484
1702058804548677000,0.492677001953125,2.7734808921813965,-2.2059872150421143,1.0832167863845825
1702058804565674000,0.509674072265625,2.5810582637786865,-1.9926424026489258,1.0629055500030518
1702058804582665700,0.526665771484375,2.3884830474853516,-1.1756101846694946,0.9092729091644287
1702058804599659500,0.543659423828125,2.0031797885894775,-0.8443684577941895,0.8628471493721008
1702058804616654000,0.560654052734375,1.1606439352035522,-1.7023286819458008,1.0143417119979858
1702058804633647400,0.5776474609375,0.1108720451593399,-2.3742804527282715,1.475545048713684
1702058804650641700,0.5946416015625,-0.7137960195541382,-2.5842654705047607,1.9327776432037354
1702058804667632000,0.611632080078125,-1.207069754600525,-2.356412649154663,2.1591031551361084
1702058804684628200,0.628628173828125,-1.2385293245315552,-1.9518672227859497,2.3519840240478516
1702058804701624300,0.645624267578125,-1.1006264686584473,-1.9990564584732056,2.5357015132904053
1702058804718613500,0.662613525390625,-0.9558513760566711,-2.1395554542541504,2.5393667221069336
1702058804735601000,0.679600830078125,-0.9005680680274963,-2.8345675468444824,2.657569169998169
1702058804752597200,0.69659716796875,-1.279915452003479,-3.3310482501983643,2.877786159515381
1702058804769616400,0.713616455078125,-1.5699236392974854,-3.310889720916748,3.3406693935394287
1702058804786590000,0.73058984375,-1.796249270439148,-3.149468421936035,3.3521230220794678
1702058804803584000,0.747583984375,-2.0036380290985107,-2.953227996826172,2.612517833709717
1702058804820582400,0.76458251953125,-2.0925188064575195,-2.612823486328125,2.074651002883911
1702058804837563100,0.781563232421875,-1.8626807928085327,-1.7899879217147827,1.8306103944778442
1702058804854568400,0.798568359375,-1.2634220123291016,-0.8429940342903137,1.3312281370162964
1702058804871557000,0.81555712890625,-0.8567385077476501,-0.9108000993728638,0.8104654550552368
1702058804888549400,0.83254931640625,-0.9805914163589478,-1.747380018234253,0.7287622094154358
1702058804905549800,0.8495498046875,-1.2148582935333252,-1.517236590385437,0.5479460954666138
1702058804922534400,0.866534423828125,-1.125366449356079,-0.593302845954895,0.14676037430763245
1702058804939527400,0.88352734375,-0.9760099649429321,-0.1313360333442688,-0.24342979490756989
1702058804956527400,0.90052734375,-0.8448266386985779,-0.3061962127685547,-0.46822822093963623
1702058804973520000,0.917519775390625,-0.8295549750328064,-0.5306891798973083,-0.38667771220207214
1702058804990516000,0.934515869140625,-0.7638869881629944,-0.34437528252601624,-0.24327708780765533
1702058805007504100,0.951504150390625,-0.6633996367454529,-0.1670716404914856,-0.17180584371089935
1702058805024499700,0.968499755859375,-0.7263187766075134,-0.3597996234893799,-0.14569136500358582
1702058805041495000,0.9854951171875,-0.7609853744506836,-0.5858197808265686,-0.26801711320877075
1702058805058479000,1.00247900390625,-0.6858489513397217,-0.503963828086853,-0.38835757970809937
1702058805075485700,1.019485595703125,-0.4291328489780426,-0.25732699036598206,-0.29245173931121826
1702058805092464400,1.03646435546875,-0.2788599729537964,-0.2750420868396759,-0.1466076523065567
1702058805109465900,1.0534658203125,-0.37461310625076294,-0.5175555944442749,-0.1391245573759079
1702058805126451000,1.070450927734375,-0.5400048494338989,-0.7189884185791016,-0.3191770911216736
1702058805143454700,1.087454833984375,-0.5364924073219299,-0.9807441234588623,-0.44715335965156555
1702058805160450000,1.104449951171875,-0.40301835536956787,-1.2021827697753906,-0.5615378618240356
1702058805177440000,1.12143994140625,-0.22281309962272644,-0.8767443299293518,-0.294895201921463
1702058805194434600,1.1384345703125,-0.1840231567621231,-0.5885686874389648,0.11881329119205475
1702058805211431000,1.155430908203125,-0.2793181240558624,-0.5946773290634155,0.4156937897205353
1702058805228420400,1.17242041015625,-0.3859141170978546,-0.4599815309047699,0.4127921760082245
1702058805245417500,1.18941748046875,-0.4833471179008484,-0.47280970215797424,0.19593502581119537
1702058805262409000,1.206408935546875,-0.43707409501075745,-0.21578814089298248,0.16493362188339233
1702058805279401700,1.223401611328125,-0.3816380500793457,0.16203200817108154,0.28008171916007996
1702058805296398000,1.240398193359375,-0.4225660264492035,0.059864792972803116,0.3136793076992035
1702058805313390600,1.257390625,-0.4524984359741211,-0.3058907687664032,0.22357667982578278
1702058805330382300,1.27438232421875,-0.40714168548583984,-0.42638394236564636,0.1849394589662552
1702058805347378200,1.291378173828125,-0.31871894001960754,-0.14065171778202057,0.25442537665367126
1702058805364371500,1.308371337890625,-0.34666603803634644,0.34116822481155396,0.32620203495025635
1702058805381366800,1.32536669921875,-0.45891252160072327,0.4665483236312866,0.38011088967323303
1702058805398355200,1.342355224609375,-0.5062545537948608,0.2577851414680481,0.41111230850219727
1702058805415356000,1.35935595703125,-0.4761694669723511,0.11988230794668198,0.40072759985923767
1702058805432344000,1.376343994140625,-0.3669773042201996,0.15531249344348907,0.39996400475502014
1702058805449336800,1.3933369140625,-0.244804248213768,0.2538145184516907,0.37720927596092224
1702058805466322200,1.410322265625,-0.21288654208183289,0.37339138984680176,0.2733621895313263
1702058805483326700,1.42732666015625,-0.2929098904132843,0.3491095006465912,0.18356500566005707
1702058805500322000,1.444322021484375,-0.3982841372489929,0.13469578325748444,0.144622340798378
1702058805517315300,1.4613154296875,-0.4671591818332672,-0.12446379661560059,0.14782938361167908
1702058805534307300,1.478307373046875,-0.578489363193512,-0.16783522069454193,0.206777885556221
1702058805551302000,1.495302001953125,-0.7414376735687256,0.05910121276974678,0.2747366428375244
1702058805568292400,1.512292236328125,-0.8106181621551514,0.26313021779060364,0.3223841190338135
1702058805585289500,1.52928955078125,-0.7994698882102966,0.35353827476501465,0.3674354553222656
1702058805602279400,1.546279541015625,-0.7828238010406494,0.2119702398777008,0.41890084743499756
1702058805619276000,1.563276123046875,-0.7310529947280884,-0.13408492505550385,0.45631635189056396
1702058805636269300,1.580269287109375,-0.7680103182792664,-0.45723262429237366,0.48976120352745056
1702058805653262000,1.597261962890625,-0.8631525635719299,-0.49128836393356323,0.5739079117774963
1702058805670256600,1.614256591796875,-0.8820894360542297,-0.38667771220207214,0.6757696866989136
1702058805687238100,1.631238037109375,-0.7600690722465515,0.5154175758361816,0.16019940376281738
1702058805704244500,1.648244384765625,-0.7638869881629944,-0.27488934993743896,0.029626963660120964
1702058805721239800,1.66523974609375,-0.5929974317550659,-0.5829181671142578,-0.048716504126787186
1702058805738220500,1.682220458984375,-0.5977316498756409,-0.5386304259300232,-0.06658431142568588
1702058805755224000,1.69922412109375,-0.7066183686256409,-0.43157628178596497,-0.12858712673187256
1702058805772219400,1.716219482421875,-0.7929030656814575,-0.32100969552993774,-0.1872301995754242
1702058805789208600,1.73320849609375,-0.8970556259155273,-0.2658790946006775,-0.1716531366109848
1702058805806203600,1.75020361328125,-0.9980010986328125,-0.17440202832221985,-0.1368338167667389
1702058805823199500,1.767199462890625,-1.1239920854568481,-0.1463022232055664,-0.10354165732860565
1702058805840200400,1.784200439453125,-1.2386820316314697,-0.0809396430850029,0.020311269909143448
1702058805857180400,1.801180419921875,-1.356884479522705,-0.056810468435287476,0.20112738013267517
1702058805874180600,1.8181806640625,-1.4297300577163696,-0.016798794269561768,0.28619036078453064
1702058805891174400,1.83517431640625,-1.472490668296814,-0.09468411654233932,0.06582073122262955
1702058805908158000,1.852157958984375,-1.4854716062545776,-0.18570303916931152,0.03940080851316452
1702058805925160000,1.869159912109375,-1.5665639638900757,-0.096211276948452,0.08979719132184982
1702058805942154000,1.886154052734375,-1.781130313873291,-0.11667526513338089,0.12690725922584534
1702058805959144700,1.903144775390625,-2.0332648754119873,-0.21563543379306793,0.16493362188339233
1702058805976138000,1.920137939453125,-2.229963541030884,-0.2834414839744568,0.18524488806724548
1702058805993138200,1.93713818359375,-2.3298399448394775,-0.1875356286764145,0.19593502581119537
1702058806010128400,1.95412841796875,-2.255620002746582,-0.06750060617923737,0.19456058740615845
1702058806027119000,1.971119140625,-2.1335995197296143,-0.061391957104206085,0.1895209401845932
1702058806044115000,1.988114990234375,-2.1224513053894043,-0.13805554807186127,0.17012597620487213
1702058806061108500,2.0051083984375,-2.2484421730041504,-0.13469578325748444,0.16004669666290283
1702058806078100500,2.0221005859375,-2.4045183658599854,-0.1514945775270462,0.1823432743549347
1702058806095093500,2.039093505859375,-2.500729560852051,-0.1950187236070633,0.2321287989616394
1702058806112092700,2.0560927734375,-2.549140691757202,-0.1518000066280365,0.2672535479068756
1702058806129071000,2.073071044921875,-2.546391725540161,-0.061391957104206085,0.26679539680480957
1702058806146079000,2.090078857421875,-2.523637056350708,0.00015271631127689034,0.24037547409534454
1702058806163070500,2.107070556640625,-2.4993550777435303,0.06841690838336945,0.21349740028381348
1702058806180066600,2.124066650390625,-2.4767532348632812,0.08017606288194656,0.24358251690864563
1702058806197053700,2.1410537109375,-2.4752259254455566,0.033597588539123535,0.31261029839515686
1702058806214036500,2.158036376953125,-2.5473079681396484,-0.07437284290790558,0.3914119005203247
1702058806231046100,2.175046142578125,-2.6314547061920166,-0.16172657907009125,0.4161519408226013
1702058806248035600,2.19203564453125,-2.648864507675171,-0.07467827945947647,0.3758348524570465
1702058806265031700,2.20903173828125,-2.584876298904419,0.06979135423898697,0.29107728600502014
1702058806282026000,2.22602587890625,-2.4573581218719482,0.04841107130050659,0.2324342280626297
1702058806299016400,2.243016357421875,-2.375196695327759,-0.10705413669347763,0.21151208877563477
1702058806316013300,2.260013427734375,-2.3539693355560303,-0.08368854224681854,0.23105977475643158
1702058806333006000,2.277006103515625,-2.376113176345825,-0.011759156361222267,0.24205535650253296
1702058806350000400,2.29400048828125,-2.3962717056274414,0.0039706239476799965,0.22388210892677307
1702058806366990800,2.310990966796875,-2.37321138381958,-0.03237585723400116,0.20372356474399567
1702058806383986700,2.327986572265625,-2.270280599594116,-0.002138028386980295,0.17577648162841797
1702058806400982000,2.34498193359375,-2.154979944229126,-0.05345070734620094,0.17730364203453064
1702058806417970400,2.361970458984375,-2.0367774963378906,-0.13087788224220276,0.1966986060142517
1702058806434967600,2.378967529296875,-1.9443840980529785,-0.16111570596694946,0.19303341209888458
1702058806451963000,2.395962890625,-1.8535178899765015,-0.009926560334861279,0.18005253374576569
1702058806468952300,2.412952392578125,-1.771051049232483,0.058337632566690445,0.17623461782932281
1702058806485948200,2.4299482421875,-1.7345519065856934,0.0074830991216003895,0.17409659922122955
1702058806502942000,2.44694189453125,-1.7507398128509521,-0.144622340798378,0.16401731967926025
1702058806519937300,2.463937255859375,-1.7461583614349365,-0.166460782289505,0.14752395451068878
1702058806536926700,2.4809267578125,-1.6458237171173096,-0.10125091671943665,0.13545936346054077
1702058806553921800,2.497921875,-1.5771013498306274,-0.044745877385139465,0.13561208546161652
1702058806570903800,2.51490380859375,-1.5328136682510376,-0.06062837690114975,0.14126259088516235
1702058806587907600,2.531907470703125,-1.4827226400375366,-0.06765332818031311,0.1569923609495163
1702058806604906000,2.548906005859375,-1.4366023540496826,-0.05619960278272629,0.14248432219028473
1702058806621887700,2.5658876953125,-1.4317153692245483,-0.0032070425804704428,0.11972958594560623
1702058806638888200,2.58288818359375,-1.458898901939392,0.07147123664617538,0.144622340798378
1702058806655885000,2.599885009765625,-1.4697418212890625,0.0019853119738399982,0.17516560852527618
1702058806672877800,2.6168779296875,-1.4384349584579468,-0.059406645596027374,0.19608774781227112
1702058806689873200,2.633873046875,-1.4039210081100464,-0.019089538604021072,0.19364428520202637
1702058806706860800,2.65086083984375,-1.3524556159973145,0.07238753139972687,0.14874568581581116
1702058806723848200,2.66784814453125,-1.2214250564575195,0.2840523421764374,0.10735956579446793
1702058806740844500,2.684844482421875,-1.0589349269866943,0.35659259557724,0.13607023656368256
1702058806757841200,2.701841064453125,-0.9071348905563354,0.252287358045578,0.1927279829978943
1702058806774831400,2.718831298828125,-0.827722430229187,0.14584407210350037,0.24129177629947662
1702058806791837200,2.735837158203125,-0.8260425329208374,0.03145955875515938,0.26221391558647156
1702058806808828200,2.752828125,-0.8402451276779175,-0.035582900047302246,0.24404066801071167
1702058806825820700,2.769820556640625,-0.7912232279777527,-0.026419922709465027,0.18677204847335815
1702058806842805200,2.78680517578125,-0.6899722814559937,-0.0403171069920063,0.12064588814973831
1702058806859806200,2.80380615234375,-0.5653557777404785,-0.07452555745840073,0.0731511116027832
1702058806876800500,2.820800537109375,-0.47479501366615295,-0.11438451707363129,0.078343465924263
1702058806893794300,2.837794189453125,-0.43508878350257874,-0.12186761945486069,0.0887281745672226
1702058806910790000,2.854789794921875,-0.46532660722732544,-0.0708603709936142,0.0981965884566307
1702058806927779600,2.871779541015625,-0.4964807331562042,-0.07024950534105301,0.08720101416110992
1702058806944775400,2.888775390625,-0.44257187843322754,-0.07467827945947647,0.08231408894062042
1702058806961769700,2.905769775390625,-0.35842517018318176,-0.04856378585100174,0.07681630551815033
1702058806978760200,2.92276025390625,-0.24465152621269226,0.01191187184303999,0.1033889427781105
1702058806995756800,2.9397568359375,-0.16554448008537292,0.0012217304902151227,0.12079860270023346
1702058807012750000,2.95675,-0.15943582355976105,-0.03145955875515938,0.12965615093708038
1702058807029743600,2.97374365234375,-0.18616119027137756,-0.002138028386980295,0.10262536257505417
1702058807046731500,2.9907314453125,-0.1921171247959137,0.08521570265293121,0.06643159687519073
1702058807063730700,3.007730712890625,-0.1765400618314743,0.08994990587234497,0.024434609338641167
1702058807080725800,3.024725830078125,-0.1342376321554184,0.04948008432984352,0.010995574295520782
1702058807097707300,3.041707275390625,-0.10735956579446793,-0.023060163483023643,0.02474004216492176
1702058807114711300,3.058711181640625,-0.1267545372247696,-0.03237585723400116,0.03848451003432274
1702058807131706600,3.07570654296875,-0.14309518039226532,-0.03405573591589928,0.0377209298312664
1702058807148696000,3.092696044921875,-0.1290452778339386,0.00931569468230009,0.024587325751781464
1702058807165692000,3.10969189453125,-0.10445795953273773,0.04489859566092491,0.0024434609804302454
1702058807182676500,3.126676513671875,-0.07681630551815033,0.03145955875515938,0.00045814894838258624
1702058807199680000,3.143679931640625,-0.05192354694008827,0.015577063895761967,0.006872233934700489
1702058807216673800,3.160673828125,-0.03649919852614403,0.02229658141732216,0.00931569468230009
1702058807233662200,3.177662109375,-0.06352998316287994,0.038026362657547,0.005192354787141085
1702058807250665000,3.1946650390625,-0.09865473955869675,0.0659734457731247,-0.0029016099870204926
1702058807267666700,3.211666748046875,-0.1059851199388504,0.06582073122262955,-0.02122756652534008
1702058807284643800,3.228643798828125,-0.09407325088977814,0.019853120669722557,-0.035124752670526505
1702058807301643300,3.245643310546875,-0.07635815441608429,0.023060163483023643,-0.03573561832308769
1702058807318630400,3.26263037109375,-0.046731192618608475,0.09010262042284012,-0.034666601568460464
1702058807335616800,3.27961669921875,-0.01572977937757969,0.1872301995754242,-0.048716504126787186
1702058807352625200,3.296625244140625,-0.021838432177901268,0.16233743727207184,-0.06902777403593063
1702058807369615000,3.313614990234375,-0.05849034711718559,0.0809396430850029,-0.06444628536701202
1702058807386609700,3.330609619140625,-0.07559457421302795,0.01542434748262167,-0.04092797264456749
1702058807403603500,3.347603515625,-0.06918048858642578,-0.004428773187100887,-0.014966198243200779
1702058807420597000,3.364596923828125,-0.06352998316287994,0.0024434609804302454,-0.018936822190880775
1702058807437589500,3.381589599609375,-0.03787364438176155,0.016798794269561768,-0.03649919852614403
1702058807454584000,3.398583984375,-0.027183502912521362,-0.008704829961061478,-0.060933809727430344
1702058807471574500,3.415574462890625,-0.02672535367310047,-0.009162978269159794,-0.06185010448098183
1702058807488574500,3.432574462890625,-0.038179077208042145,-0.022449297830462456,-0.04688390716910362
1702058807505546200,3.449546142578125,-0.07559457421302795,-0.016798794269561768,-0.027947084978222847
1702058807522557400,3.466557373046875,-0.09498954564332962,-0.007635815534740686,-0.011453723534941673
1702058807539553000,3.483552978515625,-0.06811147183179855,-0.02076941914856434,0.006719517521560192
1702058807556532700,3.50053271484375,-0.021532999351620674,-0.009162978269159794,0.016798794269561768
1702058807573540600,3.51754052734375,0.01618792861700058,0.001679879380390048,0.01191187184303999
1702058807590532900,3.534532958984375,0.025045474991202354,-0.016798794269561768,0.01572977937757969
1702058807607526700,3.551526611328125,0.0022907445672899485,-0.012675453908741474,0.02733621932566166
1702058807624520200,3.568520263671875,-0.007788531947880983,0.013897184282541275,0.033597588539123535
1702058807641512700,3.5855126953125,-0.001679879380390048,0.06963863968849182,0.02687807008624077
1702058807658504700,3.602504638671875,0.020616702735424042,0.06230825558304787,0.006108652334660292
1702058807675501600,3.61950146484375,0.032070424407720566,0.02626720629632473,-0.0039706239476799965
1702058807692496600,3.63649658203125,0.0377209298312664,0.014355333521962166,-0.007635815534740686
1702058807709487000,3.653487060546875,0.05711590126156807,0.05421429127454758,-0.007941247895359993
1702058807726481700,3.670481689453125,0.04764748737215996,0.06185010448098183,-0.01237002108246088
1702058807743472600,3.68747265625,0.04932736977934837,0.040164388716220856,-0.01114829070866108
1702058807760471300,3.70447119140625,0.04612032696604729,0.027488935738801956,0.0065668015740811825
1702058807777461500,3.72146142578125,0.02367102913558483,0.01664607785642147,0.017867809161543846
1702058807794456000,3.7384560546875,0.02367102913558483,0.02977968007326126,0.01542434748262167
1702058807811449600,3.75544970703125,0.04046982154250145,0.08277224004268646,0.003054326167330146
1702058807828443100,3.772443115234375,0.0708603709936142,0.07666359096765518,-0.010842857882380486
1702058807845436000,3.789435791015625,0.07971791177988052,0.04337143152952194,-0.015577063895761967
1702058807862430500,3.806430419921875,0.06444628536701202,0.029016099870204926,-0.013286318629980087
1702058807879421700,3.823421630859375,0.051770828664302826,0.019547687843441963,0
1702058807896415000,3.8404150390625,0.04001167416572571,-0.006872233934700489,0.012980886735022068
1702058807913412900,3.857412841796875,0.03634648025035858,-0.00931569468230009,0.024587325751781464
1702058807930407700,3.87440771484375,0.03649919852614403,0.010537425056099892,0.02626720629632473
1702058807947397600,3.891397705078125,0.06123924255371094,0.028405234217643738,0.01878410577774048
1702058807964392700,3.908392822265625,0.07620543986558914,0.011453723534941673,0.0027488935738801956
1702058807981384400,3.925384521484375,0.07987063378095627,-0.01114829070866108,-0.00809396430850029
1702058807998379300,3.942379150390625,0.07147123664617538,-0.012064588256180286,-0.009162978269159794
1702058808015372800,3.959372802734375,0.06383541971445084,-0.013744467869400978,-0.005497787147760391
1702058808032366300,3.976366455078125,0.06429356336593628,0.013133603148162365,0.0007635815418325365
1702058808049356500,3.9933564453125,0.08918632566928864,0.03222314268350601,-0.0013744467869400978
1702058808066356200,4.010356201171875,0.12690725922584534,0.015118914656341076,-0.00809396430850029
1702058808083347500,4.027347412109375,0.12980885803699493,0.007635815534740686,-0.016035212203860283
1702058808100340700,4.0443408203125,0.12110403180122375,0.016951510682702065,-0.027641652151942253
1702058808117333200,4.061333251953125,0.13225232064723969,0.007788531947880983,-0.04108068719506264
1702058808134319900,4.07831982421875,0.1281289905309677,-0.00931569468230009,-0.04001167416572571
1702058808151321600,4.095321533203125,0.10552696883678436,-0.022907447069883347,-0.02321287989616394
1702058808168315100,4.112315185546875,0.10308351367712021,-0.0074830991216003895,-0.004581489134579897
1702058808185307600,4.1293076171875,0.13698652386665344,0.0024434609804302454,-0.00733038317412138
1702058808202299600,4.146299560546875,0.14767667651176453,-0.04764748737215996,-0.026419922709465027
1702058808219298300,4.16329833984375,0.13698652386665344,-0.0754418596625328,-0.05314527451992035
1702058808236289500,4.18028955078125,0.09834930300712585,-0.031154127791523933,-0.04963280260562897
1702058808253282000,4.197281982421875,0.052381694316864014,0.001679879380390048,-0.029474247246980667
1702058808270276600,4.214276611328125,0.044745877385139465,0.051770828664302826,0.0012217304902151227
1702058808287270100,4.231270263671875,0.05971207842230797,0.04092797264456749,0.014355333521962166
1702058808304255700,4.248255859375,0.09285151958465576,0.02825251780450344,0.01664607785642147
1702058808321252400,4.26525244140625,0.08307767659425735,0.009010262787342072,0.006872233934700489
1702058808338252800,4.282252685546875,0.03222314268350601,0.01771509274840355,0.003817907767370343
1702058808355253500,4.29925341796875,-0.024892758578062057,0.009773843921720982,0.0025961773935705423
1702058808372238300,4.31623828125,-0.04444044828414917,-0.005497787147760391,0.0006108652451075613
1702058808389230800,4.33323095703125,-0.017562376335263252,0.020922135561704636,-0.0022907445672899485
1702058808406225400,4.350225341796875,0.014355333521962166,0.02229658141732216,0.0019853119738399982
1702058808423219200,4.36721923828125,0.0027488935738801956,0.00045814894838258624,0.013133603148162365
1702058808440208600,4.384208740234375,-0.04077525436878204,0.002138028386980295,0.024587325751781464
1702058808457209300,4.401209228515625,-0.0708603709936142,-0.018478672951459885,0.02535090781748295
1702058808474198500,4.418198486328125,-0.07376197725534439,-0.022449297830462456,0.015118914656341076
1702058808491195000,4.43519482421875,-0.05497787147760391,-0.01237002108246088,0.0013744467869400978
1702058808508187400,4.4521875,-0.038637228310108185,-0.012675453908741474,-0.006261368747800589
1702058808525179600,4.4691796875,-0.03894266113638878,-0.01114829070866108,-0.005955935921519995
1702058808542174200,4.48617431640625,-0.03756821155548096,-0.023976460099220276,-0.0022907445672899485
1702058808559168000,4.50316796875,-0.022907447069883347,-0.005955935921519995,0.0012217304902151227
1702058808576161500,4.52016162109375,0.01114829070866108,0.01038470957428217,-0.003054326167330146
1702058808593139200,4.53713916015625,0.06994406878948212,0.02168571576476097,-0.013591751456260681
1702058808610148900,4.55414892578125,0.0913243517279625,0.02275473065674305,-0.024587325751781464
1702058808627142400,4.571142333984375,0.05314527451992035,0.014508049935102463,-0.024892758578062057
1702058808644125400,4.58812548828125,0.009162978269159794,-0.007788531947880983,-0.009926560334861279
1702058808661128400,4.60512841796875,-0.014966198243200779,-0.004581489134579897,0.009926560334861279
1702058808678112500,4.622112548828125,-0.023518312722444534,0.008704829961061478,0.02015855349600315
1702058808695116500,4.639116455078125,-0.025656340643763542,-0.004123340360820293,0.02229658141732216
1702058808712110600,4.656110595703125,-0.039095375686883926,-0.012828170321881771,0.023976460099220276
1702058808729102800,4.673102783203125,-0.014202617108821869,0.013897184282541275,0.02168571576476097
1702058808746087200,4.690087158203125,0.03833179548382759,0.017867809161543846,0.014813481830060482
1702058808763091000,4.707091064453125,0.09789115190505981,0.019394971430301666,0.01237002108246088
1702058808780084500,4.72408447265625,0.14385876059532166,-0.0032070425804704428,0.006261368747800589
1702058808797077200,4.7410771484375,0.16142113506793976,-0.017562376335263252,0.0006108652451075613
1702058808814084400,4.75808447265625,0.15974126756191254,-0.03084869496524334,-0.001679879380390048
1702058808831065300,4.7750654296875,0.19196440279483795,-0.023518312722444534,-0.013744467869400978
1702058808848059100,4.79205908203125,0.2893974184989929,-0.0029016099870204926,-0.027030786499381065
1702058808865042200,4.809042236328125,0.3865249752998352,-0.0007635815418325365,-0.03481931984424591
1702058808882046200,4.826046142578125,0.4668537676334381,0.0022907445672899485,-0.03756821155548096
1702058808899039700,4.843039794921875,0.5668829679489136,0.03741549700498581,-0.01710422709584236
1702058808916033300,4.860033203125,0.6737843751907349,0.04001167416572571,0.005650503560900688
1702058808933025800,4.87702587890625,0.7777841687202454,0.10293079167604446,0.01038470957428217
1702058808950020600,4.8940205078125,0.9388998746871948,0.2330450862646103,-0.0025961773935705423
1702058808967014400,4.911014404296875,1.1027644872665405,0.3039054572582245,-0.02825251780450344
1702058808984007700,4.928007568359375,1.2597568035125732,0.32009339332580566,-0.030543262138962746
1702058809001000000,4.945,1.3767375946044922,0.22128593921661377,-0.05451972410082817
1702058809017995300,4.961995361328125,1.538464069366455,0.20723603665828705,-0.09193521738052368
1702058809034988500,4.978988525390625,1.7919732332229614,0.18829920887947083,-0.11316278576850891
1702058809051982000,4.995982177734375,2.021658420562744,0.07956519722938538,-0.11927144229412079
1702058809068977700,5.012977783203125,2.199878454208374,0.02519819140434265,-0.15363261103630066
1702058809085966300,5.02996630859375,2.3070852756500244,0.06536258012056351,-0.2154827117919922
1702058809102963000,5.046962890625,2.4527766704559326,0.16462817788124084,-0.2831360399723053
1702058809119949000,5.063948974609375,2.682156562805176,0.21762074530124664,-0.3171917796134949
1702058809136949200,5.08094921875,2.981786012649536,0.15714508295059204,-0.3312416672706604
1702058809153943600,5.097943603515625,3.1555771827697754,0.014355333521962166,-0.38469240069389343
1702058809170937300,5.114937255859375,3.1396946907043457,0.07895433157682419,-0.4879286289215088
1702058809187931100,5.13193115234375,3.226590156555176,0.2226603776216507,-0.569631814956665
1702058809204923600,5.148923583984375,3.4348952770233154,0.41859540343284607,-0.5626068711280823
1702058809221918200,5.165918212890625,3.657250165939331,0.5342016816139221,-0.4977024495601654
1702058809238911700,5.182911865234375,3.8481457233428955,0.37980547547340393,-0.5348125100135803
1702058809255905500,5.199905517578125,3.7985126972198486,0.33475416898727417,-0.7018841505050659
1702058809272897800,5.216897705078125,3.7337610721588135,0.5789475440979004,-0.8133670687675476
1702058809289889500,5.2338896484375,3.8227946758270264,0.641255795955658,-0.7973318696022034
1702058809306884600,5.250884521484375,3.9154934883117676,0.3683517575263977,-0.7339546084403992
1702058809323881500,5.267881591796875,3.900069236755371,-0.006872233934700489,-0.7307475209236145
1702058809340872200,5.2848720703125,3.7569739818573,-0.11835514008998871,-0.7728972434997559
1702058809357867000,5.301866943359375,3.718947649002075,0.10690141469240189,-0.7553348541259766
1702058809374860500,5.318860595703125,3.712533473968506,0.31184670329093933,-0.6801984310150146
1702058809391854000,5.33585400390625,3.690847873687744,0.3254384696483612,-0.6026185750961304
1702058809408846800,5.352846923828125,3.684891939163208,0.20861047506332397,-0.5636758804321289
1702058809425841400,5.36984130859375,3.6699256896972656,0.20433442294597626,-0.5303837656974792
1702058809442835000,5.3868349609375,3.579059362411499,0.3321579694747925,-0.4622722864151001
1702058809459828500,5.403828369140625,3.481168270111084,0.5022839307785034,-0.38087448477745056
1702058809476817200,5.420817138671875,3.467271089553833,0.6821837425231934,-0.2756529450416565
1702058809493819600,5.437819580078125,3.6109771728515625,0.6655376553535461,-0.2269364446401596
1702058809510809300,5.454809326171875,3.746894598007202,0.684779942035675,-0.2539672255516052
1702058809527803000,5.471802978515625,3.8511998653411865,0.6940956115722656,-0.2785545587539673
1702058809544795600,5.488795654296875,3.8617372512817383,0.7588473558425903,-0.2125810980796814
1702058809561790000,5.5057900390625,3.7623190879821777,0.8269588351249695,-0.3885102868080139
1702058809578783700,5.52278369140625,3.596163749694824,0.6194173693656921,-0.49693888425827026
1702058809595777300,5.53977734375,3.4303138256073,0.6872233748435974,-0.5441282391548157
1702058809612769800,5.556769775390625,3.185509443283081,0.6195700764656067,-0.6256787180900574
1702058809629764600,5.5737646484375,2.8774807453155518,0.555429220199585,-0.675006091594696
1702058809646754800,5.5907548828125,2.4912612438201904,0.44623705744743347,-0.6356052756309509
1702058809663755000,5.607755126953125,2.189188241958618,0.19624045491218567,-0.5720753073692322
1702058809680731600,5.624731689453125,2.0060815811157227,0.19746218621730804,-0.5117523670196533
1702058809697739000,5.641739013671875,1.93293035030365,0.3787364661693573,-0.4550946056842804
1702058809714730000,5.65872998046875,1.6733126640319824,0.4738787114620209,-0.4108068645000458
1702058809731728600,5.675728759765625,1.2657127380371094,0.4859432876110077,-0.3614795207977295
1702058809748718600,5.692718505859375,1.0201449394226074,0.5771149396896362,-0.3142901659011841
1702058809765713400,5.70971337890625,0.9124799370765686,0.4983133375644684,-0.2750420868396759
1702058809782707000,5.72670703125,0.8156577944755554,0.44593164324760437,-0.23319780826568604
1702058809799700500,5.743700439453125,0.6534730792045593,0.3914119005203247,-0.20005837082862854
1702058809816693000,5.76069287109375,0.5203045010566711,0.28359419107437134,-0.15134187042713165
1702058809833687600,5.7776875,0.4303545653820038,0.20754146575927734,-0.0933096632361412
1702058809850678500,5.794678466796875,0.33628132939338684,0.17211128771305084,-0.04902193695306778
1702058809867677400,5.811677490234375,0.2519819140434265,0.1563815027475357,-0.031612277030944824
1702058809884667600,5.828667724609375,0.18280142545700073,0.14217889308929443,-0.024129176512360573
1702058809901651500,5.8456513671875,0.08338310569524765,0.15332718193531036,-0.022143865004181862
1702058809918653000,5.86265283203125,-0.035124752670526505,0.13148874044418335,-0.028405234217643738
1702058809935651800,5.87965185546875,-0.14004085958003998,0.060322944074869156,-0.022143865004181862
1702058809952631600,5.896631591796875,-0.22159136831760406,0.03222314268350601,-0.030695978552103043
1702058809969634600,5.913634521484375,-0.2658790946006775,0.05421429127454758,-0.0754418596625328
1702058809986632000,5.9306318359375,-0.2719877362251282,0.055283304303884506,-0.11331550031900406
1702058810003623700,5.947623779296875,-0.2971859276294708,0.044745877385139465,-0.12217304855585098
1702058810020616400,5.964616455078125,-0.3119994103908539,0.008704829961061478,-0.09346238523721695
1702058810037610800,5.98161083984375,-0.30863967537879944,-0.02122756652534008,-0.05757404863834381
1702058810054604300,5.998604248046875,-0.2811507284641266,-0.048105638474226,-0.03741549700498581
1702058810071589000,6.015589111328125,-0.2330450862646103,-0.0503963828086853,-0.03726277872920036
1702058810088589000,6.032589111328125,-0.18997909128665924,-0.03390302136540413,-0.05345070734620094
1702058810105585400,6.04958544921875,-0.1823432743549347,-0.033597588539123535,-0.06383541971445084
1702058810122576400,6.066576416015625,-0.20311269164085388,-0.041691552847623825,-0.04596760869026184
1702058810139575000,6.083574951171875,-0.23060162365436554,-0.09254608303308487,-0.014202617108821869
1702058810156564700,6.100564697265625,-0.24129177629947662,-0.13240504264831543,0.0027488935738801956
1702058810173559800,6.117559814453125,-0.23335053026676178,-0.11071932315826416,-0.018936822190880775
1702058810190553300,6.13455322265625,-0.1992947906255722,-0.02168571576476097,-0.05100724846124649
1702058810207547100,6.151547119140625,-0.16401731967926025,0.0065668015740811825,-0.07376197725534439
1702058810224539400,6.168539306640625,-0.13087788224220276,-0.01664607785642147,-0.07009678333997726
1702058810241534200,6.1855341796875,-0.10735956579446793,-0.05604688450694084,-0.04306599870324135
1702058810258525200,6.202525146484375,-0.09147707372903824,-0.07712173461914062,-0.0039706239476799965
1702058810275523800,6.21952392578125,-0.0757472887635231,-0.07742717117071152,0.01542434748262167
1702058810292511200,6.23651123046875,-0.055741455405950546,-0.08933904021978378,0.004734205547720194
1702058810309500700,6.253500732421875,-0.04734205827116966,-0.08124507963657379,-0.017409659922122955
1702058810326502100,6.270502197265625,-0.04886921867728233,-0.0607810914516449,-0.02871066704392433
1702058810343495700,6.28749560546875,-0.03222314268350601,-0.07987063378095627,-0.03451388701796532
1702058810360488200,6.30448828125,-0.01191187184303999,-0.0933096632361412,-0.03298672288656235
1702058810377482800,6.321482666015625,-0.005345070734620094,-0.08032877743244171,-0.03344487398862839
1702058810394475800,6.338475830078125,-0.01542434748262167,-0.05314527451992035,-0.039248090237379074
1702058810411459000,6.355458984375,-0.012522737495601177,0.0003054326225537807,-0.040622539818286896
1702058810428462600,6.372462646484375,-0.012828170321881771,-0.0019853119738399982,-0.040622539818286896
1702058810445457200,6.38945703125,-0.03222314268350601,-0.017562376335263252,-0.03039054572582245
1702058810462444000,6.406444091796875,-0.05314527451992035,-0.03878994286060333,-0.01878410577774048
1702058810479444500,6.423444580078125,-0.05665775015950203,-0.02779436856508255,-0.018478672951459885
1702058810496434400,6.440434326171875,-0.03833179548382759,0.01237002108246088,-0.031154127791523933
1702058810513421800,6.457421875,-0.009621127508580685,0.03145955875515938,-0.04153883829712868
1702058810530428000,6.474427978515625,-0.0022907445672899485,0.008857546374201775,-0.0377209298312664
1702058810547419000,6.4914189453125,-0.014813481830060482,-0.02382374368607998,-0.021532999351620674
1702058810564411400,6.508411376953125,-0.039248090237379074,-0.023365596309304237,-0.009468411095440388
1702058810581395700,6.525395751953125,-0.05314527451992035,-0.009162978269159794,-0.003359758760780096
1702058810598397000,6.54239697265625,-0.050854530185461044,0.007788531947880983,-0.012828170321881771
1702058810615395800,6.559395751953125,-0.04657847434282303,0.045204028487205505,-0.01466076634824276
1702058810632385800,6.5763857421875,-0.07269296050071716,0.02733621932566166,-0.003512475173920393
1702058810649380400,6.59338037109375,-0.13148874044418335,0.0019853119738399982,0.020616702735424042
1702058810666374100,6.6103740234375,-0.1963931769132614,-0.025045474991202354,0.04795292019844055
1702058810683367700,6.62736767578125,-0.24617868661880493,-0.02779436856508255,0.06429356336593628
1702058810700360200,6.644360107421875,-0.27488934993743896,0.022907447069883347,0.05971207842230797
1702058810717355000,6.66135498046875,-0.2893974184989929,0.04581489413976669,0.03741549700498581
1702058810734348500,6.6783486328125,-0.3205515444278717,0.03176499158143997,0.01924225501716137
1702058810751345400,6.695345458984375,-0.3627012372016907,0.01038470957428217,0.02367102913558483
1702058810768331300,6.712331298828125,-0.39324450492858887,-0.03298672288656235,0.03344487398862839
1702058810785332700,6.729332763671875,-0.4280638098716736,-0.06750060617923737,0.03222314268350601
1702058810802316800,6.74631689453125,-0.48380526900291443,-0.09560041129589081,0.012828170321881771
1702058810819319000,6.763319091796875,-0.5438227653503418,-0.1010981947183609,-0.009010262787342072
1702058810836309000,6.78030908203125,-0.607810914516449,-0.10170906037092209,-0.019394971430301666
1702058810853293600,6.79729345703125,-0.6774495840072632,-0.08155050873756409,0.0010690141934901476
1702058810870297300,6.81429736328125,-0.7675521969795227,-0.09712757170200348,0.035582900047302246
1702058810887291000,6.831290771484375,-0.8849910497665405,-0.1362229436635971,0.04306599870324135
1702058810904281300,6.84828125,-1.014647126197815,-0.14492778480052948,0.039248090237379074
1702058810921268700,6.865268798828125,-1.1913399696350098,-0.11239920556545258,0.060322944074869156
1702058810938267000,6.882266845703125,-1.4060590267181396,-0.014355333521962166,0.1293507218360901
1702058810955265300,6.899265380859375,-1.616654872894287,0.058948494493961334,0.24617868661880493
1702058810972257800,6.9162578125,-1.8070920705795288,0.048716504126787186,0.3433062732219696
1702058810989248000,6.933248046875,-1.9920315742492676,-0.025045474991202354,0.395077109336853
1702058811006250500,6.95025048828125,-2.214233875274658,-0.11575896292924881,0.4254676401615143
1702058811023229200,6.967229248046875,-2.4581217765808105,-0.12110403180122375,0.44654250144958496
1702058811040229600,6.984229736328125,-2.6700918674468994,-0.047189339995384216,0.4680754840373993
1702058811057229600,7.0012294921875,-2.802496910095215,-0.03787364438176155,0.5138903856277466
1702058811074220500,7.018220458984375,-2.9110782146453857,-0.10491610318422318,0.6023131608963013
1702058811091214000,7.035214111328125,-3.02958607673645,-0.22403483092784882,0.6954700946807861
1702058811108206600,7.05220654296875,-3.1305315494537354,-0.3196352422237396,0.782976508140564
1702058811125194500,7.069194580078125,-3.2059736251831055,-0.3758348524570465,0.8727737069129944
1702058811142195000,7.08619482421875,-3.2261321544647217,-0.3908010423183441,0.9245445728302002
1702058811159188500,7.1031884765625,-3.2120821475982666,-0.4161519408226013,0.9138544201850891
1702058811176178400,7.120178466796875,-3.2006285190582275,-0.4911356568336487,0.8765916228294373
1702058811193175800,7.13717578125,-3.2262847423553467,-0.494189977645874,0.8542950749397278
1702058811210169600,7.154169677734375,-3.2896621227264404,-0.3943135142326355,0.8546004891395569
1702058811227163000,7.171162841796875,-3.316234588623047,-0.2768746614456177,0.845132052898407
1702058811244155400,7.1881552734375,-3.2560644149780273,-0.27091872692108154,0.803440511226654
1702058811261150000,7.20514990234375,-3.1137328147888184,-0.3695734739303589,0.726471483707428
1702058811278143700,7.222143798828125,-2.9460504055023193,-0.42302417755126953,0.6670648455619812
1702058811295126800,7.239126708984375,-2.7702739238739014,-0.3605632185935974,0.6238461136817932
1702058811312129800,7.2561298828125,-2.5697574615478516,-0.2506074607372284,0.5148066878318787
1702058811329126100,7.273126220703125,-2.373058795928955,-0.17669276893138885,0.40653082728385925
1702058811346116400,7.290116455078125,-2.2348504066467285,-0.08399397134780884,0.34162637591362
1702058811363111400,7.307111328125,-2.1502456665039062,-0.08216137439012527,0.33460143208503723
1702058811380102000,7.324101806640625,-2.090991735458374,-0.22372940182685852,0.37659841775894165
1702058811397101300,7.341101318359375,-2.0442605018615723,-0.3139847218990326,0.4199698567390442
1702058811414092500,7.358092529296875,-1.9405661821365356,-0.24465152621269226,0.37171149253845215
1702058811431086000,7.375086181640625,-1.8304576873779297,-0.10125091671943665,0.24266621470451355
1702058811448078800,7.392078857421875,-1.7165313959121704,-0.07651086896657944,0.12370020896196365
1702058811465073200,7.4090732421875,-1.6687310934066772,-0.1589776873588562,0.07651086896657944
1702058811482067000,7.42606689453125,-1.7186694145202637,-0.21594086289405823,0.10018189996480942
1702058811499060500,7.443060546875,-1.8028160333633423,-0.22571471333503723,0.14523321390151978
1702058811516053800,7.4600537109375,-1.853365182876587,-0.18677204847335815,0.17302757501602173
1702058811533046300,7.47704638671875,-1.8503108024597168,-0.12064588814973831,0.1498146951198578
1702058811550041600,7.49404150390625,-1.768149495124817,-0.07651086896657944,0.09957103431224823
1702058811567032000,7.511031982421875,-1.6849191188812256,-0.07360926270484924,0.058184914290905
1702058811584030000,7.528030029296875,-1.6278032064437866,-0.03298672288656235,0.0679587572813034
1702058811601022000,7.54502197265625,-1.6423112154006958,0.00733038317412138,0.12568552792072296
1702058811618015700,7.562015625,-1.705993890762329,0.006108652334660292,0.19043724238872528
1702058811635009300,7.57900927734375,-1.7032450437545776,-0.00366519158706069,0.25182920694351196
1702058811652001800,7.596001708984375,-1.6155858039855957,-0.009162978269159794,0.2819143235683441
1702058811668995300,7.612995361328125,-1.4842498302459717,0.003359758760780096,0.28787025809288025
1702058811685991000,7.629990966796875,-1.3712397813796997,0.014508049935102463,0.28435778617858887
1702058811702983700,7.646983642578125,-1.3333661556243896,0.0633772686123848,0.25473082065582275
1702058811719976200,7.66397607421875,-1.3139711618423462,0.0861319974064827,0.2272418737411499
1702058811736970800,7.680970703125,-1.2988522052764893,0.0835358202457428,0.21807889640331268
1702058811753954000,7.6979541015625,-1.274570345878601,0.018020525574684143,0.19715675711631775
1702058811770958000,7.7149580078125,-1.2273809909820557,-0.05451972410082817,0.19074267148971558
1702058811787950600,7.73195068359375,-1.1733194589614868,-0.06414084881544113,0.20784689486026764
1702058811804945200,7.748945068359375,-1.1362093687057495,-0.04734205827116966,0.22418753802776337
1702058811821939000,7.76593896484375,-1.1024590730667114,-0.06673702597618103,0.23716843128204346
1702058811838932500,7.782932373046875,-1.070388674736023,-0.08368854224681854,0.23869559168815613
1702058811855925000,7.799925048828125,-1.0464121103286743,-0.07956519722938538,0.21991148591041565
1702058811872909300,7.816909423828125,-1.0250319242477417,-0.058337632566690445,0.18936823308467865
1702058811889911000,7.8339111328125,-1.0201449394226074,-0.06291911751031876,0.15729780495166779
1702058811906909200,7.8509091796875,-0.9870055317878723,-0.04092797264456749,0.15286903083324432
1702058811923889200,7.86788916015625,-0.9416487812995911,-0.07666359096765518,0.16844609379768372
1702058811940894000,7.88489404296875,-0.9080511927604675,-0.09147707372903824,0.1843285858631134
1702058811957887500,7.901887451171875,-0.8910996913909912,-0.08597928285598755,0.18967366218566895
1702058811974881300,7.91888134765625,-0.8863654732704163,-0.09392052888870239,0.21105393767356873
1702058811991873800,7.935873779296875,-0.9152288436889648,-0.11239920556545258,0.2272418737411499
1702058812008868600,7.95286865234375,-0.9526443481445312,-0.12690725922584534,0.21991148591041565
1702058812025862000,7.96986181640625,-0.9372199773788452,-0.11957687139511108,0.20082195103168488
1702058812042856200,7.986856201171875,-0.8465065360069275,-0.09514226019382477,0.1713477075099945
1702058812059848200,8.00384814453125,-0.7391469478607178,-0.08720101416110992,0.15943582355976105
1702058812076845000,8.020844970703125,-0.7134906053543091,-0.09254608303308487,0.1547016203403473
1702058812093834200,8.037834228515624,-0.7325801253318787,-0.07880161702632904,0.1319468915462494
1702058812110819600,8.054819580078124,-0.7406741380691528,-0.04642575979232788,0.10415252298116684
1702058812127818000,8.07181787109375,-0.68325275182724,-0.03573561832308769,0.08567385375499725
1702058812144821800,8.08882177734375,-0.5529857873916626,-0.03833179548382759,0.07590000331401825
1702058812161810700,8.105810791015625,-0.4248567819595337,-0.03329215571284294,0.07666359096765518
1702058812178804500,8.122804443359374,-0.3452915847301483,-0.001832595793530345,0.08567385375499725
1702058812195797000,8.139796875,-0.3318525552749634,-0.0029016099870204926,0.1082758679986
1702058812212791600,8.15679150390625,-0.35613444447517395,-0.04260785132646561,0.10934487730264664
1702058812229787000,8.173786865234375,-0.3433062732219696,-0.035582900047302246,0.0734565481543541
1702058812246777000,8.190777099609376,-0.2562579810619354,-0.002138028386980295,0.02977968007326126
1702058812263771400,8.207771484375,-0.16035212576389313,0.01114829070866108,0.01725694350898266
1702058812280765400,8.224765380859376,-0.07360926270484924,0.007177666760981083,0
1702058812297760000,8.241760009765626,-0.032070424407720566,-0.020005837082862854,-0.001527163083665073
1702058812314753000,8.2587529296875,-0.023518312722444534,-0.021380282938480377,0.014813481830060482
1702058812331745800,8.275745849609375,-0.009621127508580685,-0.017867809161543846,0.04046982154250145
1702058812348737500,8.292737548828125,-0.016798794269561768,-0.043218716979026794,0.04596760869026184
1702058812365737000,8.309737060546874,-0.02977968007326126,-0.029168816283345222,0.021991148591041565
1702058812382727700,8.326727783203125,-0.04963280260562897,-0.02672535367310047,0.006261368747800589
1702058812399720200,8.34372021484375,-0.06780604273080826,-0.04153883829712868,0.005650503560900688
1702058812416712200,8.360712158203125,-0.098502017557621,-0.060322944074869156,0.016035212203860283
1702058812433711000,8.377711181640626,-0.11484266817569733,-0.08307767659425735,0.032070424407720566
1702058812450691300,8.39469140625,-0.096211276948452,-0.049785517156124115,0.047189339995384216
1702058812467694600,8.411694580078125,-0.06643159687519073,-0.04306599870324135,0.06261368840932846
1702058812484689200,8.428689208984375,-0.05772676691412926,-0.04138612002134323,0.0659734457731247
1702058812501672400,8.44567236328125,-0.060475658625364304,-0.029932396486401558,0.05146539583802223
1702058812518674400,8.46267431640625,-0.09178250283002853,-0.02519819140434265,0.04046982154250145
1702058812535671000,8.479671142578125,-0.14248432219028473,-0.02367102913558483,0.03940080851316452
1702058812552663600,8.49666357421875,-0.18387043476104736,-0.028099801391363144,0.0403171069920063
1702058812569657000,8.513656982421875,-0.1696678251028061,-0.0006108652451075613,0.04444044828414917
1702058812586651000,8.53065087890625,-0.11178833991289139,0.018478672951459885,0.04398229718208313
1702058812603643400,8.547643310546874,-0.08185594528913498,0.020922135561704636,0.04795292019844055
1702058812620638000,8.564637939453124,-0.09254608303308487,0.03695734590291977,0.056352317333221436
1702058812637631500,8.581631591796874,-0.13897185027599335,0.05910121276974678,0.05451972410082817
1702058812654625300,8.598625244140624,-0.2154827117919922,0.06582073122262955,0.041691552847623825
1702058812671617800,8.61561767578125,-0.2574796974658966,0.06673702597618103,0.04764748737215996
1702058812688612400,8.6326123046875,-0.20402899384498596,0.06673702597618103,0.05467243865132332
1702058812705606100,8.649606201171874,-0.07177666574716568,0.07757988572120667,0.05497787147760391
1702058812722599400,8.666599365234376,0.041233405470848083,0.08903361111879349,0.043218716979026794
1702058812739592200,8.68359228515625,0.07635815441608429,0.07941248267889023,0.019089538604021072
1702058812756586800,8.700586669921876,0.05619960278272629,0.03405573591589928,-0.005650503560900688
1702058812773580300,8.717580322265626,0.017867809161543846,0.02122756652534008,-0.025045474991202354
1702058812790573800,8.73457373046875,0.0009162978967651725,0.006719517521560192,-0.02687807008624077
1702058812807570200,8.751570068359374,0.00931569468230009,-0.006261368747800589,-0.014355333521962166
1702058812824561200,8.76856103515625,0.02932153269648552,-0.013133603148162365,-0.005039638374000788
1702058812841554700,8.7855546875,0.054825156927108765,-0.014355333521962166,-0.005345070734620094
1702058812858548500,8.802548583984375,0.06719517707824707,-0.020463986322283745,-0.018020525574684143
1702058812875541000,8.819541015625,0.06001751124858856,-0.021380282938480377,-0.027641652151942253
1702058812892516900,8.836516845703125,0.023976460099220276,-0.027947084978222847,-0.023976460099220276
1702058812909529300,8.853529296875,-0.036651913076639175,-0.029932396486401558,-0.010995574295520782
1702058812926523000,8.87052294921875,-0.08964447677135468,-0.00855211354792118,-0.003512475173920393
1702058812943515400,8.887515380859375,-0.0936150997877121,0.007941247895359993,0.004734205547720194
1702058812960510000,8.904510009765625,-0.05849034711718559,0.005803219974040985,0.016798794269561768
1702058812977503500,8.92150341796875,-0.02229658141732216,-0.012217304669320583,0.027183502912521362
1702058812994497000,8.9384970703125,0.013286318629980087,-0.00366519158706069,0.021532999351620674
1702058813011489800,8.95548974609375,0.0377209298312664,0.02076941914856434,0.0019853119738399982
1702058813028484400,8.972484375,0.06276640295982361,0.03390302136540413,-0.019089538604021072
1702058813045478000,8.989477783203125,0.06704246252775192,0.029932396486401558,-0.026572637259960175
1702058813062471400,9.006471435546874,0.06215553730726242,0.012064588256180286,-0.013897184282541275
1702058813079464200,9.023464111328124,0.052381694316864014,0.0065668015740811825,0.00427605677396059
1702058813096458800,9.040458740234374,0.043218716979026794,0.012522737495601177,0.016340645030140877
1702058813113441800,9.05744189453125,0.06017022579908371,0.015882495790719986,0.0074830991216003895
1702058813130441500,9.07444140625,0.0806342139840126,0.016493361443281174,-0.013897184282541275
1702058813147443200,9.091443115234375,0.08445212244987488,0.014049900695681572,-0.025656340643763542
1702058813164433200,9.10843310546875,0.04703662544488907,0.01114829070866108,-0.024434609338641167
1702058813181427000,9.125427001953126,0.0025961773935705423,0.0064140851609408855,-0.00931569468230009
1702058813198409700,9.14240966796875,-0.026419922709465027,0.024587325751781464,0.008399397134780884
1702058813215412700,9.159412841796875,-0.032070424407720566,0.030237829312682152,0.02321287989616394
1702058813232407600,9.176407470703126,-0.021074850112199783,0.04612032696604729,0.023518312722444534
1702058813249401000,9.193401123046876,-0.005955935921519995,0.03176499158143997,0.01114829070866108
1702058813266395000,9.210394775390625,-0.00015271631127689034,0.02367102913558483,0.002138028386980295
1702058813283373800,9.227373779296874,-0.01618792861700058,0.025656340643763542,0.003512475173920393
1702058813300384500,9.244384521484376,-0.041233405470848083,0.021532999351620674,0.013133603148162365
1702058813317379600,9.261379638671874,-0.06352998316287994,0.025961773470044136,0.026419922709465027
1702058813334369000,9.278369140625,-0.058948494493961334,0.03833179548382759,0.04337143152952194
1702058813351361800,9.29536181640625,-0.03451388701796532,0.03634648025035858,0.05146539583802223
1702058813368356400,9.3123564453125,-0.006872233934700489,0.027030786499381065,0.0403171069920063
1702058813385363200,9.32936328125,0.017562376335263252,0.02825251780450344,0.024587325751781464
1702058813402340900,9.3463408203125,0.0354301854968071,0.01970040425658226,0.015271631069481373
1702058813419338800,9.3633388671875,0.022907447069883347,0.00366519158706069,0.013133603148162365
1702058813436330800,9.380330810546875,-0.008246680721640587,-0.00045814894838258624,0.013897184282541275
1702058813453322000,9.397322021484374,-0.009468411095440388,0.016035212203860283,0.001679879380390048
1702058813470320400,9.4143203125,0.05192354694008827,0.024434609338641167,-0.010690141469240189
1702058813487310300,9.431310302734374,0.12079860270023346,0.01863138936460018,-0.027030786499381065
1702058813504302600,9.448302490234376,0.1508837193250656,0.023518312722444534,-0.03955352306365967
1702058813521301500,9.465301513671875,0.1189660057425499,0.016493361443281174,-0.039095375686883926
1702058813538299000,9.482298828125,0.04153883829712868,0.02886338345706463,-0.022602014243602753
1702058813555284700,9.49928466796875,-0.04703662544488907,0.019394971430301666,0.0039706239476799965
1702058813572279600,9.516279541015624,-0.11988230794668198,0.024434609338641167,0.026419922709465027
1702058813589255000,9.5332548828125,-0.1293507218360901,0.021991148591041565,0.041233405470848083
1702058813606264300,9.550264404296875,-0.08414668589830399,0.015118914656341076,0.04459316283464432
1702058813623261700,9.56726171875,-0.016035212203860283,0.02015855349600315,0.03390302136540413
1702058813640254000,9.58425390625,0.04566217586398125,0.019853120669722557,0.015118914656341076
1702058813657237200,9.6012373046875,0.056352317333221436,0.01542434748262167,-0.0012217304902151227
1702058813674241000,9.618240966796876,0.020463986322283745,0.011301007121801376,-0.010079276748001575
1702058813691228700,9.635228759765624,-0.021991148591041565,0.005650503560900688,-0.012675453908741474
1702058813708231000,9.65223095703125,-0.01710422709584236,0.01191187184303999,-0.02168571576476097
1702058813725222000,9.669221923828125,0.02535090781748295,0.026572637259960175,-0.03039054572582245
1702058813742215400,9.68621533203125,0.06765332818031311,-0.005650503560900688,-0.02626720629632473
1702058813759197400,9.703197509765625,0.0708603709936142,-0.009162978269159794,-0.013439035043120384
1702058813776202800,9.72020263671875,0.023518312722444534,-0.013286318629980087,0.003512475173920393
1702058813793196300,9.7371962890625,-0.04444044828414917,-0.012522737495601177,0.011301007121801376
1702058813810185000,9.75418505859375,-0.07727445662021637,0.009621127508580685,0.00427605677396059
1702058813827180300,9.77118017578125,-0.07651086896657944,-0.00015271631127689034,-0.004734205547720194
1702058813844179500,9.788179443359375,-0.06643159687519073,-0.015118914656341076,-0.00045814894838258624
1702058813861170700,9.805170654296875,-0.07742717117071152,-0.005497787147760391,0.00733038317412138
1702058813878164200,9.822164306640625,-0.0913243517279625,0.008857546374201775,0.008399397134780884
1702058813895156700,9.83915673828125,-0.07024950534105301,0.01114829070866108,0.007024950347840786
1702058813912152000,9.856152099609375,-0.021380282938480377,0.013897184282541275,0.009468411095440388
1702058813929144600,9.87314453125,0.023060163483023643,0.0009162978967651725,0.01466076634824276
1702058813946135300,9.89013525390625,0.032528575509786606,-0.015271631069481373,0.01878410577774048
1702058813963131100,9.907131103515624,0.027947084978222847,-0.0032070425804704428,0.005650503560900688
1702058813980115500,9.924115478515626,0.033139441162347794,0.01725694350898266,-0.012217304669320583
1702058813997117000,9.941116943359376,0.044287730008363724,0.014049900695681572,-0.014813481830060482
1702058814014115800,9.95811572265625,0.0403171069920063,0.01237002108246088,-0.006261368747800589
1702058814031100200,9.97510009765625,0.01710422709584236,0.00931569468230009,0.006261368747800589
1702058814048101600,9.9921015625,-0.024892758578062057,0.020616702735424042,0.013133603148162365
1702058814065095200,10.00909521484375,-0.06276640295982361,0.03390302136540413,0.014202617108821869
1702058814082087400,10.02608740234375,-0.0806342139840126,0.019853120669722557,0.016035212203860283
1702058814099080000,10.043079833984375,-0.09147707372903824,0.02367102913558483,0.02519819140434265
1702058814116074800,10.06007470703125,-0.09285151958465576,0.027030786499381065,0.037110064178705215
1702058814133068300,10.077068359375,-0.07208210229873657,0.02474004216492176,0.03237585723400116
1702058814150061800,10.094061767578125,-0.002138028386980295,0.030085112899541855,0.00366519158706069
1702058814167054600,10.1110546875,0.07024950534105301,0.0354301854968071,-0.02275473065674305
1702058814184049200,10.128049072265625,0.08078692853450775,0.01924225501716137,-0.02977968007326126
1702058814201041000,10.145041015625,0.061391957104206085,0.018936822190880775,-0.016340645030140877
1702058814218035200,10.16203515625,0.04902193695306778,0.0012217304902151227,0.005039638374000788
1702058814235031300,10.17903125,0.059406645596027374,-0.004428773187100887,0.009162978269159794
1702058814252019700,10.196019775390624,0.0659734457731247,-0.004734205547720194,-0.004428773187100887
1702058814269014500,10.2130146484375,0.06612616032361984,0.026572637259960175,-0.021532999351620674
1702058814286013200,10.23001318359375,0.049785517156124115,0.019547687843441963,-0.025656340643763542
1702058814303003100,10.247003173828125,0.02977968007326126,0.008399397134780884,-0.016798794269561768
1702058814319998000,10.263998046875,0.020922135561704636,0.005039638374000788,-0.013133603148162365
1702058814336991500,10.280991455078125,0.02626720629632473,0.01572977937757969,-0.013439035043120384
1702058814353985000,10.297985107421875,0.022143865004181862,0.02474004216492176,-0.0074830991216003895
1702058814370985200,10.314985107421874,0.004581489134579897,0.019853120669722557,0.0009162978967651725
1702058814387972000,10.33197216796875,0.04459316283464432,0.023518312722444534,0.0003054326225537807
1702058814404955600,10.34895556640625,0.1615738570690155,0.01817324012517929,-0.0074830991216003895
1702058814421956900,10.365956787109376,0.2790127098560333,0.01771509274840355,-0.014202617108821869
1702058814438954800,10.382954833984375,0.33567044138908386,-0.005650503560900688,-0.017867809161543846
1702058814455946500,10.399946533203124,0.3410155177116394,-0.023060163483023643,-0.033139441162347794
1702058814472940000,10.41693994140625,0.35811975598335266,-0.02428189292550087,-0.05406157299876213
1702058814489933600,10.43393359375,0.42562034726142883,-0.02580905705690384,-0.08429940044879913
1702058814506926600,10.450926513671876,0.5299255847930908,-0.02687807008624077,-0.12202033400535583
1702058814523921200,10.467921142578126,0.6525567770004272,-0.027183502912521362,-0.15317445993423462
1702058814540923100,10.484923095703126,0.7756461501121521,-0.03741549700498581,-0.17440202832221985
1702058814557908200,10.501908203125,0.8943067193031311,-0.008704829961061478,-0.182648703455925
1702058814574900700,10.518900634765625,1.037249207496643,0.04153883829712868,-0.1736384481191635
1702058814591895300,10.535895263671875,1.1508700847625732,0.04459316283464432,-0.1820378452539444
1702058814608888800,10.552888916015625,1.2069170475006104,0.08445212244987488,-0.19883663952350616
1702058814625882600,10.569882568359375,1.2524265050888062,0.13988813757896423,-0.20402899384498596
1702058814642875100,10.586875244140625,1.3771957159042358,0.1635591685771942,-0.20784689486026764
1702058814659869700,10.60386962890625,1.5974125862121582,0.14767667651176453,-0.19822576642036438
1702058814676863200,10.62086328125,1.8093829154968262,0.1108720451593399,-0.21670444309711456
1702058814693857000,10.63785693359375,1.9416351318359375,0.14019356667995453,-0.2721404731273651
1702058814710849500,10.654849609375,2.0471620559692383,0.23655757308006287,-0.33047810196876526
1702058814727841800,10.671841796875,2.130239725112915,0.2768746614456177,-0.33368512988090515
1702058814744840200,10.688840087890625,2.264630079269409,0.21594086289405823,-0.32986724376678467
1702058814761826600,10.70582666015625,2.5143213272094727,0.15317445993423462,-0.3491095006465912
1702058814778813200,10.722813232421874,2.746450185775757,0.06261368840932846,-0.3805690407752991
1702058814795818500,10.739818603515625,2.892599582672119,0.04688390716910362,-0.40485092997550964
1702058814812812300,10.756812255859375,2.959183931350708,0.1765400618314743,-0.399200439453125
1702058814829805800,10.773805908203125,3.028364419937134,0.2548835277557373,-0.39767327904701233
1702058814846798300,10.79079833984375,3.190243721008301,0.17623461782932281,-0.44165557622909546
1702058814863806500,10.807806396484375,3.3822081089019775,0.0884227454662323,-0.5369505286216736
1702058814880786400,10.824786376953124,3.5104899406433105,0.10735956579446793,-0.6018549799919128
1702058814897780200,10.8417802734375,3.5188891887664795,0.2571742534637451,-0.6143777370452881
1702058814914772700,10.858772705078126,3.5529448986053467,0.5763513445854187,-0.5807801485061646
1702058814931767300,10.875767333984374,3.7763688564300537,0.7890852093696594,-0.5703954100608826
1702058814948758300,10.89275830078125,4.116926193237305,0.6806566119194031,-0.6635523438453674
1702058814965757200,10.909757080078125,4.243222713470459,0.35475999116897583,-0.8159632682800293
1702058814982747100,10.9267470703125,4.027892589569092,0.44806966185569763,-0.8891143798828125
1702058814999741700,10.94374169921875,3.7279579639434814,0.82207190990448,-0.860556423664093
1702058815016735200,10.9607353515625,3.5891387462615967,0.8991936445236206,-0.7776314616203308
1702058815033729000,10.97772900390625,3.476128578186035,0.6713408827781677,-0.6991352438926697
1702058815050721300,10.99472119140625,3.2869131565093994,0.2528982162475586,-0.702800452709198
1702058815067713500,11.011713623046875,3.0436360836029053,0.08994990587234497,-0.7388415336608887
1702058815084712400,11.02871240234375,2.8322768211364746,0.26419922709465027,-0.7451028823852539
1702058815101703400,11.045703369140625,2.6902506351470947,0.39187005162239075,-0.6725626587867737
1702058815118687200,11.062687255859375,2.579378604888916,0.3234531581401825,-0.5913175344467163
1702058815135690500,11.0796904296875,2.613434314727783,0.1485929638147354,-0.5181664228439331
1702058815152684300,11.096684326171875,2.7476718425750732,-0.0027488935738801956,-0.5097670555114746
1702058815169677600,11.113677490234375,2.8461740016937256,0.04214970022439957,-0.4645630121231079
1702058815186670300,11.13067041015625,2.822808265686035,0.18524488806724548,-0.34376442432403564
1702058815203665000,11.147664794921875,2.590526819229126,0.14187344908714294,-0.18570303916931152
1702058815220658400,11.164658447265625,2.3457224369049072,-0.018325956538319588,-0.0861319974064827
1702058815237652000,11.18165185546875,2.3047945499420166,-0.004886921960860491,-0.15027284622192383
1702058815254644700,11.198644775390624,2.4364359378814697,0.197004035115242,-0.3263547718524933
1702058815271639000,11.21563916015625,2.562427043914795,0.43508878350257874,-0.4280638098716736
1702058815288632800,11.2326328125,2.4669792652130127,0.41630467772483826,-0.4056145250797272
1702058815305626600,11.249626708984374,2.1450533866882324,0.2168571650981903,-0.37950003147125244
1702058815322619000,11.266618896484376,1.7380642890930176,0.23167064785957336,-0.4167627990245819
1702058815339613700,11.28361376953125,1.50211763381958,0.33108896017074585,-0.4899139404296875
1702058815356597200,11.30059716796875,1.450346827507019,0.35033121705055237,-0.5403103232383728
1702058815373600800,11.317600830078124,1.4743232727050781,0.2799290120601654,-0.5459607839584351
1702058815390593500,11.334593505859376,1.4329371452331543,0.22602014243602753,-0.5322163701057434
1702058815407588000,11.351588134765626,1.340238332748413,0.1927279829978943,-0.4631885588169098
1702058815424581600,11.36858154296875,1.165378212928772,0.2076941877603531,-0.3543018400669098
1702058815441572900,11.38557275390625,0.9330966472625732,0.23136521875858307,-0.23808473348617554
1702058815458570200,11.4025703125,0.7385360598564148,0.18906278908252716,-0.1635591685771942
1702058815475562500,11.4195625,0.6583600044250488,0.168751522898674,-0.1420261710882187
1702058815492556000,11.43655615234375,0.6682865619659424,0.20173825323581696,-0.16814066469669342
1702058815509547300,11.45354736328125,0.6377432942390442,0.21151208877563477,-0.2021963894367218
1702058815526545200,11.470545166015626,0.5419901609420776,0.1492038369178772,-0.18677204847335815
1702058815543537000,11.487536865234375,0.3854559659957886,0.058337632566690445,-0.12996158003807068
1702058815560530400,11.504530517578125,0.23411411046981812,0.04352414980530739,-0.07666359096765518
1702058815577513500,11.521513427734375,0.14996741712093353,0.02886338345706463,-0.04581489413976669
1702058815594516500,11.5385166015625,0.12690725922584534,-0.014202617108821869,-0.0455094613134861
1702058815611523300,11.5555234375,0.1264491081237793,-0.03390302136540413,-0.0630718395113945
1702058815628504800,11.5725048828125,0.11972958594560623,-0.05925392732024193,-0.08994990587234497
1702058815645495800,11.589495849609374,0.07590000331401825,-0.04184427112340927,-0.09941831976175308
1702058815662493400,11.606493408203125,0.00733038317412138,-0.026114489883184433,-0.08720101416110992
1702058815679485700,11.623485595703125,-0.06261368840932846,-0.034666601568460464,-0.0555887371301651
1702058815696479000,11.64047900390625,-0.10919216275215149,-0.022602014243602753,-0.02672535367310047
1702058815713471500,11.657471435546874,-0.11759155988693237,0.005497787147760391,0.0019853119738399982
1702058815730466600,11.674466552734375,-0.08750644326210022,0.01710422709584236,0.00733038317412138
1702058815747449300,11.691449462890626,-0.04382958263158798,0.023365596309304237,-0.005497787147760391
1702058815764453600,11.70845361328125,-0.01970040425658226,0.016951510682702065,-0.0024434609804302454
1702058815781447200,11.725447265625,-0.039706241339445114,0.009773843921720982,0.01572977937757969
1702058815798430200,11.74243017578125,-0.058795779943466187,0.016035212203860283,0.03573561832308769
1702058815815434200,11.759434326171874,-0.061391957104206085,0.031001411378383636,0.03985895588994026
1702058815832428000,11.776427978515626,-0.054367005825042725,0.017562376335263252,0.036651913076639175
1702058815849421600,11.793421630859376,-0.05207626149058342,-0.008399397134780884,0.0328340083360672
1702058815866414000,11.8104140625,-0.054825156927108765,-0.00045814894838258624,0.03436116874217987
1702058815883409000,11.827408935546876,-0.058184914290905,0.010995574295520782,0.036193765699863434
1702058815900402700,11.844402587890626,-0.05726861581206322,0.01114829070866108,0.03878994286060333
1702058815917396000,11.86139599609375,-0.04306599870324135,-0.01114829070866108,0.034666601568460464
1702058815934390300,11.878390380859376,-0.03237585723400116,-0.01664607785642147,0.024434609338641167
1702058815951381500,11.895381591796875,-0.023518312722444534,-0.015271631069481373,0.006108652334660292
1702058815968376600,11.91237646484375,-0.008246680721640587,-0.0006108652451075613,-0.003817907767370343
1702058815985368800,11.929368896484375,0.006261368747800589,-0.0010690141934901476,-0.0032070425804704428
1702058816002362000,11.946362060546875,0.02672535367310047,0,0.005803219974040985
1702058816019357200,11.963357177734375,0.04245513305068016,-0.02428189292550087,0.0065668015740811825
1702058816036355000,11.98035498046875,0.05207626149058342,-0.03878994286060333,-0.004734205547720194
1702058816053343200,11.99734326171875,0.048258353024721146,-0.026419922709465027,-0.02779436856508255
1702058816070337300,12.014337158203125,0.04306599870324135,-0.017409659922122955,-0.05115996301174164
1702058816087331800,12.031331787109375,0.03237585723400116,0.0029016099870204926,-0.055283304303884506
1702058816104325600,12.04832568359375,0.01725694350898266,0.023518312722444534,-0.048258353024721146
1702058816121321500,12.065321533203125,0.016951510682702065,0.001679879380390048,-0.03130684420466423
1702058816138309400,12.082309326171876,0.026419922709465027,-0.03573561832308769,-0.027947084978222847
1702058816155304000,12.099303955078126,0.04398229718208313,-0.039248090237379074,-0.036651913076639175
1702058816172302800,12.116302734375,0.03955352306365967,-0.021074850112199783,-0.048105638474226
1702058816189288200,12.1332880859375,0.019547687843441963,-0.007024950347840786,-0.05100724846124649
1702058816206284800,12.150284912109376,0.0029016099870204926,-0.014966198243200779,-0.04856378585100174
1702058816223282000,12.167281982421875,-0.0029016099870204926,-0.03344487398862839,-0.045204028487205505
1702058816240274200,12.184274169921874,-0.0006108652451075613,-0.04184427112340927,-0.038179077208042145
1702058816257267700,12.201267822265624,0.004581489134579897,-0.06612616032361984,-0.026419922709465027
1702058816274260500,12.218260498046876,-0.003817907767370343,-0.03329215571284294,-0.006719517521560192
1702058816291255000,12.235255126953126,-0.019853120669722557,-0.01710422709584236,0.004886921960860491
1702058816308248800,12.252248779296876,-0.0354301854968071,-0.01542434748262167,0.010079276748001575
1702058816325242400,12.269242431640626,-0.05161811411380768,-0.032070424407720566,0.006108652334660292
1702058816342235000,12.28623486328125,-0.07437284290790558,-0.036041051149368286,0.004123340360820293
1702058816359229400,12.3032294921875,-0.08536841720342636,-0.029932396486401558,0.007635815534740686
1702058816376220400,12.320220458984375,-0.09025534242391586,-0.03176499158143997,0.00809396430850029
1702058816393218600,12.337218505859376,-0.09789115190505981,-0.02977968007326126,0.007941247895359993
1702058816410194200,12.354194091796876,-0.11224649101495743,-0.03176499158143997,0.014966198243200779
1702058816427193900,12.37119384765625,-0.1469130963087082,-0.04688390716910362,0.02932153269648552
1702058816444197400,12.388197265625,-0.17638733983039856,-0.044745877385139465,0.04199698567390442
1702058816461191000,12.40519091796875,-0.1895209401845932,-0.025961773470044136,0.056810468435287476
1702058816478183700,12.42218359375,-0.2148718535900116,-0.04138612002134323,0.07116580009460449
1702058816495178200,12.43917822265625,-0.2719877362251282,-0.06062837690114975,0.07941248267889023
1702058816512169200,12.456169189453124,-0.34513887763023376,-0.06017022579908371,0.07360926270484924
1702058816529168100,12.473168212890625,-0.4086688458919525,-0.03481931984424591,0.052381694316864014
1702058816546157800,12.49015771484375,-0.4622722864151001,-0.06001751124858856,0.03222314268350601
1702058816563152600,12.507152587890625,-0.4999932050704956,-0.0913243517279625,0.04214970022439957
1702058816580135700,12.5241357421875,-0.5403103232383728,-0.10797043144702911,0.07177666574716568
1702058816597140000,12.541139892578125,-0.5873469114303589,-0.10720685124397278,0.09208793938159943
1702058816614132200,12.55813232421875,-0.6392704844474792,-0.09789115190505981,0.11453723162412643
1702058816631127000,12.575126953125,-0.7050912380218506,-0.10064005106687546,0.13484850525856018
1702058816648120600,12.59212060546875,-0.7915286421775818,-0.10125091671943665,0.14996741712093353
1702058816665114000,12.609114013671874,-0.901637077331543,-0.08368854224681854,0.18127426505088806
1702058816682096000,12.62609619140625,-1.021519422531128,-0.08399397134780884,0.23350323736667633
1702058816699101200,12.64310107421875,-1.1184942722320557,-0.08246681094169617,0.28878653049468994
1702058816716095000,12.660094970703126,-1.2192870378494263,-0.07437284290790558,0.34147366881370544
1702058816733088500,12.677088623046876,-1.3494013547897339,-0.05451972410082817,0.3839288055896759
1702058816750081000,12.6940810546875,-1.4895949363708496,-0.019853120669722557,0.40424007177352905
1702058816767075600,12.71107568359375,-1.6055065393447876,0.004123340360820293,0.4109596014022827
1702058816784069400,12.7280693359375,-1.7165313959121704,0.030237829312682152,0.4415028691291809
1702058816801060400,12.745060302734375,-1.8348864316940308,0.03298672288656235,0.493731826543808
1702058816818047700,12.7620478515625,-1.965458869934082,0.03405573591589928,0.5393940210342407
1702058816835046100,12.779046142578125,-2.1111502647399902,0.06719517707824707,0.5816964507102966
1702058816852047600,12.796047607421874,-2.244318962097168,0.044745877385139465,0.6429356932640076
1702058816869034800,12.81303466796875,-2.3579399585723877,0.01710422709584236,0.6742424964904785
1702058816886026500,12.830026611328124,-2.447736978530884,-0.020311269909143448,0.6407976150512695
1702058816903014000,12.847013916015625,-2.493246555328369,-0.15332718193531036,0.5636758804321289
1702058816920020700,12.864020751953126,-2.509892463684082,-0.28298333287239075,0.48655417561531067
1702058816937011700,12.88101171875,-2.5439484119415283,-0.2799290120601654,0.4651738703250885
1702058816954004200,12.898004150390625,-2.587472438812256,-0.22143864631652832,0.5406157374382019
1702058816970998800,12.914998779296875,-2.6528351306915283,-0.2496911734342575,0.644768238067627
1702058816987992300,12.931992431640625,-2.7128524780273438,-0.384845107793808,0.7005097270011902
1702058817004986400,12.948986328125,-2.7507262229919434,-0.46960264444351196,0.675006091594696
1702058817021979000,12.965978759765624,-2.7423267364501953,-0.39446622133255005,0.6007859706878662
1702058817038972700,12.98297265625,-2.730262279510498,-0.3019201457500458,0.5416847467422485
1702058817055967500,12.999967529296875,-2.7452285289764404,-0.2929098904132843,0.5054910182952881
1702058817072949800,13.01694970703125,-2.777604341506958,-0.35750889778137207,0.5010622143745422
1702058817089951000,13.033950927734375,-2.819143056869507,-0.4034765064716339,0.5245805382728577
1702058817106950000,13.050949951171875,-2.8321239948272705,-0.33078351616859436,0.5636758804321289
1702058817123941400,13.06794140625,-2.79761004447937,-0.26969701051712036,0.5754350423812866
1702058817140931300,13.084931396484375,-2.760805368423462,-0.2791654169559479,0.5390886068344116
1702058817157920500,13.10192041015625,-2.7261388301849365,-0.3019201457500458,0.4758640229701996
1702058817174922000,13.118921875,-2.652224063873291,-0.3220787048339844,0.4331034719944
1702058817191915500,13.13591552734375,-2.5608997344970703,-0.3718642294406891,0.42760565876960754
1702058817208909000,13.152908935546876,-2.487901449203491,-0.3703370690345764,0.4386012554168701
1702058817225901800,13.16990185546875,-2.395813465118408,-0.3199406862258911,0.42989641427993774
1702058817242896400,13.186896484375,-2.230727195739746,-0.25732699036598206,0.36621370911598206
1702058817259890200,13.20389013671875,-2.0037906169891357,-0.19013181328773499,0.27382034063339233
1702058817276883500,13.220883544921875,-1.746311068534851,-0.2041817009449005,0.20586158335208893
1702058817293872000,13.2378720703125,-1.5448782444000244,-0.23228150606155396,0.16630806028842926
1702058817310875000,13.254875,-1.4653129577636719,-0.24388794600963593,0.1560760736465454
1702058817327854000,13.27185400390625,-1.5034921169281006,-0.2373211532831192,0.17440202832221985
1702058817344857900,13.28885791015625,-1.5909985303878784,-0.20463985204696655,0.1999056488275528
1702058817361850600,13.3058505859375,-1.6303993463516235,-0.1875356286764145,0.19028452038764954
1702058817378845200,13.32284521484375,-1.5766432285308838,-0.2220495194196701,0.15347988903522491
1702058817395831300,13.339831298828125,-1.4895949363708496,-0.204487144947052,0.12186761945486069
1702058817412829700,13.35682958984375,-1.4132367372512817,-0.16752979159355164,0.10461067408323288
1702058817429827600,13.37382763671875,-1.3555099964141846,-0.15103642642498016,0.09514226019382477
1702058817446819600,13.390819580078125,-1.3391693830490112,-0.09758572280406952,0.08536841720342636
1702058817463813000,13.407813232421875,-1.3322970867156982,-0.06062837690114975,0.08399397134780884
1702058817480808700,13.42480859375,-1.3310753107070923,-0.07376197725534439,0.12247848510742188
1702058817497799200,13.441799072265624,-1.3826935291290283,-0.10354165732860565,0.1820378452539444
1702058817514794000,13.4587939453125,-1.429271936416626,-0.10262536257505417,0.21899518370628357
1702058817531787500,13.47578759765625,-1.4457653760910034,-0.07635815441608429,0.2116648107767105
1702058817548781000,13.492781005859374,-1.395521640777588,0.0708603709936142,0.1612684279680252
1702058817565773800,13.50977392578125,-1.2768610715866089,0.0832303911447525,0.15256360173225403
1702058817582765800,13.526765869140625,-1.1476631164550781,-0.0019853119738399982,0.1915062516927719
1702058817599764200,13.54376416015625,-1.0713049173355103,-0.01114829070866108,0.2275473028421402
1702058817616755500,13.56075537109375,-1.0667234659194946,0.03191770985722542,0.2643519341945648
1702058817633748000,13.577748046875,-1.1154398918151855,0.039706241339445114,0.2799290120601654
1702058817650742800,13.59474267578125,-1.1707231998443604,0.03329215571284294,0.2675589919090271
1702058817667736300,13.611736328125,-1.214094638824463,0.027947084978222847,0.24755313992500305
1702058817684729900,13.628729736328125,-1.2229522466659546,0.023060163483023643,0.23747386038303375
1702058817701722400,13.645722412109375,-1.1910345554351807,0.0013744467869400978,0.2269364446401596
1702058817718720500,13.662720458984374,-1.1391109228134155,-0.017867809161543846,0.20922134816646576
1702058817735710700,13.679710693359375,-1.0903944969177246,-0.04657847434282303,0.18249599635601044
1702058817752701000,13.696700927734375,-1.0491610765457153,-0.03649919852614403,0.1739438772201538
1702058817769700400,13.713700439453126,-1.0384708642959595,-0.048258353024721146,0.18020524084568024
1702058817786691300,13.73069140625,-1.0207557678222656,-0.05115996301174164,0.18585574626922607
1702058817803682300,13.747682373046874,-0.9680687189102173,-0.03833179548382759,0.18845193088054657
1702058817820681200,13.76468115234375,-0.8949176073074341,-0.04948008432984352,0.18845193088054657
1702058817837671200,13.781671142578125,-0.8400924205780029,-0.0659734457731247,0.19517144560813904
1702058817854665700,13.798665771484375,-0.840397834777832,-0.09972374886274338,0.21441370248794556
1702058817871659500,13.815659423828125,-0.8894197940826416,-0.13072516024112701,0.2298380434513092
1702058817888653000,13.832653076171875,-0.9221010804176331,-0.10552696883678436,0.23121249675750732
1702058817905643300,13.849643310546876,-0.88987797498703,-0.07819075137376785,0.21563543379306793
1702058817922642700,13.866642578125,-0.8292495608329773,-0.05726861581206322,0.2015855312347412
1702058817939627000,13.883626953125,-0.7742717266082764,-0.024587325751781464,0.20494529604911804
1702058817956624000,13.900623779296875,-0.7414376735687256,0.01191187184303999,0.2116648107767105
1702058817973623600,13.91762353515625,-0.716697633266449,0.04245513305068016,0.17928895354270935
1702058817990616800,13.934616943359375,-0.6539312601089478,0.08628471940755844,0.12721268832683563
1702058818007603500,13.951603515625,-0.5755877494812012,0.09514226019382477,0.08964447677135468
1702058818024604400,13.9686044921875,-0.49006664752960205,0.09224065393209457,0.07040221989154816
1702058818041594400,13.985594482421876,-0.4488332271575928,0.10170906037092209,0.05971207842230797
1702058818058589000,14.0025888671875,-0.4346306324005127,0.11484266817569733,0.03695734590291977
1702058818075582500,14.01958251953125,-0.4369213581085205,0.13148874044418335,0.027947084978222847
1702058818092576300,14.036576171875,-0.4251621961593628,0.09636399149894714,0.02886338345706463
1702058818109568800,14.05356884765625,-0.3602577745914459,0.07590000331401825,0.039248090237379074
1702058818126563300,14.070563232421875,-0.2889392673969269,0.06230825558304787,0.07406741380691528
1702058818143556900,14.087556884765625,-0.24465152621269226,0.049785517156124115,0.10797043144702911
1702058818160550400,14.10455029296875,-0.20494529604911804,0.04841107130050659,0.14309518039226532
1702058818177543000,14.12154296875,-0.20754146575927734,0,0.1592831164598465
1702058818194527500,14.138527587890625,-0.2151772826910019,-0.007024950347840786,0.1488984078168869
1702058818211531300,14.15553125,-0.19975294172763824,-0.018478672951459885,0.13148874044418335
1702058818228525000,14.172525146484375,-0.15592335164546967,-0.055283304303884506,0.12980885803699493
1702058818245507000,14.189507080078124,-0.08750644326210022,-0.07162395119667053,0.1359175145626068
1702058818262512000,14.20651220703125,-0.048258353024721146,-0.05009094998240471,0.13225232064723969
1702058818279505700,14.223505615234375,-0.06459899991750717,-0.032681290060281754,0.10934487730264664
1702058818296499200,14.240499267578125,-0.08903361111879349,-0.02672535367310047,0.08475755155086517
1702058818313491700,14.25749169921875,-0.09483683109283447,-0.04398229718208313,0.05925392732024193
1702058818330486500,14.274486572265625,-0.09758572280406952,-0.06200282275676727,0.04902193695306778
1702058818347478000,14.29147802734375,-0.08933904021978378,-0.06414084881544113,0.05390885844826698
1702058818364461300,14.30846142578125,-0.07391469180583954,-0.02672535367310047,0.05192354694008827
1702058818381466000,14.325466064453124,-0.07376197725534439,-0.01924225501716137,0.05513058975338936
1702058818398461000,14.3424609375,-0.07177666574716568,-0.02367102913558483,0.05650503560900688
1702058818415444000,14.35944384765625,-0.10262536257505417,-0.001527163083665073,0.05390885844826698
1702058818432448000,14.376447998046874,-0.13072516024112701,0.007024950347840786,0.04612032696604729
1702058818449440800,14.393440673828126,-0.10766500234603882,0.00809396430850029,0.032681290060281754
1702058818466435300,14.410435302734374,-0.03649919852614403,0.021074850112199783,0.021074850112199783
1702058818483428900,14.427428955078126,0.010690141469240189,0.014049900695681572,0.00855211354792118
1702058818500422400,14.44442236328125,-0.001832595793530345,0.017562376335263252,0.007788531947880983
1702058818517415000,14.461414794921875,-0.04199698567390442,0.017409659922122955,0.012828170321881771
1702058818534399000,14.47839892578125,-0.05192354694008827,0.00931569468230009,0.01191187184303999
1702058818551403300,14.4954033203125,-0.024587325751781464,0.02535090781748295,0.0027488935738801956
1702058818568395800,14.512395751953125,-0.006719517521560192,0.027947084978222847,-0.0029016099870204926
1702058818585390600,14.529390625,-0.022143865004181862,0.011759156361222267,0.0024434609804302454
1702058818602381300,14.54638134765625,-0.058184914290905,-0.02015855349600315,0.012064588256180286
1702058818619377700,14.563377685546875,-0.08139779418706894,-0.00855211354792118,0.0074830991216003895
1702058818636373800,14.580373779296876,-0.0780380368232727,0.009926560334861279,-0.015271631069481373
1702058818653363700,14.59736376953125,-0.07040221989154816,0.015577063895761967,-0.032528575509786606
1702058818670358500,14.614358642578125,-0.05451972410082817,0.036041051149368286,-0.03588833287358284
1702058818687351800,14.631351806640625,-0.044287730008363724,-0.00427605677396059,-0.02535090781748295
1702058818704345600,14.648345703125,-0.04703662544488907,-0.025961773470044136,-0.012675453908741474
1702058818721338000,14.665338134765625,-0.05100724846124649,0.001832595793530345,-0.008399397134780884
1702058818738332700,14.682332763671875,-0.029168816283345222,0.007177666760981083,-0.01878410577774048
1702058818755326500,14.699326416015625,-0.007941247895359993,-0.006261368747800589,-0.031001411378383636
1702058818772319700,14.71631982421875,-0.007788531947880983,-0.006872233934700489,-0.038026362657547
1702058818789302300,14.73330224609375,-0.006719517521560192,-0.020311269909143448,-0.03084869496524334
1702058818806307300,14.750307373046875,0.021380282938480377,0.004734205547720194,-0.018020525574684143
1702058818823300600,14.767300537109374,0.03955352306365967,0.01817324012517929,-0.014966198243200779
1702058818840294400,14.78429443359375,0.037110064178705215,-0.002138028386980295,-0.00931569468230009
1702058818857287200,14.801287109375,0.021380282938480377,-0.0012217304902151227,-0.00366519158706069
1702058818874281500,14.818281494140624,0.006872233934700489,0.01664607785642147,-0.0019853119738399982
1702058818891275300,14.835275146484374,-0.001832595793530345,0.01863138936460018,0.0010690141934901476
1702058818908268800,14.852268798828124,-0.035582900047302246,0.031001411378383636,0.00366519158706069
1702058818925250800,14.869250732421875,-0.07696902006864548,0.02825251780450344,0.013439035043120384
1702058818942255900,14.886255859375,-0.06551529467105865,0.020311269909143448,0.023976460099220276
1702058818959249400,14.90324951171875,-0.022143865004181862,0.045204028487205505,0.02580905705690384
1702058818976243000,14.920242919921876,0.014813481830060482,0.05451972410082817,0.03298672288656235
1702058818993235700,14.937235595703125,0.020005837082862854,0.01618792861700058,0.05604688450694084
1702058819010230300,14.954230224609375,-0.007635815534740686,0.016035212203860283,0.06368270516395569
1702058819027223600,14.9712236328125,-0.038026362657547,0.019853120669722557,0.054367005825042725
1702058819044217300,14.98821728515625,-0.04077525436878204,0.03894266113638878,0.032681290060281754
1702058819061200600,15.00520068359375,0.02733621932566166,0.03588833287358284,0.013439035043120384
1702058819078204700,15.02220458984375,0.058337632566690445,0.031154127791523933,0.011759156361222267
1702058819095198200,15.0391982421875,0.05360342562198639,0.017867809161543846,0.011453723534941673
1702058819112191700,15.056191650390625,0.02535090781748295,0.025656340643763542,0.008399397134780884
1702058819129184500,15.0731845703125,0.02015855349600315,0.0074830991216003895,0.00931569468230009
1702058819146178800,15.0901787109375,0.04245513305068016,0.03084869496524334,-0.0006108652451075613
1702058819163172600,15.107172607421875,0.09957103431224823,0.03634648025035858,-0.004581489134579897
1702058819180166100,15.124166259765625,0.14019356667995453,0.04734205827116966,-0.005192354787141085
1702058819197158700,15.14115869140625,0.09758572280406952,0.05467243865132332,-0.006872233934700489
1702058819214153200,15.1581533203125,0.013439035043120384,0.017562376335263252,0.0029016099870204926
1702058819231136500,15.175136474609374,-0.05726861581206322,0.014202617108821869,0.013897184282541275
1702058819248139800,15.192139892578124,-0.0734565481543541,0.021838432177901268,0.018936822190880775
1702058819265133800,15.2091337890625,-0.025045474991202354,0.012675453908741474,0.011759156361222267
1702058819282117400,15.226117431640626,0.0013744467869400978,0.011453723534941673,0.003817907767370343
1702058819299121200,15.24312109375,-0.016035212203860283,0.006261368747800589,-0.004123340360820293
1702058819316109800,15.26010986328125,-0.05619960278272629,0.009621127508580685,-0.013744467869400978
1702058819333107500,15.277107421875,-0.07330382615327835,-0.01878410577774048,-0.019089538604021072
1702058819350102000,15.29410205078125,-0.04764748737215996,-0.02886338345706463,-0.013744467869400978
1702058819367097600,15.31109765625,-0.025503624230623245,-0.01924225501716137,-0.0025961773935705423
1702058819384074200,15.32807421875,-0.0012217304902151227,-0.001679879380390048,-0.003359758760780096
1702058819401083600,15.345083740234376,0.017562376335263252,0.004123340360820293,-0.011759156361222267
1702058819418079000,15.362078857421874,0.03420845419168472,0.0003054326225537807,-0.028099801391363144
1702058819435068400,15.379068359375,0.05925392732024193,-0.015577063895761967,-0.043676864355802536
1702058819452063500,15.3960634765625,0.062460970133543015,0.0039706239476799965,-0.05696318298578262
1702058819469052000,15.413052001953124,0.03375030308961868,0.008246680721640587,-0.05619960278272629
1702058819486055200,15.43005517578125,0.020005837082862854,0.02626720629632473,-0.053297992795705795
1702058819503044400,15.44704443359375,0.04764748737215996,0.01878410577774048,-0.043676864355802536
1702058819520027600,15.464027587890625,0.07330382615327835,0.0074830991216003895,-0.019547687843441963
1702058819537030700,15.48103076171875,0.053297992795705795,-0.00045814894838258624,0.01038470957428217
1702058819554025200,15.498025146484375,0.01114829070866108,0.0027488935738801956,0.03649919852614403
1702058819571018800,15.515018798828125,-0.04596760869026184,0.016951510682702065,0.049785517156124115
1702058819588012500,15.532012451171875,-0.06765332818031311,0.022449297830462456,0.04902193695306778
1702058819605004800,15.5490048828125,-0.03726277872920036,0.0022907445672899485,0.04612032696604729
1702058819621999600,15.56599951171875,-0.0032070425804704428,0.00045814894838258624,0.04917465150356293
1702058819638993700,15.58299365234375,0.017867809161543846,-0.0007635815418325365,0.04902193695306778
1702058819655986400,15.599986328125,0.009162978269159794,0.009926560334861279,0.048716504126787186
1702058819672970200,15.61697021484375,-0.015882495790719986,-0.00931569468230009,0.052839845418930054
1702058819689971500,15.633971435546876,-0.04352414980530739,-0.024587325751781464,0.04993823543190956
1702058819706970400,15.650970458984375,-0.06123924255371094,-0.01771509274840355,0.031154127791523933
1702058819723961000,15.667961181640624,-0.04963280260562897,-0.01038470957428217,0.005955935921519995
1702058819740953600,15.68495361328125,-0.017409659922122955,-0.010842857882380486,-0.009162978269159794
1702058819757938000,15.70193798828125,0.00809396430850029,-0.008704829961061478,-0.009926560334861279
1702058819774942000,15.71894189453125,0.0027488935738801956,0.0003054326225537807,0.0027488935738801956
1702058819791921400,15.73592138671875,-0.020922135561704636,-0.005803219974040985,0.013591751456260681
1702058819808928300,15.75292822265625,-0.04902193695306778,-0.013744467869400978,0.01618792861700058
1702058819825922800,15.7699228515625,-0.06887505948543549,-0.029626963660120964,0.02168571576476097
1702058819842916400,15.786916259765626,-0.08827003091573715,-0.022907447069883347,0.022449297830462456
1702058819859908900,15.803908935546875,-0.09773843735456467,-0.009926560334861279,0.021074850112199783
1702058819876894000,15.82089404296875,-0.07941248267889023,-0.003054326167330146,0.02886338345706463
1702058819893897200,15.837897216796875,-0.041691552847623825,-0.0009162978967651725,0.037110064178705215
1702058819910891000,15.85489111328125,-0.01970040425658226,-0.014508049935102463,0.036651913076639175
1702058819927873800,15.871873779296875,-0.027488935738801956,-0.016035212203860283,0.02168571576476097
1702058819944876800,15.888876708984375,-0.04993823543190956,-0.027030786499381065,0.007177666760981083
1702058819961871600,15.90587158203125,-0.051312681287527084,-0.03405573591589928,-0.00045814894838258624
1702058819978865200,15.922865234375,-0.02687807008624077,-0.03481931984424591,-0.005803219974040985
1702058819995858700,15.939858642578125,-0.006261368747800589,-0.03894266113638878,-0.013286318629980087
1702058820012851500,15.9568515625,0.007941247895359993,-0.021532999351620674,-0.029932396486401558
1702058820029843200,15.97384326171875,0.006261368747800589,-0.007024950347840786,-0.04214970022439957
1702058820046842000,15.990842041015625,-0.009468411095440388,-0.02015855349600315,-0.03985895588994026
1702058820063838200,16.007838134765624,-0.03481931984424591,-0.03420845419168472,-0.02733621932566166
1702058820080830000,16.024829833984374,-0.05268712714314461,-0.02672535367310047,-0.0064140851609408855
1702058820097818600,16.041818603515626,-0.058948494493961334,-0.006108652334660292,0.012064588256180286
1702058820114813700,16.058813720703125,-0.03573561832308769,0.018936822190880775,0.015882495790719986
1702058820131791000,16.075791015625,0.001527163083665073,0.022143865004181862,0.013286318629980087
1702058820148802600,16.092802490234376,0.018325956538319588,0.003359758760780096,0.013439035043120384
1702058820165794600,16.109794677734374,-0.003817907767370343,0.001527163083665073,0.016798794269561768
1702058820182785800,16.126785888671876,-0.028099801391363144,0.01924225501716137,0.010537425056099892
1702058820199784200,16.1437841796875,-0.031612277030944824,0.0354301854968071,-0.0012217304902151227
1702058820216774400,16.1607744140625,-0.02321287989616394,0.020463986322283745,-0.0024434609804302454
1702058820233769000,16.17776904296875,-0.013591751456260681,-0.008246680721640587,0.012064588256180286
1702058820250762500,16.194762451171876,-0.005039638374000788,-0.007941247895359993,0.02229658141732216
1702058820267756000,16.211756103515626,0.03955352306365967,0.0064140851609408855,0.016493361443281174
1702058820284738300,16.22873828125,0.098502017557621,0.012064588256180286,0.004886921960860491
1702058820301741600,16.245741455078125,0.09911288321018219,-0.013897184282541275,-0.0022907445672899485
1702058820318738700,16.26273876953125,0.03726277872920036,-0.023976460099220276,-0.015882495790719986
1702058820335729400,16.2797294921875,0.01572977937757969,-0.001679879380390048,-0.041233405470848083
1702058820352720400,16.296720458984375,0.07238753139972687,0.022602014243602753,-0.06001751124858856
1702058820369720300,16.31372021484375,0.13820825517177582,0.02825251780450344,-0.057879481464624405
1702058820386703400,16.330703369140625,0.154396191239357,0.024892758578062057,-0.04046982154250145
1702058820403704800,16.347704833984373,0.10705413669347763,-0.0006108652451075613,-0.017562376335263252
1702058820420694800,16.36469482421875,0.06643159687519073,0.022907447069883347,-0.003512475173920393
1702058820437694700,16.38169482421875,0.054825156927108765,0.037110064178705215,0.001679879380390048
1702058820454685700,16.398685791015627,0.02580905705690384,0.04505131021142006,0.004734205547720194
1702058820471679200,16.41567919921875,0.00366519158706069,0.04993823543190956,0.008399397134780884
1702058820488672000,16.432672119140626,0.026419922709465027,0.031612277030944824,0.013286318629980087
1702058820505656600,16.449656494140626,0.08552113175392151,0.04108068719506264,0.002138028386980295
1702058820522660000,16.46666015625,0.1586722433567047,0.06291911751031876,-0.01160643994808197
1702058820539653600,16.483653564453125,0.21303924918174744,0.06841690838336945,-0.025961773470044136
1702058820556646400,16.500646484375,0.24159720540046692,0.041233405470848083,-0.04184427112340927
1702058820573640700,16.517640625,0.24602597951889038,0.05360342562198639,-0.04749477282166481
1702058820590625000,16.534625,0.26862800121307373,0.055741455405950546,-0.04046982154250145
1702058820607628300,16.551628173828124,0.3550654351711273,0.06154467165470123,-0.02626720629632473
1702058820624620500,16.56862060546875,0.485027015209198,0.08261952549219131,-0.016035212203860283
1702058820641615000,16.585614990234376,0.637132465839386,0.08399397134780884,-0.016798794269561768
1702058820658609000,16.60260888671875,0.7493789196014404,0.06933320313692093,-0.04108068719506264
1702058820675602400,16.6196025390625,0.8171849846839905,0.06291911751031876,-0.06918048858642578
1702058820692595000,16.636594970703126,0.8544477820396423,0.0806342139840126,-0.08704829961061478
1702058820709591300,16.65359130859375,0.9048441648483276,0.12140946835279465,-0.10323622822761536
1702058820726581200,16.670581298828125,1.0175487995147705,0.13988813757896423,-0.1391245573759079
1702058820743576800,16.687576904296876,1.1954632997512817,0.1411098688840866,-0.18387043476104736
1702058820760569000,16.704569091796873,1.404226541519165,0.15485434234142303,-0.23365595936775208
1702058820777564200,16.721564208984375,1.5755741596221924,0.21792617440223694,-0.289702832698822
1702058820794557700,16.7385576171875,1.739438772201538,0.3614795207977295,-0.33337971568107605
1702058820811551500,16.755551513671875,1.9301815032958984,0.44837507605552673,-0.32879820466041565
1702058820828540700,16.772540771484376,2.168877124786377,0.41111230850219727,-0.2606867551803589
1702058820845540900,16.789540771484376,2.353511095046997,0.24938572943210602,-0.17531833052635193
1702058820862531800,16.80653173828125,2.4407119750976562,0.17821992933750153,-0.15302173793315887
1702058820879516000,16.823515869140625,2.6206119060516357,0.3142901659011841,-0.2431243658065796
1702058820896518100,16.84051806640625,2.9746084213256836,0.44287729263305664,-0.39996400475502014
1702058820913512700,16.8575126953125,3.3901493549346924,0.3286454975605011,-0.5181664228439331
1702058820930506000,16.874506103515625,3.689931631088257,0.054367005825042725,-0.5725334286689758
1702058820947500000,16.8915,3.8760926723480225,-0.06551529467105865,-0.59803706407547
1702058820964492500,16.908492431640624,3.999945640563965,0.09453139454126358,-0.612850546836853
1702058820981487000,16.925487060546875,4.217260837554932,0.3280346393585205,-0.6301075220108032
1702058820998480600,16.942480712890625,4.413043022155762,0.35216382145881653,-0.694553792476654
1702058821015471900,16.959471923828126,4.420220851898193,0.48426342010498047,-0.827722430229187
1702058821032469200,16.97646923828125,4.399604320526123,0.7774787545204163,-0.9100365042686462
1702058821049461500,16.99346142578125,4.413043022155762,0.8633053302764893,-0.8856018781661987
1702058821066455000,17.010455078125,4.33256196975708,0.7567093372344971,-0.9538660645484924
1702058821083448600,17.027448486328126,4.193742752075195,0.21884247660636902,-1.1001683473587036
1702058821100441000,17.044441162109376,3.989560842514038,0.18799377977848053,-1.3208433389663696
1702058821117436000,17.061435791015626,3.944204092025757,0.48029279708862305,-1.4504995346069336
1702058821134429400,17.078429443359376,4.138917446136475,0.7654141783714294,-1.377501130104065
1702058821151423000,17.095423095703126,4.323551654815674,0.44654250144958496,-1.2953397035598755
1702058821168415500,17.11241552734375,4.410905361175537,-0.02687807008624077,-1.2142473459243774
1702058821185410000,17.12941015625,4.215428352355957,-0.1258382350206375,-1.1491901874542236
1702058821202401000,17.146401123046875,3.9048032760620117,0.24098633229732513,-1.0850493907928467
1702058821219400400,17.163400390625,3.8921279907226562,0.44745880365371704,-0.6843217611312866
1702058821236390000,17.180389892578123,3.963904619216919,0.5525276064872742,-0.43249258399009705
1702058821253376500,17.19737646484375,3.992309808731079,0.451123982667923,-0.2788599729537964
1702058821270376200,17.214376220703127,3.9468002319335938,0.34865134954452515,-0.24908030033111572
1702058821287371800,17.231371826171873,3.791640520095825,0.42180246114730835,-0.3871358633041382
1702058821304364300,17.2483642578125,3.5825719833374023,0.5412266254425049,-0.6432411074638367
1702058821321358800,17.26535888671875,3.339447498321533,0.5285511612892151,-0.9011789560317993
1702058821338352600,17.2823525390625,3.084869384765625,0.4824308156967163,-0.9720393419265747
1702058821355346200,17.29934619140625,2.753016948699951,0.18555031716823578,-0.9393580555915833
1702058821372338400,17.31633837890625,2.3302981853485107,0.10461067408323288,-0.9056077003479004
1702058821389333200,17.333333251953125,1.9060522317886353,0.12476922571659088,-0.8904888033866882
1702058821406308000,17.35030810546875,1.6995798349380493,0.14935655891895294,-0.8790351152420044
1702058821423320600,17.367320556640625,1.5383113622665405,0.1440114825963974,-0.7725918292999268
1702058821440312800,17.384312744140626,1.2820534706115723,0.10720685124397278,-0.6090326309204102
1702058821457307600,17.4013076171875,1.119410514831543,0.07712173461914062,-0.43157628178596497
1702058821474301200,17.41830126953125,0.9740246534347534,0.18341228365898132,-0.3208569586277008
1702058821491294700,17.435294677734376,0.8765916228294373,0.28267788887023926,-0.2632829248905182
1702058821508277000,17.452277099609375,0.8229882121086121,0.3202461004257202,-0.22510384023189545
1702058821525282000,17.469281982421876,0.7554876208305359,0.24266621470451355,-0.1837177276611328
1702058821542275600,17.486275634765626,0.6491970419883728,0.18738290667533875,-0.1108720451593399
1702058821559269000,17.50326904296875,0.5271766781806946,0.14278975129127502,-0.028557950630784035
1702058821576252700,17.520252685546875,0.4112650156021118,0.08597928285598755,0.027641652151942253
1702058821593255200,17.537255126953124,0.3376557528972626,0.062460970133543015,0.05360342562198639
1702058821610251500,17.55425146484375,0.3084869384765625,0.02122756652534008,0.016340645030140877
1702058821627235000,17.571235107421874,0.3029891550540924,-0.0019853119738399982,-0.05742133408784866
1702058821644225800,17.588225830078127,0.2893974184989929,-0.013897184282541275,-0.08796459436416626
1702058821661235700,17.605235595703125,0.23426681756973267,-0.01710422709584236,-0.07391469180583954
1702058821678224400,17.622224365234374,0.17928895354270935,-0.0377209298312664,-0.036193765699863434
1702058821695215000,17.639215087890626,0.18417587876319885,-0.05161811411380768,-0.019547687843441963
1702058821712213200,17.656213134765625,0.2194533348083496,-0.02626720629632473,-0.036193765699863434
1702058821729194500,17.673194580078125,0.23426681756973267,0.010995574295520782,-0.06505715101957321
1702058821746197500,17.690197509765625,0.18051068484783173,0.045204028487205505,-0.0705549344420433
1702058821763193600,17.707193603515623,0.07971791177988052,0.055283304303884506,-0.025045474991202354
1702058821780184800,17.724184814453125,-0.013591751456260681,0.014202617108821869,0.030695978552103043
1702058821797169000,17.7411689453125,-0.05772676691412926,0.03222314268350601,0.06017022579908371
1702058821814174200,17.75817431640625,-0.04948008432984352,0.05971207842230797,0.04657847434282303
1702058821831166700,17.775166748046875,-0.013744467869400978,0.08078692853450775,0.0022907445672899485
1702058821848156700,17.79215673828125,0.011301007121801376,0.08078692853450775,-0.018936822190880775
1702058821865156600,17.809156494140623,0.00809396430850029,0.05467243865132332,-0.00045814894838258624
1702058821882147600,17.826147705078125,-0.018325956538319588,0.058795779943466187,0.05100724846124649
1702058821899140900,17.843140869140626,-0.027488935738801956,0.03039054572582245,0.09514226019382477
1702058821916133600,17.860133544921876,-0.0022907445672899485,0.003512475173920393,0.09789115190505981
1702058821933128200,17.877128173828126,0.03222314268350601,-0.00733038317412138,0.05268712714314461
1702058821950121700,17.894121826171876,0.04459316283464432,0.013133603148162365,0.00427605677396059
1702058821967115300,17.911115234375,0.04352414980530739,-0.011453723534941673,-0.00809396430850029
1702058821984107800,17.928107666015624,0.03237585723400116,-0.028099801391363144,0.01114829070866108
1702058822001100800,17.945100830078125,0.035582900047302246,-0.02626720629632473,0.044287730008363724
1702058822018098200,17.96209814453125,0.06383541971445084,-0.01160643994808197,0.05772676691412926
1702058822035079200,17.9790791015625,0.11789698898792267,-0.006108652334660292,0.04138612002134323
1702058822052075000,17.996074951171874,0.15241087973117828,-0.008704829961061478,0.004123340360820293
1702058822069074200,18.01307421875,0.15653422474861145,-0.0065668015740811825,-0.024892758578062057
1702058822086070500,18.030070556640624,0.1511891484260559,0.006872233934700489,-0.04046982154250145
1702058822103064000,18.04706396484375,0.14614951610565186,0.0065668015740811825,-0.03940080851316452
1702058822120054000,18.064053955078126,0.1463022232055664,-0.004886921960860491,-0.0377209298312664
1702058822137054000,18.081053955078126,0.15332718193531036,-0.009926560334861279,-0.051312681287527084
1702058822154045000,18.098044921875,0.15393804013729095,0.031154127791523933,-0.0682641938328743
1702058822171038500,18.11503857421875,0.1339322030544281,0.043218716979026794,-0.07284568250179291
1702058822188029000,18.13202880859375,0.10018189996480942,0.014966198243200779,-0.051312681287527084
1702058822205027800,18.14902783203125,0.06627888232469559,-0.02428189292550087,-0.014508049935102463
1702058822222019000,18.16601904296875,0.04260785132646561,-0.055741455405950546,0.003817907767370343
1702058822239023000,18.183023193359375,0.05742133408784866,-0.04001167416572571,-0.01817324012517929
1702058822256005400,18.20000537109375,0.07895433157682419,0.01863138936460018,-0.060933809727430344
1702058822273000200,18.217000244140625,0.08277224004268646,0.054367005825042725,-0.08888089656829834
1702058822289980000,18.23397998046875,0.04932736977934837,0.03222314268350601,-0.07651086896657944
1702058822306987300,18.2509873046875,0.0003054326225537807,-0.03833179548382759,-0.032528575509786606
1702058822323979800,18.267979736328126,-0.046273041516542435,-0.08414668589830399,0.007177666760981083
1702058822340974300,18.284974365234376,-0.05864306539297104,-0.07299839705228806,0.013286318629980087
1702058822357968000,18.3019677734375,-0.04657847434282303,-0.05192354694008827,-0.00015271631127689034
1702058822374961700,18.318961669921876,-0.02977968007326126,-0.03741549700498581,-0.0065668015740811825
1702058822391954200,18.3359541015625,-0.036651913076639175,-0.04001167416572571,0.0025961773935705423
1702058822408948700,18.35294873046875,-0.05253441259264946,-0.05009094998240471,0.01160643994808197
1702058822425940000,18.36993994140625,-0.060933809727430344,-0.062460970133543015,0.007788531947880983
1702058822442928000,18.38692822265625,-0.0682641938328743,-0.03527746722102165,-0.0065668015740811825
1702058822459938800,18.403938720703124,-0.08628471940755844,-0.009010262787342072,-0.020463986322283745
1702058822476923400,18.42092333984375,-0.11636982858181,0.0024434609804302454,-0.023060163483023643
1702058822493916400,18.43791650390625,-0.13729196786880493,-0.006719517521560192,-0.0074830991216003895
1702058822510910500,18.454910400390624,-0.16371189057826996,-0.048258353024721146,0.02626720629632473
1702058822527901000,18.47190087890625,-0.17989981174468994,-0.08475755155086517,0.06169738993048668
1702058822544899300,18.4888994140625,-0.17012597620487213,-0.07452555745840073,0.07223481684923172
1702058822561891000,18.50589111328125,-0.15683965384960175,-0.05513058975338936,0.05849034711718559
1702058822578884600,18.522884521484375,-0.15515977144241333,-0.00733038317412138,0.03436116874217987
1702058822595877000,18.539877197265625,-0.1797471046447754,0.004886921960860491,0.02733621932566166
1702058822612871700,18.55687158203125,-0.2324342280626297,0.006719517521560192,0.02168571576476097
1702058822629865500,18.573865478515625,-0.3257438838481903,-0.0012217304902151227,0.01817324012517929
1702058822646856700,18.590856689453126,-0.44364088773727417,-0.052381694316864014,0.028099801391363144
1702058822663854000,18.60785400390625,-0.5410739183425903,-0.0806342139840126,0.04612032696604729
1702058822680847600,18.62484765625,-0.6108652353286743,-0.05772676691412926,0.06383541971445084
1702058822697835300,18.641835205078124,-0.6606507897377014,-0.04856378585100174,0.09682214260101318
1702058822714838300,18.65883837890625,-0.7327328324317932,-0.06520986557006836,0.1459967941045761
1702058822731826000,18.675825927734376,-0.854905903339386,-0.12079860270023346,0.19837848842144012
1702058822748820700,18.69282080078125,-1.0086911916732788,-0.164170041680336,0.23396138846874237
1702058822765814000,18.70981396484375,-1.1815661191940308,-0.10842858254909515,0.2669481039047241
1702058822782807800,18.726807861328126,-1.3167200088500977,-0.040164388716220856,0.3248275816440582
1702058822799800300,18.74380029296875,-1.4497359991073608,0.00366519158706069,0.3920227587223053
1702058822816795000,18.760794921875,-1.58259916305542,0.0029016099870204926,0.4651738703250885
1702058822833780500,18.777780517578126,-1.7508925199508667,-0.04352414980530739,0.5306891798973083
1702058822850782200,18.7947822265625,-1.9694294929504395,-0.08155050873756409,0.566730260848999
1702058822867762700,18.8117626953125,-2.1725423336029053,-0.03527746722102165,0.5803219676017761
1702058822884771800,18.828771728515626,-2.358550786972046,0.02687807008624077,0.6065891981124878
1702058822901763000,18.84576318359375,-2.515084981918335,0.01878410577774048,0.6650795340538025
1702058822918745000,18.8627451171875,-2.654362201690674,-0.07284568250179291,0.7409795522689819
1702058822935749000,18.8797490234375,-2.792264938354492,-0.168751522898674,0.7846564054489136
1702058822952743700,18.89674365234375,-2.941774368286133,-0.24236078560352325,0.765566885471344
1702058822969726700,18.913726806640625,-3.0744848251342773,-0.2594650089740753,0.7241807579994202
1702058822986730800,18.930730712890625,-3.1841351985931396,-0.27488934993743896,0.7231117486953735
1702058823003723500,18.9477236328125,-3.3102786540985107,-0.3497203588485718,0.7849618196487427
1702058823020718000,18.964718017578125,-3.38602614402771,-0.41752639412879944,0.8408560156822205
1702058823037711600,18.981711669921875,-3.4709362983703613,-0.41004329919815063,0.8487972617149353
1702058823054705200,18.998705078125,-3.5827245712280273,-0.35475999116897583,0.8336783647537231
1702058823071697700,19.01569775390625,-3.66534423828125,-0.2571742534637451,0.8295549750328064
1702058823088695300,19.0326953125,-3.6606099605560303,-0.2554943859577179,0.8568912148475647
1702058823105686000,19.04968603515625,-3.6158640384674072,-0.3500257730484009,0.8946121335029602
1702058823122669000,19.0666689453125,-3.555999279022217,-0.4560109078884125,0.9205739498138428
1702058823139672000,19.083672119140626,-3.4799466133117676,-0.4196644127368927,0.9579893946647644
1702058823156667000,19.1006669921875,-3.3993122577667236,-0.36972618103027344,0.983340322971344
1702058823173657900,19.117657958984374,-3.3315062522888184,-0.37262779474258423,0.9471465349197388
1702058823190656500,19.134656494140625,-3.282484292984009,-0.36453384160995483,0.8321511745452881
1702058823207646500,19.151646484375,-3.2029192447662354,-0.33887749910354614,0.6995934247970581
1702058823224650800,19.168650634765626,-3.0636420249938965,-0.2987131178379059,0.5850561857223511
1702058823241632300,19.18563232421875,-2.900693655014038,-0.2577851414680481,0.5267185568809509
1702058823258636300,19.20263623046875,-2.7313311100006104,-0.25793784856796265,0.4944954216480255
1702058823275620600,19.21962060546875,-2.5340218544006348,-0.2834414839744568,0.4584543704986572
1702058823292615400,19.236615478515624,-2.286621332168579,-0.2255619913339615,0.403323769569397
1702058823309609200,19.253609130859374,-2.062891960144043,-0.18417587876319885,0.3471241891384125
1702058823326602500,19.2706025390625,-1.9976820945739746,-0.15363261103630066,0.31031954288482666
1702058823343595800,19.287595703125,-1.9935587644577026,-0.1495092660188675,0.28130343556404114
1702058823360589300,19.30458935546875,-1.9999728202819824,-0.11972958594560623,0.2545780837535858
1702058823377583600,19.32158349609375,-2.0166189670562744,-0.0959058403968811,0.24083362519741058
1702058823394577000,19.338576904296875,-2.045940399169922,-0.05955936014652252,0.2506074607372284
1702058823411569700,19.355569580078125,-2.0199787616729736,-0.05665775015950203,0.27061331272125244
1702058823428564200,19.372564208984375,-1.948660135269165,-0.08735372871160507,0.29184088110923767
1702058823445557800,19.389557861328125,-1.866346001625061,-0.06887505948543549,0.28787025809288025
1702058823462551300,19.40655126953125,-1.8026633262634277,-0.04612032696604729,0.28725937008857727
1702058823479544000,19.4235439453125,-1.7330247163772583,-0.01725694350898266,0.2545780837535858
1702058823496538600,19.44053857421875,-1.6649131774902344,-0.019089538604021072,0.21181751787662506
1702058823513532200,19.4575322265625,-1.5905404090881348,-0.04077525436878204,0.19058994948863983
1702058823530515500,19.474515380859376,-1.5363260507583618,-0.05757404863834381,0.22357667982578278
1702058823547518500,19.4915185546875,-1.5175420045852661,-0.09147707372903824,0.29077184200286865
1702058823564513000,19.508512939453126,-1.5083789825439453,-0.17989981174468994,0.35705074667930603
1702058823581496000,19.52549609375,-1.468367338180542,-0.19028452038764954,0.34208452701568604
1702058823598500000,19.5425,-1.398576021194458,-0.10965031385421753,0.2750420868396759
1702058823615492400,19.559492431640624,-1.299310326576233,-0.04489859566092491,0.21563543379306793
1702058823632487400,19.5764873046875,-1.2589932680130005,-0.05360342562198639,0.1696678251028061
1702058823649481000,19.59348095703125,-1.257924199104309,-0.08032877743244171,0.14553864300251007
1702058823666475300,19.610475341796874,-1.2365440130233765,-0.05864306539297104,0.1466076523065567
1702058823683466200,19.62746630859375,-1.1731667518615723,-0.03680463135242462,0.1644754707813263
1702058823700461600,19.644461669921874,-1.0937541723251343,-0.02474004216492176,0.19807305932044983
1702058823717455000,19.661455078125,-1.0600038766860962,-0.07070764899253845,0.2373211532831192
1702058823734449000,19.678448974609374,-1.0615310668945312,-0.08048149943351746,0.2545780837535858
1702058823751441400,19.69544140625,-1.0795515775680542,-0.08170322328805923,0.247094988822937
1702058823768436000,19.71243603515625,-1.0832167863845825,-0.0529925599694252,0.23457226157188416
1702058823785429500,19.729429443359376,-1.0390818119049072,-0.03405573591589928,0.23380866646766663
1702058823802412800,19.746412841796875,-0.9899071455001831,-0.02229658141732216,0.23808473348617554
1702058823819415800,19.763415771484375,-0.973566472530365,-0.0328340083360672,0.23777928948402405
1702058823836410600,19.78041064453125,-0.9683741331100464,-0.011759156361222267,0.21960605680942535
1702058823853404000,19.79740380859375,-0.9347765445709229,0.002138028386980295,0.18585574626922607
1702058823870397700,19.814397705078125,-0.8607091307640076,0.021838432177901268,0.16035212576389313
1702058823887390200,19.83139013671875,-0.7675521969795227,0.015882495790719986,0.14614951610565186
1702058823904384800,19.848384765625,-0.6846272349357605,-0.039248090237379074,0.15943582355976105
1702058823921378300,19.86537841796875,-0.6553056836128235,-0.005192354787141085,0.13897185027599335
1702058823938370800,19.882370849609377,-0.6597344875335693,0.012828170321881771,0.12538009881973267
1702058823955366000,19.899365966796875,-0.6713408827781677,0.03329215571284294,0.11636982858181
1702058823972359000,19.91635888671875,-0.6507241725921631,0.04505131021142006,0.1310305893421173
1702058823989366800,19.93336669921875,-0.566119372844696,0.02580905705690384,0.18096883594989777
1702058824006346500,19.950346435546876,-0.4833471179008484,-0.031154127791523933,0.24129177629947662
1702058824023339000,19.967339111328126,-0.40072759985923767,-0.05314527451992035,0.25106561183929443
1702058824040333600,19.98433349609375,-0.3634648323059082,-0.001527163083665073,0.2154827117919922
1702058824057327000,20.0013271484375,-0.3344487249851227,0.04092797264456749,0.16554448008537292
1702058824074320600,20.018320556640624,-0.3084869384765625,0.07131851464509964,0.1235474944114685
1702058824091313200,20.035313232421874,-0.27290403842926025,0.06872233748435974,0.10354165732860565
1702058824108308200,20.05230810546875,-0.27947086095809937,0.058795779943466187,0.098502017557621
1702058824125301500,20.069301513671874,-0.29886582493782043,0.041233405470848083,0.09254608303308487
1702058824142295000,20.086294921875,-0.2782491147518158,0.04444044828414917,0.08857546001672745
1702058824159287600,20.10328759765625,-0.2093740701675415,0.09636399149894714,0.07483099400997162
1702058824176282000,20.1202822265625,-0.1437060534954071,0.0933096632361412,0.08124507963657379
1702058824193276000,20.13727587890625,-0.11438451707363129,0.07559457421302795,0.09498954564332962
1702058824210269400,20.15426953125,-0.11148291081190109,0.06719517707824707,0.08536841720342636
1702058824227253800,20.171253662109375,-0.1160643994808197,0.055741455405950546,0.05390885844826698
1702058824244256500,20.188256591796875,-0.11927144229412079,0.06765332818031311,0.02733621932566166
1702058824261250300,20.205250244140625,-0.10293079167604446,0.056352317333221436,0.02275473065674305
1702058824278243800,20.222243896484375,-0.08170322328805923,0.04260785132646561,0.029168816283345222
1702058824295236400,20.239236328125,-0.06398813426494598,0.03176499158143997,0.04046982154250145
1702058824312231000,20.25623095703125,-0.05314527451992035,0.034666601568460464,0.041233405470848083
1702058824329224400,20.273224365234373,-0.06215553730726242,0.02076941914856434,0.030543262138962746
1702058824346218200,20.29021826171875,-0.04596760869026184,-0.010842857882380486,0.011759156361222267
1702058824363208200,20.307208251953124,0.0003054326225537807,-0.026572637259960175,-0.013591751456260681
1702058824380208000,20.3242080078125,0.03756821155548096,-0.004428773187100887,-0.04184427112340927
1702058824397182500,20.341182373046873,0.0679587572813034,0.003054326167330146,-0.05971207842230797
1702058824414195700,20.35819580078125,0.08032877743244171,0.006872233934700489,-0.06108652427792549
1702058824431181800,20.375181884765624,0.07819075137376785,-0.010995574295520782,-0.056810468435287476
1702058824448179700,20.3921796875,0.08414668589830399,-0.01542434748262167,-0.043218716979026794
1702058824465173200,20.40917333984375,0.04214970022439957,-0.010079276748001575,-0.02321287989616394
1702058824482166800,20.426166748046874,-0.06872233748435974,0.007024950347840786,-0.005497787147760391
1702058824499159600,20.44315966796875,-0.16569720208644867,-0.0003054326225537807,0.020005837082862854
1702058824516153900,20.46015380859375,-0.19364428520202637,0.001527163083665073,0.03497203439474106
1702058824533147600,20.477147705078124,-0.18585574626922607,0.00366519158706069,0.04993823543190956
1702058824550141200,20.49414111328125,-0.17730364203453064,-0.007788531947880983,0.07116580009460449
1702058824567133700,20.5111337890625,-0.1745547503232956,-0.005497787147760391,0.0757472887635231
1702058824584129800,20.5281298828125,-0.14874568581581116,0.010079276748001575,0.05207626149058342
1702058824601120800,20.545120849609376,-0.10186178237199783,0.0025961773935705423,0.020463986322283745
1702058824618115600,20.562115478515626,-0.03833179548382759,-0.013286318629980087,-0.013439035043120384
1702058824635106300,20.579106201171875,0.008399397134780884,-0.009773843921720982,-0.04993823543190956
1702058824652104700,20.596104736328126,0.04657847434282303,0.009773843921720982,-0.08155050873756409
1702058824669096400,20.613096435546876,0.05772676691412926,-0.00045814894838258624,-0.08155050873756409
1702058824686085400,20.63008544921875,0.03375030308961868,-0.015271631069481373,-0.042760565876960754
1702058824703087000,20.647087158203124,0.012980886735022068,-0.031612277030944824,-0.0025961773935705423
1702058824720077000,20.6640771484375,0.0010690141934901476,-0.03481931984424591,0.012828170321881771
1702058824737070600,20.681070556640623,-0.03481931984424591,-0.021074850112199783,0.009010262787342072
