time,seconds_elapsed,z,y,x
1702060275192892700,0.056892578125,-2.5752551555633545,-2.2710442543029785,-0.14523321390151978
1702060275209703000,0.073702880859375,-2.6812403202056885,-1.552361249923706,-0.09498954564332962
1702060275226707700,0.090707763671875,-2.1317670345306396,-0.361174076795578,-0.07254024595022202
1702060275243690200,0.107690185546875,-0.8480336666107178,1.5234979391098022,-0.2551889419555664
1702060275260688000,0.12468798828125,0.5490151643753052,3.003319025039673,-0.47998735308647156
1702060275277686500,0.1416865234375,1.2087496519088745,3.142749071121216,-0.18188512325286865
1702060275294683600,0.15868359375,1.1317806243896484,2.20583438873291,0.45204028487205505
1702060275311668700,0.175668701171875,1.0865765810012817,0.5668829679489136,1.2124147415161133
1702060275328669700,0.192669677734375,1.3868168592453003,-0.2632829248905182,1.670716404914856
1702060275345666800,0.209666748046875,1.2791517972946167,-1.6337591409683228,0.8362745046615601
1702060275362660600,0.22666064453125,1.5053247213363647,-1.821447491645813,0.1235474944114685
1702060275379656000,0.243656005859375,1.8135062456130981,-2.2537872791290283,-0.014966198243200779
1702060275396646700,0.260646728515625,1.7336355447769165,-2.970332145690918,0.16783522069454193
1702060275413651200,0.277651123046875,1.4527902603149414,-3.609602689743042,0.6383541822433472
1702060275430639000,0.29463916015625,1.11391282081604,-3.712838888168335,1.0409144163131714
1702060275447628500,0.311628662109375,0.6249151229858398,-3.7274997234344482,1.1087204217910767
1702060275464625700,0.328625732421875,0.011759156361222267,-4.235739707946777,0.940121591091156
1702060275481621200,0.345621337890625,-0.45723262429237366,-5.043914318084717,1.1281154155731201
1702060275498611700,0.36261181640625,-0.7814493775367737,-5.976552963256836,1.5231925249099731
1702060275515608600,0.379608642578125,-1.1314750909805298,-6.712339878082275,1.7241671085357666
1702060275532603000,0.396602783203125,-1.0030407905578613,-6.119342803955078,1.8403842449188232
1702060275549598000,0.413597900390625,-0.5035057067871094,-4.949535846710205,1.751503348350525
1702060275566588700,0.430588623046875,-0.9254608750343323,-4.601800441741943,1.275792121887207
1702060275583585000,0.4475849609375,-1.5082262754440308,-3.7091736793518066,0.9236282706260681
1702060275600581400,0.464581298828125,-1.5323554277420044,-3.0051515102386475,0.8155050873756409
1702060275617570800,0.48157080078125,-1.311833143234253,-2.9349019527435303,0.8393288254737854
1702060275634568000,0.49856787109375,-1.059698462486267,-2.629011392593384,0.851393461227417
1702060275651563300,0.515563232421875,-1.1039862632751465,-1.9017761945724487,0.4486805200576782
1702060275668553200,0.53255322265625,-1.0308351516723633,-1.331380844116211,0.08231408894062042
1702060275685551900,0.5495517578125,-0.8151996731758118,-1.0534371137619019,0.22296582162380219
1702060275702545200,0.566545166015625,-0.7038694620132446,-1.4902057647705078,0.5531384944915771
1702060275719538400,0.583538330078125,-0.656069278717041,-1.3991868495941162,0.6646214127540588
1702060275736532700,0.60053271484375,-0.5723807215690613,-0.9775370955467224,0.49693888425827026
1702060275753527000,0.617527099609375,-0.5638286471366882,-0.6944010853767395,0.21884247660636902
1702060275770523400,0.6345234375,-0.6656904220581055,-0.7141014933586121,0.1765400618314743
1702060275787512800,0.651512939453125,-0.6805039048194885,-0.7985535860061646,0.2926044464111328
1702060275804518100,0.66851806640625,-0.5885686874389648,-0.6675229668617249,0.3949243724346161
1702060275821505800,0.685505859375,-0.3952298164367676,0.2073887437582016,0.256868839263916
1702060275838496000,0.70249609375,-0.34865134954452515,-0.11774427443742752,-0.47051894664764404
1702060275855493000,0.7194931640625,-0.48747047781944275,-0.14446963369846344,-0.7000515460968018
1702060275872487000,0.73648681640625,-0.6096435189247131,-0.05726861581206322,-0.5736024379730225
1702060275889482500,0.753482421875,-0.7116580009460449,0.04505131021142006,-0.2480112910270691
1702060275906469600,0.7704697265625,-0.7272350788116455,0.2070833146572113,0.0913243517279625
1702060275923469000,0.787468994140625,-0.5763513445854187,0.3784310221672058,0.2718350291252136
1702060275940465400,0.80446533203125,-0.46700647473335266,0.2168571650981903,0.2796235680580139
1702060275957455000,0.821455078125,-0.5931501388549805,0.21441370248794556,0.1941024363040924
1702060275974452200,0.8384521484375,-0.6866125464439392,0.4008803069591522,-0.0003054326225537807
1702060275991447800,0.85544775390625,-0.585667073726654,-0.24205535650253296,0.24007004499435425
1702060276008440000,0.872440185546875,-0.6091853380203247,-0.15012013912200928,0.4801400899887085
1702060276025435400,0.889435302734375,-0.6435465216636658,-0.19517144560813904,0.38759398460388184
1702060276042429400,0.906429443359375,-0.7000515460968018,-0.10491610318422318,0.31154128909111023
1702060276059424500,0.923424560546875,-0.7409795522689819,-0.08765916526317596,0.3202461004257202
1702060276076415200,0.940415283203125,-0.8083274364471436,-0.14813482761383057,0.29275718331336975
1702060276093411300,0.957411376953125,-0.8817839622497559,-0.16019940376281738,0.18509216606616974
1702060276110407700,0.97440771484375,-0.85994553565979,-0.08750644326210022,0.07788532227277756
1702060276127390200,0.99139013671875,-0.7874053120613098,0.0032070425804704428,0.11362093687057495
1702060276144396500,1.008396484375,-0.8187121152877808,-0.02626720629632473,0.21899518370628357
1702060276161397500,1.0253974609375,-1.006095051765442,-0.20311269164085388,0.2698497176170349
1702060276178388500,1.042388427734375,-1.1847730875015259,-0.3396410644054413,0.24266621470451355
1702060276195367000,1.059366943359375,-1.3506230115890503,-0.3094032406806946,0.1742493063211441
1702060276212367000,1.0763671875,-1.5048664808273315,-0.18814650177955627,0.15302173793315887
1702060276229361400,1.093361328125,-1.6213890314102173,-0.10919216275215149,0.21242839097976685
1702060276246359000,1.110359130859375,-1.753335952758789,-0.12202033400535583,0.2967278063297272
1702060276263358700,1.127358642578125,-1.886810064315796,-0.2041817009449005,0.3677408695220947
1702060276280353800,1.144353759765625,-2.0092885494232178,-0.2580905556678772,0.3494149148464203
1702060276297340200,1.161340087890625,-2.11283016204834,-0.3254384696483612,0.2583959996700287
1702060276314336000,1.1783359375,-2.2627975940704346,-0.3568980097770691,0.30695977807044983
1702060276331332900,1.195332763671875,-2.467284679412842,-0.20570887625217438,0.49357911944389343
1702060276348322800,1.21232275390625,-2.5451700687408447,-0.059864792972803116,0.5873469114303589
1702060276365319400,1.2293193359375,-2.500882387161255,-0.10674870014190674,0.5629123449325562
1702060276382311400,1.2463115234375,-2.4184155464172363,-0.22708915174007416,0.4879286289215088
1702060276399310800,1.263310791015625,-2.3542747497558594,-0.30772337317466736,0.3949243724346161
1702060276416299500,1.280299560546875,-2.339003086090088,-0.32650747895240784,0.3223841190338135
1702060276433295600,1.297295654296875,-2.3492350578308105,-0.3445279896259308,0.2808452844619751
1702060276450292000,1.3142919921875,-2.3272438049316406,-0.3326161205768585,0.33307427167892456
1702060276467281700,1.33128173828125,-2.2569942474365234,-0.23594669997692108,0.45066583156585693
1702060276484278800,1.34827880859375,-2.2296581268310547,-0.23105977475643158,0.47280970215797424
1702060276501271800,1.365271728515625,-2.233323335647583,-0.37171149253845215,0.4141666293144226
1702060276518267600,1.382267578125,-2.213164806365967,-0.44394633173942566,0.4021020531654358
1702060276535261700,1.39926171875,-2.193617105484009,-0.40424007177352905,0.4488332271575928
1702060276552268000,1.41626806640625,-2.197282314300537,-0.3436116874217987,0.502436637878418
1702060276569252600,1.433252685546875,-2.186134099960327,-0.3182607889175415,0.5091561675071716
1702060276586239000,1.450239013671875,-2.116342544555664,-0.3142901659011841,0.5082398653030396
1702060276603237600,1.467237548828125,-1.9857702255249023,-0.3349068760871887,0.5065600275993347
1702060276620231400,1.4842314453125,-1.806023120880127,-0.3142901659011841,0.4726569950580597
1702060276637226200,1.501226318359375,-1.6375770568847656,-0.2246456891298294,0.44287729263305664
1702060276654221300,1.51822119140625,-1.5546520948410034,-0.2050980031490326,0.43020185828208923
1702060276671216000,1.535216064453125,-1.5726726055145264,-0.24404066801071167,0.42409318685531616
1702060276688207000,1.55220703125,-1.6490306854248047,-0.24755313992500305,0.4306600093841553
1702060276705204000,1.569203857421875,-1.6789631843566895,-0.29046642780303955,0.41340306401252747
1702060276722197500,1.586197509765625,-1.6433802843093872,-0.3465133011341095,0.3816380500793457
1702060276739193000,1.603193115234375,-1.558011770248413,-0.25534167885780334,0.3546072840690613
1702060276756183800,1.620183837890625,-1.433395266532898,-0.11713340878486633,0.3312416672706604
1702060276773182500,1.637182373046875,-1.2906055450439453,-0.08811730891466141,0.28955012559890747
1702060276790173700,1.654173583984375,-1.225701093673706,-0.1699732542037964,0.260992169380188
1702060276807166200,1.671166259765625,-1.2324206829071045,-0.23640485107898712,0.30314189195632935
1702060276824163000,1.6881630859375,-1.1884382963180542,-0.2606867551803589,0.30085113644599915
1702060276841156000,1.705156005859375,-1.0966558456420898,-0.18478673696517944,0.31062498688697815
1702060276858151200,1.722151123046875,-1.0427470207214355,-0.10567969083786011,0.32559117674827576
1702060276875146200,1.739146240234375,-1.0390818119049072,-0.09010262042284012,0.25045475363731384
1702060276892138800,1.756138671875,-1.0461066961288452,-0.05910121276974678,0.15913039445877075
1702060276909142800,1.773142822265625,-1.0238101482391357,-0.02733621932566166,0.12018773704767227
1702060276926131700,1.790131591796875,-0.9692904353141785,-0.08277224004268646,0.11255192011594772
1702060276943106300,1.807106201171875,-0.9202684760093689,-0.17012597620487213,0.1368338167667389
1702060276960119000,1.824119140625,-0.9101892113685608,-0.19776763021945953,0.1540907621383667
1702060276977103000,1.84110302734375,-0.8561276197433472,-0.18478673696517944,0.14340060949325562
1702060276994103600,1.858103515625,-0.7877107262611389,-0.1411098688840866,0.15347988903522491
1702060277011103000,1.87510302734375,-0.7018841505050659,-0.03741549700498581,0.17699819803237915
1702060277028090600,1.892090576171875,-0.5969680547714233,0.03298672288656235,0.18509216606616974
1702060277045094400,1.909094482421875,-0.5331326723098755,0.011301007121801376,0.14233160018920898
1702060277062079700,1.926079833984375,-0.5361869931221008,-0.032681290060281754,0.051312681287527084
1702060277079067400,1.9430673828125,-0.502436637878418,-0.019853120669722557,-0.01114829070866108
1702060277096067800,1.96006787109375,-0.4317290186882019,0.013133603148162365,-0.03436116874217987
1702060277113062000,1.977061767578125,-0.32498031854629517,0.0529925599694252,-0.00931569468230009
1702060277130058000,1.99405810546875,-0.2551889419555664,0.0659734457731247,0.058795779943466187
1702060277147049500,2.011049560546875,-0.27519479393959045,0.04337143152952194,0.13316862285137177
1702060277164052500,2.028052490234375,-0.2838996350765228,-0.016798794269561768,0.1420261710882187
1702060277181044000,2.0450439453125,-0.25534167885780334,-0.07849618047475815,0.10751228034496307
1702060277198034200,2.0620341796875,-0.19104810059070587,-0.03436116874217987,0.03527746722102165
1702060277215030800,2.07903076171875,-0.1160643994808197,0.005497787147760391,0.01237002108246088
1702060277232024300,2.0960244140625,-0.11362093687057495,0.03451388701796532,0.029474247246980667
1702060277249014300,2.11301416015625,-0.1313360333442688,0.05161811411380768,0.06154467165470123
1702060277266015500,2.130015380859375,-0.1088867336511612,0.06841690838336945,0.10766500234603882
1702060277283006200,2.147006103515625,-0.05100724846124649,0.07131851464509964,0.11239920556545258
1702060277299992300,2.163992431640625,-0.005497787147760391,0.03039054572582245,0.05253441259264946
1702060277316994300,2.180994384765625,0.01572977937757969,-0.02535090781748295,-0.036193765699863434
1702060277333989400,2.1979892578125,-0.005345070734620094,-0.05497787147760391,-0.10705413669347763
1702060277350985000,2.21498486328125,-0.007941247895359993,-0.013439035043120384,-0.09773843735456467
1702060277367969500,2.231969482421875,0.03833179548382759,0.027183502912521362,-0.03848451003432274
1702060277384974000,2.24897412109375,0.07925976812839508,0.016493361443281174,0.004428773187100887
1702060277401966300,2.26596630859375,0.08857546001672745,-0.02229658141732216,-0.010231993161141872
1702060277418958300,2.282958251953125,0.05711590126156807,-0.06459899991750717,-0.027030786499381065
1702060277435955700,2.299955810546875,0.03436116874217987,-0.044745877385139465,-0.012675453908741474
1702060277452948500,2.316948486328125,0.06704246252775192,-0.0064140851609408855,0.0022907445672899485
1702060277469944800,2.33394482421875,0.10766500234603882,-0.024587325751781464,0.009162978269159794
1702060277486934500,2.3509345703125,0.12400564551353455,-0.028099801391363144,0.014966198243200779
1702060277503931600,2.367931640625,0.09743300825357437,-0.013286318629980087,0.020922135561704636
1702060277520927000,2.384927001953125,0.06704246252775192,0.00015271631127689034,0.01542434748262167
1702060277537917700,2.401917724609375,0.08078692853450775,-0.019394971430301666,0.011453723534941673
1702060277554914600,2.41891455078125,0.09987647086381912,-0.019547687843441963,0.04306599870324135
1702060277571908600,2.43590869140625,0.10720685124397278,-0.007788531947880983,0.07742717117071152
1702060277588900600,2.452900634765625,0.08888089656829834,0.013744467869400978,0.09392052888870239
1702060277605887700,2.4698876953125,0.09804387390613556,0.022602014243602753,0.08674286305904388
1702060277622891300,2.486891357421875,0.09422596544027328,0.035124752670526505,0.0633772686123848
1702060277639887000,2.50388720703125,0.08155050873756409,0.050243668258190155,0.05925392732024193
1702060277656876500,2.52087646484375,0.09957103431224823,0.06750060617923737,0.08491026610136032
1702060277673874000,2.5378740234375,0.15317445993423462,0.08521570265293121,0.1362229436635971
1702060277690869200,2.554869140625,0.22663100063800812,0.11331550031900406,0.17776179313659668
1702060277707858200,2.571858154296875,0.2834414839744568,0.12018773704767227,0.1742493063211441
1702060277724866600,2.588866455078125,0.3176499307155609,0.18585574626922607,0.14569136500358582
1702060277741845800,2.605845703125,0.3599523603916168,0.16539175808429718,0.05497787147760391
1702060277758833000,2.6228330078125,0.3952298164367676,0.11942415684461594,0.0012217304902151227
1702060277775840800,2.6398408203125,0.44593164324760437,0.0832303911447525,-0.017562376335263252
1702060277792833000,2.6568330078125,0.5580254197120667,-0.032528575509786606,-0.06429356336593628
1702060277809827600,2.67382763671875,0.6585127115249634,-0.05849034711718559,-0.13698652386665344
1702060277826820000,2.690820068359375,0.7710646390914917,0.022602014243602753,-0.1111774742603302
1702060277843817000,2.70781689453125,0.8788823485374451,-0.0003054326225537807,-0.1287398487329483
1702060277860810500,2.724810546875,0.9280570149421692,-0.00427605677396059,-0.15393804013729095
1702060277877802200,2.74180224609375,0.9639453291893005,0.09972374886274338,-0.07696902006864548
1702060277894799400,2.75879931640625,1.052673578262329,0.15592335164546967,-0.03451388701796532
1702060277911794700,2.775794677734375,1.18660569190979,0.10659598559141159,-0.08032877743244171
1702060277928781000,2.792781005859375,1.3338242769241333,0.07620543986558914,-0.1270599663257599
1702060277945784800,2.809784912109375,1.501812219619751,0.16172657907009125,-0.13729196786880493
1702060277962774800,2.82677490234375,1.6885842084884644,0.30695977807044983,-0.1264491081237793
1702060277979771400,2.843771484375,1.8677204847335815,0.39385536313056946,-0.14584407210350037
1702060277996761300,2.86076123046875,2.0059287548065186,0.38148534297943115,-0.21365012228488922
1702060278013758200,2.87775830078125,2.1009182929992676,0.35552358627319336,-0.2405281960964203
1702060278030753500,2.89475341796875,2.154674530029297,0.3553708493709564,-0.23487769067287445
1702060278047744300,2.911744140625,2.1872029304504395,0.38866302371025085,-0.19868391752243042
1702060278064740400,2.928740234375,2.2397375106811523,0.4596760869026184,-0.14477506279945374
1702060278081734100,2.945734130859375,2.313804864883423,0.46822822093963623,-0.17272214591503143
1702060278098729000,2.96272900390625,2.414902925491333,0.45952337980270386,-0.26679539680480957
1702060278115724300,2.979724365234375,2.5314254760742188,0.47800204157829285,-0.3425426781177521
1702060278132717000,2.996717041015625,2.632676601409912,0.4763221740722656,-0.3706424832344055
1702060278149703200,3.013703125,2.7730228900909424,0.4411974251270294,-0.44806966185569763
1702060278166698200,3.0306982421875,2.9300150871276855,0.4031710624694824,-0.5015203952789307
1702060278183698400,3.047698486328125,3.0030136108398438,0.4106541574001312,-0.5496259927749634
1702060278200697900,3.06469775390625,3.0079004764556885,0.6000223755836487,-0.5123631954193115
1702060278217686300,3.081686279296875,3.0301971435546875,0.865290641784668,-0.44684791564941406
1702060278234680800,3.098680908203125,3.0779972076416016,0.9228646755218506,-0.47769662737846375
1702060278251680500,3.115680419921875,3.0576860904693604,0.7724391222000122,-0.6090326309204102
1702060278268668700,3.132668701171875,2.9605584144592285,0.5668829679489136,-0.7819074988365173
1702060278285666800,3.149666748046875,2.892599582672119,0.5590944290161133,-0.7739662528038025
1702060278302660400,3.166660400390625,2.9626965522766113,0.727082371711731,-0.5787948369979858
1702060278319657000,3.183656982421875,3.1386256217956543,0.9277516007423401,-0.39156460762023926
1702060278336643600,3.2006435546875,3.238349437713623,0.983340322971344,-0.38087448477745056
1702060278353643500,3.2176435546875,3.151453733444214,0.7712173461914062,-0.47540587186813354
1702060278370637300,3.23463720703125,2.875495433807373,0.6160575747489929,-0.5155702829360962
1702060278387619600,3.25161962890625,2.6219863891601562,0.6333145499229431,-0.5360342264175415
1702060278404618000,3.268617919921875,2.6416866779327393,0.764955997467041,-0.455705463886261
1702060278421620200,3.2856201171875,2.7478246688842773,0.7987062931060791,-0.379652738571167
1702060278438611200,3.302611083984375,2.7401888370513916,0.6826419234275818,-0.40912699699401855
1702060278455608800,3.31960888671875,2.5981626510620117,0.5299255847930908,-0.5447390675544739
1702060278472599800,3.336599853515625,2.353052854537964,0.44577890634536743,-0.5824599862098694
1702060278489600000,3.35360009765625,2.169335126876831,0.5459607839584351,-0.4732678532600403
1702060278506591200,3.37059130859375,2.0616703033447266,0.6757696866989136,-0.3614795207977295
1702060278523575000,3.387574951171875,1.945605754852295,0.6203336715698242,-0.38347065448760986
1702060278540569000,3.404569091796875,1.8057177066802979,0.42439863085746765,-0.5186246037483215
1702060278557571600,3.421571533203125,1.6502524614334106,0.24190263450145721,-0.6398813724517822
1702060278574570200,3.4385703125,1.5522085428237915,0.20861047506332397,-0.6359107494354248
1702060278591563000,3.45556298828125,1.4929546117782593,0.3660610020160675,-0.4951062798500061
1702060278608556500,3.472556640625,1.394299864768982,0.4786129295825958,-0.3274237811565399
1702060278625544200,3.489544189453125,1.206153392791748,0.365755558013916,-0.25671613216400146
1702060278642545000,3.506544921875,0.9941831827163696,0.1736384481191635,-0.25595253705978394
1702060278659539700,3.523539794921875,0.8678867816925049,0.07712173461914062,-0.28237244486808777
1702060278676533200,3.540533203125,0.7953465580940247,0.09056077152490616,-0.32650747895240784
1702060278693528000,3.557528076171875,0.7044803500175476,0.17821992933750153,-0.30925053358078003
1702060278710521600,3.574521484375,0.5653557777404785,0.20173825323581696,-0.25854870676994324
1702060278727516400,3.591516357421875,0.42012256383895874,0.12919799983501434,-0.19074267148971558
1702060278744510000,3.608510009765625,0.2860376536846161,0.04703662544488907,-0.12095131725072861
1702060278761504800,3.6255048828125,0.23426681756973267,0,-0.09498954564332962
1702060278778498600,3.64249853515625,0.2252565622329712,0.019089538604021072,-0.06673702597618103
1702060278795493400,3.659493408203125,0.18417587876319885,0.05207626149058342,-0.052228979766368866
1702060278812487000,3.67648681640625,0.12858712673187256,0.052228979766368866,-0.04306599870324135
1702060278829481700,3.693481689453125,0.09957103431224823,0.0403171069920063,-0.019394971430301666
1702060278846472700,3.71047265625,0.07437284290790558,-0.005039638374000788,0.008246680721640587
1702060278863473000,3.727472900390625,0.023518312722444534,-0.03985895588994026,0.04764748737215996
1702060278880464000,3.7444638671875,-0.04459316283464432,-0.03741549700498581,0.07773260027170181
1702060278897458400,3.76145849609375,-0.10705413669347763,-0.02382374368607998,0.06383541971445084
1702060278914452200,3.7784521484375,-0.128434419631958,-0.01466076634824276,0.039095375686883926
1702060278931436500,3.7954365234375,-0.12339477986097336,-0.032070424407720566,0.01771509274840355
1702060278948440800,3.81244091796875,-0.11133018881082535,-0.06352998316287994,0.008857546374201775
1702060278965435400,3.829435302734375,-0.11148291081190109,-0.08216137439012527,0.03741549700498581
1702060278982429200,3.84642919921875,-0.13561208546161652,-0.09972374886274338,0.06963863968849182
1702060278999424000,3.863424072265625,-0.1768454909324646,-0.10476338863372803,0.07131851464509964
1702060279016417800,3.880417724609375,-0.19853121042251587,-0.09315694868564606,0.034666601568460464
1702060279033412400,3.897412353515625,-0.19043724238872528,-0.08139779418706894,-0.0064140851609408855
1702060279050406000,3.914406005859375,-0.18219055235385895,-0.09926560521125793,-0.027030786499381065
1702060279067400700,3.931400634765625,-0.1823432743549347,-0.1189660057425499,0.007635815534740686
1702060279084394200,3.948394287109375,-0.2050980031490326,-0.13866640627384186,0.03451388701796532
1702060279101386800,3.96538671875,-0.2474004179239273,-0.15531249344348907,0.028099801391363144
1702060279118385400,3.982385498046875,-0.28008171916007996,-0.14569136500358582,0.012064588256180286
1702060279135377700,3.999377685546875,-0.2955060601234436,-0.12599095702171326,-0.014049900695681572
1702060279152371500,4.016371337890625,-0.3202461004257202,-0.12797626852989197,-0.027183502912521362
1702060279169366000,4.033365966796875,-0.3617849349975586,-0.13439035415649414,0.00427605677396059
1702060279186359800,4.05035986328125,-0.4222606122493744,-0.14966198801994324,0.04581489413976669
1702060279203354600,4.067354736328125,-0.5233588218688965,-0.1693623960018158,0.09117163717746735
1702060279220348200,4.08434814453125,-0.6827946305274963,-0.16768251359462738,0.1915062516927719
1702060279237343000,4.101343017578125,-0.8828529715538025,-0.18035796284675598,0.25793784856796265
1702060279254337000,4.1183369140625,-1.060920238494873,-0.2116648107767105,0.23319780826568604
1702060279271331300,4.135331298828125,-1.1817188262939453,-0.22586742043495178,0.2226603776216507
1702060279288325000,4.1523251953125,-1.3344351053237915,-0.23029619455337524,0.2834414839744568
1702060279305330700,4.16933056640625,-1.5627460479736328,-0.25931230187416077,0.3868304193019867
1702060279322303200,4.18630322265625,-1.8211419582366943,-0.299018532037735,0.5068654417991638
1702060279339308300,4.203308349609375,-2.015855312347412,-0.303600013256073,0.5910121202468872
1702060279356302000,4.220302001953125,-2.147038698196411,-0.2658790946006775,0.6162103414535522
1702060279373297000,4.237296875,-2.3133466243743896,-0.24617868661880493,0.612850546836853
1702060279390279700,4.25427978515625,-2.535243511199951,-0.3149010241031647,0.5926920175552368
1702060279407285200,4.27128515625,-2.7349963188171387,-0.4193589985370636,0.5861251950263977
1702060279424276200,4.288276123046875,-2.8825204372406006,-0.4482223689556122,0.6068946123123169
1702060279441265400,4.305265380859375,-2.9827022552490234,-0.4334088861942291,0.6172793507575989
1702060279458267100,4.32226708984375,-3.0387492179870605,-0.42302417755126953,0.611934244632721
1702060279475262000,4.339261962890625,-3.0860912799835205,-0.45204028487205505,0.5838344693183899
1702060279492255700,4.356255859375,-3.1306843757629395,-0.4564690589904785,0.5424483418464661
1702060279509250600,4.37325048828125,-3.1447343826293945,-0.3819434940814972,0.540921151638031
1702060279526244400,4.390244384765625,-3.11006760597229,-0.3344487249851227,0.5476406812667847
1702060279543238000,4.40723779296875,-3.0109548568725586,-0.3649919927120209,0.5148066878318787
1702060279560223200,4.42422314453125,-2.877938985824585,-0.3706424832344055,0.5757405161857605
1702060279577226000,4.44122607421875,-2.729804039001465,-0.3874412775039673,0.7194465398788452
1702060279594221000,4.458220947265625,-2.643366575241089,-0.4363104999065399,0.8341364860534668
1702060279611216000,4.4752158203125,-2.6065618991851807,-0.485027015209198,0.8509352803230286
1702060279628206800,4.492206787109375,-2.609463691711426,-0.5088507533073425,0.7858781218528748
1702060279645204200,4.509204345703125,-2.588236093521118,-0.48716503381729126,0.7008151412010193
1702060279662198000,4.526197998046875,-2.501340389251709,-0.35521814227104187,0.6884451508522034
1702060279679192800,4.54319287109375,-2.4101688861846924,-0.27458393573760986,0.694248378276825
1702060279696186400,4.560186279296875,-2.341599225997925,-0.32039880752563477,0.6829473376274109
1702060279713170700,4.577170654296875,-2.2713496685028076,-0.4583016633987427,0.6531676650047302
1702060279730175000,4.594175048828125,-2.199573040008545,-0.5965099334716797,0.6299547553062439
1702060279747168500,4.61116845703125,-2.1905627250671387,-0.6574437022209167,0.5674937963485718
1702060279764164400,4.628164306640625,-2.186134099960327,-0.5400048494338989,0.5529857873916626
1702060279781158000,4.645157958984375,-2.124742031097412,-0.39446622133255005,0.5467243790626526
1702060279798151700,4.662151611328125,-2.0786216259002686,-0.37308594584465027,0.5447390675544739
1702060279815146500,4.679146484375,-2.057241439819336,-0.49525898694992065,0.5143485069274902
1702060279832140300,4.696140380859375,-2.0308215618133545,-0.6818783283233643,0.4213443100452423
1702060279849134800,4.713134765625,-2.0176877975463867,-0.7568620443344116,0.37720927596092224
1702060279866129400,4.73012939453125,-1.9646953344345093,-0.698066234588623,0.41599923372268677
1702060279883122700,4.747122802734375,-1.8768835067749023,-0.5748242139816284,0.5013676285743713
1702060279900116000,4.764115966796875,-1.7800613641738892,-0.504574716091156,0.5195409059524536
1702060279917112800,4.78111279296875,-1.6907222270965576,-0.4970915913581848,0.46379944682121277
1702060279934097700,4.79809765625,-1.599397897720337,-0.4960225820541382,0.39553526043891907
1702060279951100200,4.81510009765625,-1.507768154144287,-0.46868637204170227,0.30970868468284607
1702060279968094000,4.832093994140625,-1.410029649734497,-0.3724750876426697,0.2730567753314972
1702060279985088800,4.8490888671875,-1.2986994981765747,-0.2915354371070862,0.24434609711170197
1702060280002082300,4.866082275390625,-1.1794281005859375,-0.3127630054950714,0.24068090319633484
1702060280019077400,4.883077392578125,-1.091616153717041,-0.3862195611000061,0.24113905429840088
1702060280036071000,4.90007080078125,-1.0951286554336548,-0.42149701714515686,0.20204368233680725
1702060280053065500,4.9170654296875,-1.1687378883361816,-0.4046982228755951,0.18555031716823578
1702060280070059300,4.934059326171875,-1.2379183769226074,-0.41233405470848083,0.1408044397830963
1702060280087054600,4.9510546875,-1.201724648475647,-0.3813326358795166,0.08170322328805923
1702060280104038700,4.96803857421875,-1.0531316995620728,-0.3689626157283783,0.026572637259960175
1702060280121042400,4.98504248046875,-0.9222537875175476,-0.29474249482154846,0.006719517521560192
1702060280138036200,5.0020361328125,-0.8561276197433472,-0.21914790570735931,0.003054326167330146
1702060280155030800,5.01903076171875,-0.8730791807174683,-0.18325957655906677,0.04886921867728233
1702060280172024800,5.03602490234375,-0.8854491710662842,-0.20112738013267517,0.06429356336593628
1702060280189019400,5.053019287109375,-0.7852672934532166,-0.2145664244890213,0.06001751124858856
1702060280206013200,5.07001318359375,-0.6661485433578491,-0.18799377977848053,0.025961773470044136
1702060280222997200,5.086997314453125,-0.5893322229385376,-0.1362229436635971,-0.004886921960860491
1702060280240001000,5.1040009765625,-0.5523748993873596,-0.08827003091573715,-0.0039706239476799965
1702060280256996900,5.120996826171875,-0.5163338780403137,-0.09224065393209457,-0.008857546374201775
1702060280273990000,5.137989990234375,-0.49006664752960205,-0.11636982858181,-0.005955935921519995
1702060280290982100,5.154982177734375,-0.4772384762763977,-0.13836097717285156,0.003054326167330146
1702060280307981000,5.17198095703125,-0.49205195903778076,-0.1362229436635971,0.02672535367310047
1702060280324973000,5.18897314453125,-0.49785518646240234,-0.07299839705228806,0.078343465924263
1702060280341966800,5.205966796875,-0.4764748811721802,-0.02321287989616394,0.09453139454126358
1702060280358961700,5.222961669921875,-0.42042800784111023,0.0013744467869400978,0.06169738993048668
1702060280375937800,5.239937744140625,-0.32299500703811646,0.02733621932566166,0.0377209298312664
1702060280392952600,5.25695263671875,-0.26419922709465027,0.039095375686883926,0.043676864355802536
1702060280409943800,5.27394384765625,-0.26221391558647156,0.038179077208042145,0.08491026610136032
1702060280426937300,5.290937255859375,-0.27290403842926025,0.04092797264456749,0.09712757170200348
1702060280443933200,5.30793310546875,-0.2635883390903473,0.05467243865132332,0.07696902006864548
1702060280460927000,5.324927001953125,-0.21319197118282318,0.05604688450694084,0.03039054572582245
1702060280477920500,5.34192041015625,-0.1537853181362152,0.04153883829712868,-0.010842857882380486
1702060280494907400,5.358907470703125,-0.1316414624452591,0.03985895588994026,-0.008399397134780884
1702060280511909400,5.375909423828125,-0.12400564551353455,0.035582900047302246,0.015577063895761967
1702060280528906200,5.39290625,-0.12049316614866257,0.029932396486401558,0.020922135561704636
1702060280545897500,5.4098974609375,-0.10170906037092209,0.019089538604021072,0.001679879380390048
1702060280562892300,5.426892333984375,-0.06750060617923737,-0.006719517521560192,-0.02122756652534008
1702060280579885800,5.4438857421875,-0.06872233748435974,-0.01237002108246088,-0.02321287989616394
1702060280596880600,5.460880615234375,-0.09911288321018219,0.012064588256180286,-0.004886921960860491
1702060280613871600,5.47787158203125,-0.1137736514210701,0.0455094613134861,0.020005837082862854
1702060280630871800,5.494871826171875,-0.11194105446338654,0.019089538604021072,0.014355333521962166
1702060280647862800,5.51186279296875,-0.10919216275215149,-0.015577063895761967,0
1702060280664857600,5.528857666015625,-0.10842858254909515,-0.02015855349600315,-0.01878410577774048
1702060280681848300,5.545848388671875,-0.12034045159816742,0.019089538604021072,-0.012217304669320583
1702060280698849300,5.562849365234375,-0.1408044397830963,0.051770828664302826,0.03130684420466423
1702060280715842800,5.5798427734375,-0.14706580340862274,0.0705549344420433,0.07422012835741043
1702060280732831700,5.596831787109375,-0.12461651116609573,0.05451972410082817,0.0685696229338646
1702060280749841400,5.61384130859375,-0.07742717117071152,0.016493361443281174,0.03940080851316452
1702060280766823000,5.630822998046875,-0.0064140851609408855,0.01664607785642147,0.009468411095440388
1702060280783816700,5.647816650390625,0.05650503560900688,0.02932153269648552,0.001679879380390048
1702060280800808700,5.66480859375,0.06414084881544113,0.017409659922122955,0.0007635815418325365
1702060280817807400,5.681807373046875,0.03955352306365967,-0.00809396430850029,0
1702060280834799900,5.6987998046875,0.012675453908741474,-0.015577063895761967,-0.014355333521962166
1702060280851793400,5.71579345703125,0.014813481830060482,-0.02122756652534008,-0.052381694316864014
1702060280868788200,5.732788330078125,0.04077525436878204,-0.026114489883184433,-0.07269296050071716
1702060280885779700,5.74977978515625,0.036651913076639175,-0.06520986557006836,-0.08628471940755844
1702060280902776800,5.76677685546875,0.020005837082862854,-0.08338310569524765,-0.07849618047475815
1702060280919770400,5.783770263671875,0.015271631069481373,-0.0455094613134861,-0.04459316283464432
1702060280936765200,5.80076513671875,0.03833179548382759,0.010690141469240189,0
1702060280953758700,5.8177587890625,0.05955936014652252,0.01863138936460018,-0.0013744467869400978
1702060280970753500,5.83475341796875,0.07712173461914062,-0.005650503560900688,-0.01572977937757969
1702060280987747300,5.851747314453125,0.10476338863372803,-0.013897184282541275,-0.009926560334861279
1702060281004742400,5.868742431640625,0.13973543047904968,0.023365596309304237,-0.008857546374201775
1702060281021735400,5.8857353515625,0.19394971430301666,0.09636399149894714,-0.006719517521560192
1702060281038730500,5.90273046875,0.2730567753314972,0.13545936346054077,0.004428773187100887
1702060281055725800,5.919725830078125,0.34544429183006287,0.14477506279945374,0.01970040425658226
1702060281072717300,5.93671728515625,0.43905940651893616,0.16600263118743896,0.040164388716220856
1702060281089696300,5.9536962890625,0.5581781268119812,0.1722639948129654,0.043218716979026794
1702060281106707700,5.970707763671875,0.6627888083457947,0.15943582355976105,0.007177666760981083
1702060281123701000,5.987700927734375,0.812298059463501,0.1748601794242859,-0.05513058975338936
1702060281140695800,6.00469580078125,0.9760099649429321,0.2116648107767105,-0.13286319375038147
1702060281157689600,6.021689697265625,1.1201741695404053,0.2278527319431305,-0.21105393767356873
1702060281174684200,6.03868408203125,1.218676209449768,0.26542094349861145,-0.22831088304519653
1702060281191678000,6.055677978515625,1.2592986822128296,0.3058907687664032,-0.2272418737411499
1702060281208673300,6.07267333984375,1.3213015794754028,0.2993239760398865,-0.23289237916469574
1702060281225666000,6.089666015625,1.4280502796173096,0.18814650177955627,-0.2837468981742859
1702060281242661000,6.1066611328125,1.5850425958633423,0.04764748737215996,-0.3637702465057373
1702060281259654700,6.123654541015625,1.7712037563323975,-0.05375614017248154,-0.4466952085494995
1702060281276648700,6.140648681640625,1.9463694095611572,-0.03436116874217987,-0.518471896648407
1702060281293645300,6.157645263671875,2.1642956733703613,0.168751522898674,-0.44852781295776367
1702060281310632000,6.1746318359375,2.325411319732666,0.3303253948688507,-0.35292738676071167
1702060281327629300,6.19162939453125,2.406503677368164,0.3819434940814972,-0.2906191349029541
1702060281344616200,6.2086162109375,2.4608707427978516,0.37110063433647156,-0.2525927722454071
1702060281361612000,6.225612060546875,2.5050055980682373,0.3387247920036316,-0.28848111629486084
1702060281378616600,6.242616455078125,2.582280158996582,0.3436116874217987,-0.4179845452308655
1702060281395599000,6.25959912109375,2.6639833450317383,0.38240164518356323,-0.5835290551185608
1702060281412603400,6.276603271484375,2.7372870445251465,0.43768495321273804,-0.671493649482727
1702060281429597200,6.29359716796875,2.7986791133880615,0.5455026626586914,-0.6189591884613037
1702060281446591700,6.310591796875,2.811507225036621,0.6401867866516113,-0.484416127204895
1702060281463582700,6.327582763671875,2.7991373538970947,0.6546948552131653,-0.39324450492858887
1702060281480583000,6.3445830078125,2.7740917205810547,0.5835290551185608,-0.3712533414363861
1702060281497574100,6.36157421875,2.797457456588745,0.503963828086853,-0.39813143014907837
1702060281514558000,6.378557861328125,2.8913779258728027,0.4879286289215088,-0.39675697684288025
1702060281531562200,6.395562255859375,2.9330694675445557,0.5349652171134949,-0.3959933817386627
1702060281548557000,6.41255712890625,2.9663615226745605,0.6186537742614746,-0.4161519408226013
1702060281565548300,6.42954833984375,2.9946141242980957,0.6192646622657776,-0.48777589201927185
1702060281582543000,6.446543212890625,3.003777027130127,0.5416847467422485,-0.5757405161857605
1702060281599543300,6.463543212890625,2.9555187225341797,0.5546656250953674,-0.5534439086914062
1702060281616532500,6.480532470703125,2.864041805267334,0.6375905871391296,-0.4144720733165741
1702060281633527600,6.497527587890625,2.7896687984466553,0.7408268451690674,-0.29275718331336975
1702060281650522600,6.514522705078125,2.799595355987549,0.6724098920822144,-0.3654501438140869
1702060281667499800,6.531499755859375,2.7882943153381348,0.45555275678634644,-0.5595525503158569
1702060281684517600,6.548517578125,2.668259382247925,0.2997821271419525,-0.6782131195068359
1702060281701502000,6.565501953125,2.5160012245178223,0.34437528252601624,-0.6001750826835632
1702060281718502000,6.582501953125,2.3973405361175537,0.49464812874794006,-0.4677700698375702
1702060281735493000,6.5994931640625,2.3851232528686523,0.5853615999221802,-0.30802878737449646
1702060281752488000,6.616488037109375,2.426051378250122,0.42760565876960754,-0.22159136831760406
1702060281769481500,6.6334814453125,2.3915374279022217,0.34147366881370544,-0.2767219543457031
1702060281786465800,6.6504658203125,2.3122775554656982,0.251676470041275,-0.5322163701057434
1702060281803468000,6.667468017578125,2.230879783630371,0.4331034719944,-0.5787948369979858
1702060281820466700,6.684466796875,2.175291061401367,0.6392704844474792,-0.49067750573158264
1702060281837458400,6.70145849609375,2.110386610031128,0.6513350605964661,-0.4430300295352936
1702060281854453000,6.718452880859375,2.0167715549468994,0.48945578932762146,-0.41141775250434875
1702060281871446800,6.73544677734375,1.9159787893295288,0.3761402666568756,-0.3732386529445648
1702060281888441600,6.752441650390625,1.8613064289093018,0.3217732608318329,-0.37400224804878235
1702060281905424100,6.769424072265625,1.7967073917388916,0.3718642294406891,-0.3602577745914459
1702060281922430000,6.786429931640625,1.6792685985565186,0.4726569950580597,-0.30405816435813904
1702060281939423700,6.803423828125,1.5288430452346802,0.4251621961593628,-0.2968805134296417
1702060281956418600,6.82041845703125,1.4129313230514526,0.2802344262599945,-0.33948835730552673
1702060281973412000,6.837412109375,1.339932918548584,0.20525072515010834,-0.35063666105270386
1702060281990409200,6.8544091796875,1.2278391122817993,0.23915374279022217,-0.3568980097770691
1702060282007398400,6.8713984375,1.116814374923706,0.31841349601745605,-0.32620203495025635
1702060282024395300,6.888395263671875,1.0207557678222656,0.3303253948688507,-0.28878653049468994
1702060282041389000,6.90538916015625,0.9454666972160339,0.28878653049468994,-0.25641068816185
1702060282058370600,6.92237060546875,0.9147707223892212,0.23396138846874237,-0.21807889640331268
1702060282075377700,6.939377685546875,0.8370380997657776,0.1661553531885147,-0.22571471333503723
1702060282092374000,6.9563740234375,0.6884451508522034,0.09804387390613556,-0.2889392673969269
1702060282109364500,6.973364501953125,0.5239696502685547,0.06551529467105865,-0.3237585723400116
1702060282126360600,6.990360595703125,0.4277583956718445,0.04657847434282303,-0.31413745880126953
1702060282143354600,7.007354736328125,0.41340306401252747,0.03191770985722542,-0.27091872692108154
1702060282160349200,7.02434912109375,0.39416080713272095,0.025503624230623245,-0.20616702735424042
1702060282177342700,7.0413427734375,0.3300199508666992,0.008704829961061478,-0.13500121235847473
1702060282194337500,7.058337646484375,0.24465152621269226,-0.01878410577774048,-0.08155050873756409
1702060282211331600,7.07533154296875,0.18249599635601044,-0.02977968007326126,-0.047189339995384216
1702060282228326100,7.092326171875,0.1316414624452591,-0.004123340360820293,-0.016798794269561768
1702060282245319700,7.109319580078125,0.0809396430850029,0.019853120669722557,0.01191187184303999
1702060282262314500,7.126314453125,0.04398229718208313,0.019394971430301666,0.037110064178705215
1702060282279308300,7.143308349609375,0.03573561832308769,0.010690141469240189,0.05864306539297104
1702060282296302800,7.160302734375,0.03878994286060333,0.010842857882380486,0.08307767659425735
1702060282313299500,7.177299560546875,0.01863138936460018,0.013133603148162365,0.08659014850854874
1702060282330289000,7.194288818359375,-0.022602014243602753,-0.003817907767370343,0.0754418596625328
1702060282347298800,7.211298828125,-0.06185010448098183,-0.009773843921720982,0.07635815441608429
1702060282364279800,7.22827978515625,-0.07147123664617538,-0.0006108652451075613,0.07941248267889023
1702060282381269500,7.24526953125,-0.06841690838336945,0,0.09315694868564606
1702060282398272300,7.262272216796875,-0.08445212244987488,-0.004734205547720194,0.11178833991289139
1702060282415262200,7.27926220703125,-0.11362093687057495,-0.02428189292550087,0.10919216275215149
1702060282432256800,7.2962568359375,-0.15134187042713165,-0.05268712714314461,0.0861319974064827
1702060282449240000,7.313239990234375,-0.1797471046447754,-0.07757988572120667,0.04153883829712868
1702060282466245000,7.3302451171875,-0.192422553896904,-0.07483099400997162,-0.009926560334861279
1702060282483239000,7.347239013671875,-0.23197607696056366,-0.05665775015950203,-0.024129176512360573
1702060282500231200,7.364231201171875,-0.2793181240558624,-0.051770828664302826,0.004734205547720194
1702060282517229800,7.381229736328125,-0.3202461004257202,-0.06734789162874222,0.04398229718208313
1702060282534224400,7.398224365234375,-0.34758231043815613,-0.08277224004268646,0.08170322328805923
1702060282551216600,7.415216552734375,-0.3830125033855438,-0.09254608303308487,0.10002918541431427
1702060282568201000,7.432200927734375,-0.46150869131088257,-0.1134682223200798,0.07819075137376785
1702060282585204200,7.449204345703125,-0.578489363193512,-0.11698069423437119,0.06414084881544113
1702060282602199000,7.466198974609375,-0.7012733221054077,-0.1186605766415596,0.08216137439012527
1702060282619192600,7.483192626953125,-0.8145887851715088,-0.13087788224220276,0.11407908797264099
1702060282636188400,7.5001884765625,-0.9019425511360168,-0.17516560852527618,0.12538009881973267
1702060282653180200,7.51718017578125,-0.9935722947120667,-0.23625212907791138,0.10690141469240189
1702060282670176000,7.534176025390625,-1.0797042846679688,-0.26282477378845215,0.10781771689653397
1702060282687169500,7.55116943359375,-1.1788171529769897,-0.23839016258716583,0.14553864300251007
1702060282704174800,7.5681748046875,-1.342987298965454,-0.2557998299598694,0.17440202832221985
1702060282721158100,7.585158203125,-1.5230398178100586,-0.29993483424186707,0.18600846827030182
1702060282738152700,7.602152587890625,-1.6814066171646118,-0.33460143208503723,0.20570887625217438
1702060282755146500,7.619146484375,-1.8167132139205933,-0.3188716471195221,0.2719877362251282
1702060282772138500,7.636138427734375,-1.9394971132278442,-0.25335636734962463,0.40683624148368835
1702060282789137400,7.653137451171875,-2.0624337196350098,-0.24113905429840088,0.5337435007095337
1702060282806129700,7.670129638671875,-2.207972526550293,-0.3352122902870178,0.575893223285675
1702060282823123200,7.687123291015625,-2.390162944793701,-0.44776421785354614,0.5552765130996704
1702060282840107500,7.704107421875,-2.581669330596924,-0.5059491395950317,0.5206099152565002
1702060282857111800,7.72111181640625,-2.752711534500122,-0.4786129295825958,0.5192354321479797
1702060282874106600,7.738106689453125,-2.8901562690734863,-0.43967026472091675,0.5586362481117249
1702060282891100200,7.75510009765625,-3.0103440284729004,-0.48517972230911255,0.5942191481590271
1702060282908095000,7.772094970703125,-3.084105968475342,-0.5887213945388794,0.5835290551185608
1702060282925086000,7.7890859375,-3.124423027038574,-0.6415612101554871,0.5561928153038025
1702060282942086000,7.8060859375,-3.165656328201294,-0.6333145499229431,0.5247332453727722
1702060282959077000,7.8230771484375,-3.2207870483398438,-0.618195652961731,0.4908302128314972
1702060282976071700,7.84007177734375,-3.2623257637023926,-0.599564254283905,0.5305364727973938
1702060282993063200,7.857063232421875,-3.2763757705688477,-0.584750771522522,0.6090326309204102
1702060283010062600,7.8740625,-3.232393503189087,-0.5853615999221802,0.6223189830780029
1702060283027054000,7.89105419921875,-3.123201370239258,-0.5839871764183044,0.5726861953735352
1702060283044049400,7.90804931640625,-2.906038761138916,-0.6082690954208374,0.5361869931221008
1702060283061042400,7.92504248046875,-2.663219690322876,-0.6488916277885437,0.48777589201927185
1702060283078037200,7.942037353515625,-2.4828617572784424,-0.6913467645645142,0.40103304386138916
1702060283095030800,7.95903076171875,-2.370157241821289,-0.6377432942390442,0.3309362530708313
1702060283112025600,7.976025634765625,-2.294867992401123,-0.5203045010566711,0.3153591752052307
1702060283129019400,7.993019287109375,-2.2684481143951416,-0.3683517575263977,0.37690386176109314
1702060283145996500,8.00999658203125,-2.246762275695801,-0.2590068578720093,0.4599815309047699
1702060283163005700,8.027005615234375,-2.182774305343628,-0.2594650089740753,0.5010622143745422
1702060283180007000,8.0440068359375,-2.080301523208618,-0.3274237811565399,0.4605923891067505
1702060283196996000,8.06099609375,-2.0056233406066895,-0.3952298164367676,0.37598755955696106
1702060283213991000,8.077990966796875,-1.9704985618591309,-0.42439863085746765,0.2926044464111328
1702060283230984700,8.094984619140625,-1.9350683689117432,-0.3536909818649292,0.29397889971733093
1702060283247979300,8.111979248046875,-1.896583914756775,-0.2532036304473877,0.3419318199157715
1702060283264973000,8.12897314453125,-1.8345810174942017,-0.1771509200334549,0.3851505517959595
1702060283281968000,8.145968017578125,-1.7719674110412598,-0.21380282938480377,0.394618958234787
1702060283298961700,8.162961669921875,-1.7107281684875488,-0.3361285924911499,0.3576616048812866
1702060283315956200,8.179956298828126,-1.6239852905273438,-0.42378777265548706,0.31001409888267517
1702060283332950000,8.196949951171876,-1.5515977144241333,-0.46700647473335266,0.23609942197799683
1702060283349944600,8.213944580078126,-1.489442229270935,-0.38988474011421204,0.20234911143779755
1702060283366938400,8.2309384765625,-1.3874276876449585,-0.23884831368923187,0.19486601650714874
1702060283383933000,8.247932861328126,-1.2412781715393066,-0.17837265133857727,0.14034628868103027
1702060283400919000,8.2649189453125,-1.118036150932312,-0.24358251690864563,0.1010981947183609
1702060283417921500,8.281921630859374,-1.1145236492156982,-0.3735440969467163,0.052839845418930054
1702060283434915300,8.298915283203126,-1.1255191564559937,-0.3903428912162781,0.07910704612731934
1702060283451892700,8.315892822265624,-1.1491901874542236,-0.3462078869342804,0.10552696883678436
1702060283468903700,8.332903564453124,-1.171028733253479,-0.2854267954826355,0.08307767659425735
1702060283485898200,8.349898193359374,-1.1669052839279175,-0.23319780826568604,0.029932396486401558
1702060283502892300,8.366892333984374,-1.1365147829055786,-0.19898934662342072,-0.003512475173920393
1702060283519887600,8.3838876953125,-1.041067123413086,-0.18081611394882202,-0.036041051149368286
1702060283536879900,8.4008798828125,-0.8856018781661987,-0.15347988903522491,-0.03787364438176155
1702060283553872600,8.41787255859375,-0.7938193678855896,-0.13209961354732513,-0.009773843921720982
1702060283570871600,8.43487158203125,-0.8345946669578552,-0.11407908797264099,0.01466076634824276
1702060283587864800,8.45186474609375,-0.9305005073547363,-0.11698069423437119,0.039095375686883926
1702060283604856600,8.468856689453125,-0.9718865752220154,-0.13148874044418335,0.0507018156349659
1702060283621842200,8.48584228515625,-0.8910996913909912,-0.10522153973579407,0.022449297830462456
1702060283638841300,8.50284130859375,-0.803440511226654,-0.03573561832308769,-0.0027488935738801956
1702060283655845400,8.519845458984374,-0.7782423496246338,-0.00366519158706069,-0.003512475173920393
1702060283672834600,8.53683447265625,-0.8109236359596252,0.014508049935102463,0.010995574295520782
1702060283689829000,8.5538291015625,-0.8283332586288452,0.0633772686123848,0.020311269909143448
1702060283706823000,8.570822998046875,-0.7733554244041443,0.08109235763549805,0.04199698567390442
1702060283723817500,8.5878173828125,-0.6540839672088623,0.04734205827116966,0.046273041516542435
1702060283740808700,8.60480859375,-0.5100724697113037,0.048258353024721146,0.04199698567390442
1702060283757808600,8.62180859375,-0.3810271918773651,0.0809396430850029,0.06017022579908371
1702060283774789000,8.6387890625,-0.32070425152778625,0.05726861581206322,0.06215553730726242
1702060283791793000,8.65579296875,-0.3501785099506378,0.005345070734620094,0.054367005825042725
1702060283808788000,8.6727880859375,-0.418748140335083,-0.00366519158706069,0.05910121276974678
1702060283825782800,8.68978271484375,-0.4657847583293915,0.0039706239476799965,0.05497787147760391
1702060283842776600,8.706776611328126,-0.48640143871307373,0.025961773470044136,0.05451972410082817
1702060283859771100,8.723771240234376,-0.4792237877845764,0.05100724846124649,0.0708603709936142
1702060283876765000,8.740764892578126,-0.4815145432949066,0.021532999351620674,0.05619960278272629
1702060283893759700,8.757759765625,-0.49098294973373413,-0.02076941914856434,0.028099801391363144
1702060283910753300,8.774753173828126,-0.5154175758361816,-0.0377209298312664,0.01863138936460018
1702060283927748000,8.791748046875,-0.5313000679016113,-0.005650503560900688,0.014049900695681572
1702060283944739300,8.8087392578125,-0.489608496427536,0.04657847434282303,0.024129176512360573
1702060283961735400,8.8257353515625,-0.40454551577568054,0.022907447069883347,0.024434609338641167
1702060283978734000,8.842734130859375,-0.29245173931121826,-0.06123924255371094,0.04077525436878204
1702060283995725000,8.85972509765625,-0.2119702398777008,-0.098502017557621,0.06765332818031311
1702060284012718800,8.87671875,-0.18127426505088806,-0.06872233748435974,0.08475755155086517
1702060284029713400,8.89371337890625,-0.18112154304981232,-0.0529925599694252,0.05650503560900688
1702060284046707200,8.910707275390624,-0.18325957655906677,-0.07360926270484924,0.014049900695681572
1702060284063702000,8.927701904296875,-0.16600263118743896,-0.09514226019382477,-0.020616702735424042
1702060284080695600,8.944695556640625,-0.13988813757896423,-0.08231408894062042,-0.017562376335263252
1702060284097690400,8.9616904296875,-0.14737124741077423,-0.06368270516395569,0.019089538604021072
1702060284114684200,8.97868408203125,-0.17150041460990906,-0.05849034711718559,0.04703662544488907
1702060284131679000,8.995678955078125,-0.18738290667533875,-0.06398813426494598,0.03848451003432274
1702060284148672800,9.0126728515625,-0.1996002197265625,-0.08231408894062042,0.0039706239476799965
1702060284165657000,9.029656982421875,-0.2122756689786911,-0.08964447677135468,-0.034666601568460464
1702060284182658600,9.046658447265624,-0.2255619913339615,-0.052228979766368866,-0.041691552847623825
1702060284199658500,9.063658447265626,-0.22052235901355743,0.0013744467869400978,-0.015882495790719986
1702060284216649500,9.0806494140625,-0.18188512325286865,0.03940080851316452,0.016798794269561768
1702060284233644300,9.097644287109375,-0.15515977144241333,0.022449297830462456,0.027488935738801956
1702060284250651000,9.11465087890625,-0.1186605766415596,0.010079276748001575,0.024129176512360573
1702060284267635000,9.131635009765626,-0.08460483700037003,0.007941247895359993,0.00366519158706069
1702060284284626200,9.148626220703125,-0.050243668258190155,0.014813481830060482,-0.01878410577774048
1702060284301621000,9.16562109375,-0.02321287989616394,0.02580905705690384,-0.020005837082862854
1702060284318614800,9.18261474609375,-0.008399397134780884,0.010079276748001575,-0.009926560334861279
1702060284335606800,9.199606689453125,0.005192354787141085,-0.001527163083665073,0.017867809161543846
1702060284352606000,9.21660595703125,-0.0012217304902151227,-0.001832595793530345,0.03222314268350601
1702060284369599500,9.233599609375,-0.016493361443281174,-0.009162978269159794,0.017867809161543846
1702060284386590200,9.250590087890625,-0.03420845419168472,-0.03084869496524334,-0.016035212203860283
1702060284403586300,9.26758642578125,-0.012828170321881771,-0.02580905705690384,-0.040164388716220856
1702060284420580400,9.284580322265626,0.058337632566690445,0.014508049935102463,-0.039248090237379074
1702060284437572400,9.301572265625,0.13225232064723969,0.04459316283464432,-0.012675453908741474
1702060284454571300,9.3185712890625,0.16004669666290283,0.04352414980530739,0.006719517521560192
1702060284471563300,9.335563232421874,0.1866193264722824,0.028405234217643738,0.019853120669722557
1702060284488557000,9.35255712890625,0.23273965716362,0.020616702735424042,0.009468411095440388
1702060284505541000,9.369541015625,0.3384193480014801,0.04001167416572571,-0.022907447069883347
1702060284522545400,9.38654541015625,0.4870123267173767,0.07727445662021637,-0.036193765699863434
1702060284539531300,9.40353125,0.6152940392494202,0.07666359096765518,-0.014813481830060482
1702060284556533800,9.42053369140625,0.8016079068183899,0.03878994286060333,0.012064588256180286
1702060284573528600,9.437528564453125,1.0329731702804565,0.010231993161141872,0.024434609338641167
1702060284590522000,9.454522216796875,1.1847730875015259,-0.014966198243200779,0.010995574295520782
1702060284607517200,9.47151708984375,1.2183706760406494,0.039706241339445114,0.008704829961061478
1702060284624501500,9.48850146484375,1.2669345140457153,0.16019940376281738,0.01160643994808197
1702060284641505800,9.505505859375,1.4103351831436157,0.2041817009449005,-0.02519819140434265
1702060284658500900,9.5225009765625,1.6641496419906616,0.230448916554451,-0.06811147183179855
1702060284675483100,9.539483154296875,2.009899377822876,0.25595253705978394,-0.07467827945947647
1702060284692487400,9.5564873046875,2.3243422508239746,0.2597704529762268,-0.06414084881544113
1702060284709482500,9.573482421875,2.484389066696167,0.2272418737411499,-0.09086620807647705
1702060284726473700,9.5904736328125,2.4825563430786133,0.22846360504627228,-0.12782354652881622
1702060284743473400,9.607473388671876,2.5027148723602295,0.2984076738357544,-0.1062905490398407
1702060284760464400,9.62446435546875,2.5439484119415283,0.3865249752998352,-0.1134682223200798
1702060284777459200,9.641459228515625,2.6387851238250732,0.30115658044815063,-0.24404066801071167
1702060284794450200,9.6584501953125,2.7009406089782715,0.13316862285137177,-0.39553526043891907
1702060284811450400,9.675450439453124,2.6374106407165527,0.0907134860754013,-0.45494189858436584
1702060284828441300,9.69244140625,2.593122959136963,0.2945897579193115,-0.3481931984424591
1702060284845436200,9.709436279296876,2.6338982582092285,0.6113234162330627,-0.17256943881511688
1702060284862430000,9.726429931640626,2.780811309814453,0.6820310354232788,-0.1693623960018158
1702060284879414000,9.7434140625,2.9297096729278564,0.4749477207660675,-0.3582724630832672
1702060284896415700,9.760415771484375,2.9654452800750732,0.26404649019241333,-0.5047274231910706
1702060284913405200,9.7774052734375,2.9093985557556152,0.24037547409534454,-0.4882340431213379
1702060284930407000,9.794406982421876,2.8571693897247314,0.48869219422340393,-0.2974913716316223
1702060284947393500,9.8113935546875,2.827847957611084,0.6850853562355042,-0.12217304855585098
1702060284964397600,9.8283974609375,2.8075366020202637,0.5239696502685547,-0.18219055235385895
1702060284981389800,9.845389892578124,2.878396987915039,0.4262312352657318,-0.2658790946006775
1702060284998383600,9.862383544921874,2.976135492324829,0.5145012736320496,-0.29336804151535034
1702060285015378200,9.879378173828124,3.124117612838745,0.6491970419883728,-0.318566232919693
1702060285032370000,9.896369873046876,3.1861205101013184,0.6485861539840698,-0.3804163336753845
1702060285049368600,9.91336865234375,3.1146490573883057,0.5859724879264832,-0.34086281061172485
1702060285066358000,9.93035791015625,2.9403998851776123,0.49877145886421204,-0.26145032048225403
1702060285083357700,9.947357666015625,2.7533223628997803,0.48029279708862305,-0.2845104932785034
1702060285100349000,9.964348876953125,2.630385637283325,0.49266281723976135,-0.4411974251270294
1702060285117341000,9.9813408203125,2.596940755844116,0.4818199574947357,-0.5742133259773254
1702060285134329600,9.99832958984375,2.6166412830352783,0.4346306324005127,-0.5949827432632446
1702060285151331800,10.015331787109375,2.6221389770507812,0.44974952936172485,-0.43615779280662537
1702060285168325600,10.03232568359375,2.585487127304077,0.5803219676017761,-0.24205535650253296
1702060285185320400,10.049320556640625,2.531883716583252,0.6021603941917419,-0.23228150606155396
1702060285202314200,10.066314208984375,2.509281635284424,0.4856378734111786,-0.39385536313056946
1702060285219310800,10.083310791015625,2.4549148082733154,0.41661009192466736,-0.4789183437824249
1702060285236300500,10.100300537109375,2.3580925464630127,0.39904773235321045,-0.3588833212852478
1702060285253297400,10.11729736328125,2.297006130218506,0.6139195561408997,-0.16279558837413788
1702060285270291200,10.134291259765625,2.347249746322632,0.7686212062835693,-0.12599095702171326
1702060285287283500,10.151283447265625,2.375654935836792,0.7141014933586121,-0.2635883390903473
1702060285304267300,10.168267333984375,2.3385448455810547,0.5598580241203308,-0.4285219609737396
1702060285321274000,10.185274169921875,2.2316434383392334,0.41859540343284607,-0.48090365529060364
1702060285338253300,10.20225341796875,2.1227567195892334,0.48945578932762146,-0.30054569244384766
1702060285355262700,10.2192626953125,1.9645426273345947,0.6189591884613037,-0.06948592513799667
1702060285372256500,10.236256591796876,1.839773416519165,0.6481280326843262,-0.02535090781748295
1702060285389251000,10.2532509765625,1.8212947845458984,0.5508477091789246,-0.15256360173225403
1702060285406240500,10.270240478515625,1.898263692855835,0.485027015209198,-0.32162055373191833
1702060285423250700,10.287250732421874,1.9407188892364502,0.39553526043891907,-0.4856378734111786
1702060285440233200,10.304233154296876,1.8652770519256592,0.40485092997550964,-0.47051894664764404
1702060285457228000,10.32122802734375,1.6843081712722778,0.4593706727027893,-0.3692680299282074
1702060285474221600,10.3382216796875,1.4425582885742188,0.47280970215797424,-0.2877175211906433
1702060285491216400,10.35521630859375,1.2928962707519531,0.4398229718208313,-0.2499966025352478
1702060285508207600,10.37220751953125,1.2626584768295288,0.4141666293144226,-0.2295326143503189
1702060285525207600,10.38920751953125,1.2475395202636719,0.39813143014907837,-0.21762074530124664
1702060285542186200,10.406186279296875,1.1491901874542236,0.38499781489372253,-0.1647808998823166
1702060285559196000,10.42319580078125,0.95462965965271,0.3666718602180481,-0.11010845750570297
1702060285576187000,10.440186767578124,0.7111998796463013,0.30375275015830994,-0.09987647086381912
1702060285593181700,10.457181640625,0.521984338760376,0.22128593921661377,-0.1333213448524475
1702060285610175500,10.474175537109375,0.41752639412879944,0.13072516024112701,-0.18188512325286865
1702060285627170600,10.491170654296875,0.3620903789997101,0.04505131021142006,-0.2018909603357315
1702060285644163800,10.508163818359375,0.29474249482154846,0.015882495790719986,-0.16783522069454193
1702060285661148400,10.5251484375,0.21578814089298248,0.04153883829712868,-0.07819075137376785
1702060285678152400,10.54215234375,0.15164729952812195,0.035582900047302246,-0.016035212203860283
1702060285695144400,10.55914453125,0.08399397134780884,0.019394971430301666,-0.022907447069883347
1702060285712143400,10.576143310546875,0.005192354787141085,0.017409659922122955,-0.0659734457731247
1702060285729135400,10.59313525390625,-0.07910704612731934,0.001527163083665073,-0.09834930300712585
1702060285746129700,10.610129638671875,-0.1469130963087082,-0.005039638374000788,-0.09162978827953339
1702060285763123700,10.627123779296875,-0.1765400618314743,-0.003512475173920393,-0.037110064178705215
1702060285780117500,10.644117431640625,-0.19776763021945953,-0.01618792861700058,0.021532999351620674
1702060285797112300,10.6611123046875,-0.2226603776216507,-0.060933809727430344,0.03298672288656235
1702060285814105900,10.67810595703125,-0.25824329257011414,-0.09682214260101318,0.03588833287358284
1702060285831100700,10.6951005859375,-0.3055853247642517,-0.11239920556545258,0.02871066704392433
1702060285848094700,10.7120947265625,-0.3474296033382416,-0.12034045159816742,0.003512475173920393
1702060285865089300,10.72908935546875,-0.3625485301017761,-0.09957103431224823,-0.01572977937757969
1702060285882082800,10.746082763671875,-0.3219259977340698,-0.06979135423898697,-0.02474004216492176
1702060285899075000,10.763074951171875,-0.2551889419555664,-0.06123924255371094,-0.01191187184303999
1702060285916074000,10.780073974609374,-0.22861631214618683,-0.09483683109283447,0.009773843921720982
1702060285933066000,10.79706591796875,-0.2373211532831192,-0.14294247329235077,0.00855211354792118
1702060285950060000,10.81406005859375,-0.2571742534637451,-0.1469130963087082,-0.00427605677396059
1702060285967054600,10.8310546875,-0.26740625500679016,-0.12553280591964722,-0.028099801391363144
1702060285984048000,10.848048095703126,-0.28130343556404114,-0.1111774742603302,-0.05451972410082817
1702060286001043000,10.86504296875,-0.2955060601234436,-0.1036943718791008,-0.045204028487205505
1702060286018036700,10.88203662109375,-0.33047810196876526,-0.11957687139511108,-0.028557950630784035
1702060286035031300,10.89903125,-0.36789360642433167,-0.14217889308929443,-0.0377209298312664
1702060286052025300,10.916025390625,-0.4127921760082245,-0.13927727937698364,-0.05345070734620094
1702060286069017300,10.933017333984376,-0.4778493344783783,-0.126143679022789,-0.0455094613134861
1702060286086016500,10.9500166015625,-0.5485569834709167,-0.09773843735456467,0.029474247246980667
1702060286103008800,10.9670087890625,-0.6157521605491638,-0.10384709388017654,0.11804971098899841
1702060286120001800,10.984001708984374,-0.7095199823379517,-0.18066339194774628,0.14416420459747314
1702060286136996900,11.000996826171875,-0.8063421249389648,-0.27580565214157104,0.10919216275215149
1702060286153980000,11.01797998046875,-0.9172141551971436,-0.35063666105270386,0.027641652151942253
1702060286170981400,11.0349814453125,-1.0448850393295288,-0.32589662075042725,-0.009773843921720982
1702060286187982300,11.051982421875,-1.1902709007263184,-0.21319197118282318,0.01878410577774048
1702060286204973800,11.068973876953125,-1.3619240522384644,-0.11239920556545258,0.0832303911447525
1702060286221967000,11.085967041015625,-1.539685845375061,-0.08109235763549805,0.18157969415187836
1702060286238962000,11.1029619140625,-1.747380018234253,-0.18127426505088806,0.2255619913339615
1702060286255955700,11.119955810546875,-1.9914207458496094,-0.30634891986846924,0.22831088304519653
1702060286272950300,11.1369501953125,-2.2321016788482666,-0.3266601860523224,0.2379320114850998
1702060286289941500,11.15394140625,-2.428952932357788,-0.24419337511062622,0.28649580478668213
1702060286306941400,11.17094140625,-2.6196956634521484,-0.17104226350784302,0.3805690407752991
1702060286323932400,11.187932373046875,-2.8325822353363037,-0.23029619455337524,0.45982882380485535
1702060286340924700,11.204924560546875,-3.043330669403076,-0.37598755955696106,0.4489859640598297
1702060286357923600,11.221923583984376,-3.218343496322632,-0.47708576917648315,0.40775254368782043
1702060286374915600,11.23891552734375,-3.305697202682495,-0.4651738703250885,0.4144720733165741
1702060286391909400,11.255909423828125,-3.3576207160949707,-0.36010506749153137,0.4766276180744171
1702060286408890000,11.27289013671875,-3.431535482406616,-0.3295617997646332,0.52702397108078
1702060286425897700,11.289897705078126,-3.536604404449463,-0.4407392740249634,0.5232060551643372
1702060286442892300,11.306892333984376,-3.5798230171203613,-0.5461135506629944,0.5297728776931763
1702060286459886600,11.323886474609376,-3.5602753162384033,-0.5334380865097046,0.5595525503158569
1702060286476881000,11.340880859375,-3.5112533569335938,-0.44715335965156555,0.6035348773002625
1702060286493874700,11.357874755859376,-3.4709362983703613,-0.3721696436405182,0.6640105247497559
1702060286510869500,11.374869384765624,-3.435964345932007,-0.3926336467266083,0.7202101349830627
1702060286527863300,11.39186328125,-3.422830581665039,-0.513126790523529,0.7334964275360107
1702060286544857900,11.40885791015625,-3.4182491302490234,-0.646295428276062,0.7255551815032959
1702060286561853700,11.425853759765625,-3.352428436279297,-0.6597344875335693,0.7302893996238708
1702060286578844200,11.44284423828125,-3.190396547317505,-0.6052147150039673,0.7023423314094543
1702060286595840000,11.459840087890624,-2.9849929809570312,-0.5221370458602905,0.6236934065818787
1702060286612824300,11.47682421875,-2.822350263595581,-0.4306600093841553,0.5445863604545593
1702060286629828400,11.493828369140624,-2.693610191345215,-0.3914119005203247,0.48319441080093384
1702060286646823200,11.5108232421875,-2.585181713104248,-0.42791110277175903,0.4381431043148041
1702060286663817000,11.52781689453125,-2.484389066696167,-0.42149701714515686,0.437226802110672
1702060286680809000,11.54480908203125,-2.3440427780151367,-0.3813326358795166,0.41370847821235657
1702060286697808100,11.56180810546875,-2.202169179916382,-0.30283644795417786,0.3828597962856293
1702060286714799900,11.5787998046875,-2.094198703765869,-0.23335053026676178,0.32681289315223694
1702060286731784000,11.595783935546875,-1.9726365804672241,-0.21624629199504852,0.2597704529762268
1702060286748778000,11.612778076171875,-1.8238909244537354,-0.2399173229932785,0.23487769067287445
1702060286765778400,11.6297783203125,-1.6885842084884644,-0.28328874707221985,0.21594086289405823
1702060286782776800,11.64677685546875,-1.5398385524749756,-0.3078760802745819,0.1869247704744339
1702060286799770600,11.6637705078125,-1.3779592514038086,-0.3078760802745819,0.1791362315416336
1702060286816755000,11.6807548828125,-1.3034337759017944,-0.28695395588874817,0.14340060949325562
1702060286833759000,11.697759033203125,-1.3283264636993408,-0.2822197377681732,0.08750644326210022
1702060286850753800,11.71475390625,-1.3139711618423462,-0.2590068578720093,0.09529497474431992
1702060286867747300,11.731747314453125,-1.296714186668396,-0.23945917189121246,0.10491610318422318
1702060286884743200,11.7487431640625,-1.2863295078277588,-0.242513507604599,0.06902777403593063
1702060286901735000,11.76573486328125,-1.2226468324661255,-0.21074850857257843,0.042760565876960754
1702060286918730800,11.782730712890626,-1.108567714691162,-0.15790866315364838,0.06398813426494598
1702060286935724500,11.799724609375,-1.0464121103286743,-0.1667662113904953,0.07620543986558914
1702060286952722000,11.816721923828124,-1.0709995031356812,-0.19303341209888458,0.0685696229338646
1702060286969709800,11.833709716796875,-1.1554516553878784,-0.17791450023651123,0.07192938029766083
1702060286986697500,11.850697509765626,-1.2162326574325562,-0.17562375962734222,0.05451972410082817
1702060287003701200,11.867701171875,-1.1870639324188232,-0.14294247329235077,0.04581489413976669
1702060287020696000,11.884696044921874,-1.1142182350158691,-0.09682214260101318,0.06322455406188965
1702060287037689600,11.901689697265626,-1.0309878587722778,-0.08628471940755844,0.06918048858642578
1702060287054684400,11.918684326171874,-0.9680687189102173,-0.10674870014190674,0.06062837690114975
1702060287071675400,11.93567529296875,-0.9341656565666199,-0.1241583600640297,0.04444044828414917
1702060287088675600,11.952675537109375,-0.8782715201377869,-0.09987647086381912,0.048105638474226
1702060287105664000,11.9696640625,-0.8032878041267395,-0.05146539583802223,0.06322455406188965
1702060287122664000,11.986663818359375,-0.7202101349830627,-0.032528575509786606,0.06688974797725677
1702060287139655000,12.003655029296874,-0.6728680729866028,-0.04092797264456749,0.08048149943351746
1702060287156649700,12.020649658203125,-0.6780604124069214,-0.09544769674539566,0.0910189226269722
1702060287173643300,12.037643310546875,-0.7133378982543945,-0.12507465481758118,0.10583240538835526
1702060287190638000,12.05463818359375,-0.7428121566772461,-0.11331550031900406,0.10659598559141159
1702060287207632000,12.0716318359375,-0.7272350788116455,-0.04138612002134323,0.08781187981367111
1702060287224624000,12.0886240234375,-0.6637051105499268,0.038026362657547,0.04489859566092491
1702060287241622800,12.105622802734375,-0.5826127529144287,0.05146539583802223,0.02535090781748295
1702060287258615000,12.122614990234375,-0.5445863604545593,0.025961773470044136,0.05726861581206322
1702060287275606000,12.13960595703125,-0.5015203952789307,0.009010262787342072,0.10735956579446793
1702060287292606000,12.15660595703125,-0.43768495321273804,0.0013744467869400978,0.11178833991289139
1702060287309597200,12.17359716796875,-0.33796119689941406,0.006261368747800589,0.08124507963657379
1702060287326592000,12.190592041015625,-0.24007004499435425,0.013439035043120384,0.023518312722444534
1702060287343574800,12.20757470703125,-0.2243402600288391,-0.007177666760981083,-0.019853120669722557
1702060287360580000,12.224580078125,-0.2557998299598694,-0.04260785132646561,-0.019547687843441963
1702060287377574000,12.241573974609375,-0.2860376536846161,-0.02779436856508255,0.01160643994808197
1702060287394569000,12.25856884765625,-0.2718350291252136,-0.020616702735424042,0.008399397134780884
1702060287411562200,12.275562255859375,-0.2142609804868698,-0.028405234217643738,-0.029626963660120964
1702060287428557300,12.292557373046876,-0.17699819803237915,-0.07391469180583954,-0.06963863968849182
1702060287445560000,12.30956005859375,-0.17272214591503143,-0.0936150997877121,-0.062460970133543015
1702060287462542800,12.32654296875,-0.18707747757434845,-0.06750060617923737,-0.03039054572582245
1702060287479541800,12.343541748046874,-0.15836681425571442,-0.016951510682702065,0.003817907767370343
1702060287496534000,12.360533935546876,-0.09422596544027328,-0.018478672951459885,-0.00733038317412138
1702060287513527600,12.377527587890626,-0.036041051149368286,-0.03848451003432274,-0.028557950630784035
1702060287530522400,12.3945224609375,-0.012064588256180286,-0.03634648025035858,-0.029474247246980667
1702060287547516200,12.41151611328125,-0.017409659922122955,-0.006872233934700489,-0.0007635815418325365
1702060287564510700,12.4285107421875,-0.03436116874217987,-0.03436116874217987,-0.005192354787141085
1702060287581502000,12.445501953125,-0.0328340083360672,-0.0780380368232727,-0.03680463135242462
1702060287598502100,12.462502197265625,-0.001527163083665073,-0.07635815441608429,-0.0607810914516449
1702060287615499300,12.479499267578126,0.058184914290905,-0.02168571576476097,-0.039248090237379074
1702060287632487700,12.49648779296875,0.09926560521125793,0.032528575509786606,0.01863138936460018
1702060287649471500,12.513471435546874,0.1111774742603302,0.011759156361222267,0.0403171069920063
1702060287666465800,12.5304658203125,0.09743300825357437,-0.03222314268350601,0.04092797264456749
1702060287683467300,12.54746728515625,0.07910704612731934,-0.031001411378383636,0.04734205827116966
1702060287700467500,12.564467529296875,0.07452555745840073,-0.012675453908741474,0.03237585723400116
1702060287717458200,12.581458251953125,0.10094548016786575,0.01863138936460018,0.007788531947880983
1702060287734453000,12.598452880859375,0.12690725922584534,-0.020463986322283745,-0.0529925599694252
1702060287751446800,12.61544677734375,0.1644754707813263,-0.056352317333221436,-0.07208210229873657
1702060287768441300,12.63244140625,0.22617286443710327,-0.05421429127454758,-0.02229658141732216
1702060287785435000,12.649434814453125,0.2834414839744568,-0.03084869496524334,0.044745877385139465
1702060287802427400,12.666427490234375,0.36682456731796265,-0.017562376335263252,0.06261368840932846
1702060287819426000,12.683426025390625,0.48640143871307373,-0.03955352306365967,-0.006261368747800589
1702060287836402000,12.70040185546875,0.6427829265594482,-0.052839845418930054,-0.09483683109283447
1702060287853410000,12.71741015625,0.8324565887451172,-0.027947084978222847,-0.14126259088516235
1702060287870409000,12.734408935546876,1.0296133756637573,0.01817324012517929,-0.1742493063211441
1702060287887400400,12.751400390625,1.2634220123291016,0.06459899991750717,-0.1771509200334549
1702060287904384500,12.768384521484375,1.4972307682037354,0.1612684279680252,-0.10491610318422318
1702060287921389000,12.78538916015625,1.6788103580474854,0.25473082065582275,-0.012828170321881771
1702060287938383600,12.802383544921875,1.8098410367965698,0.2301434874534607,-0.001527163083665073
1702060287955377400,12.81937744140625,1.9624046087265015,0.1537853181362152,-0.01572977937757969
1702060287972372000,12.8363720703125,2.110234022140503,0.036651913076639175,-0.07773260027170181
1702060287989365800,12.85336572265625,2.247373342514038,0.01618792861700058,-0.13729196786880493
1702060288006360600,12.870360595703126,2.345417022705078,0.14034628868103027,-0.13271047174930573
1702060288023354000,12.88735400390625,2.395049810409546,0.2817615866661072,-0.12797626852989197
1702060288040349000,12.904348876953126,2.372600555419922,0.3165809214115143,-0.1437060534954071
1702060288057342500,12.921342529296876,2.342515468597412,0.24984388053417206,-0.19135354459285736
1702060288074334700,12.938334716796875,2.3295345306396484,0.1598939746618271,-0.25503623485565186
1702060288091333600,12.955333740234375,2.3713788986206055,0.1440114825963974,-0.3191770911216736
1702060288108326000,12.972325927734374,2.4465153217315674,0.2028072625398636,-0.3651446998119354
1702060288125319400,12.9893193359375,2.5141687393188477,0.2382374405860901,-0.3830125033855438
1702060288142314000,13.00631396484375,2.574033498764038,0.25366178154945374,-0.2799290120601654
1702060288159307800,13.023307861328124,2.654515027999878,0.2968805134296417,-0.10613783448934555
1702060288176302600,13.040302490234374,2.805551290512085,0.4216497242450714,0.011453723534941673
1702060288193296400,13.05729638671875,2.8996245861053467,0.4590652287006378,-0.02672535367310047
1702060288210291200,13.074291259765625,2.9491047859191895,0.375071257352829,-0.1391245573759079
1702060288227284500,13.091284423828125,2.9909489154815674,0.39446622133255005,-0.15515977144241333
1702060288244278000,13.108278076171874,3.02622652053833,0.5183191895484924,-0.07880161702632904
1702060288261266200,13.12526611328125,3.054326295852661,0.6757696866989136,-0.02779436856508255
1702060288278268200,13.14226806640625,3.0694451332092285,0.655458390712738,-0.15836681425571442
1702060288295261400,13.159261474609375,3.0754010677337646,0.5067127346992493,-0.3680463135242462
1702060288312238000,13.176238037109375,3.1059443950653076,0.4179845452308655,-0.4521929919719696
1702060288329247500,13.19324755859375,3.107471466064453,0.4964807331562042,-0.35384368896484375
1702060288346247200,13.2102470703125,3.03737473487854,0.711963415145874,-0.16172657907009125
1702060288363238400,13.22723828125,2.953227996826172,0.8199338912963867,-0.10415252298116684
1702060288380230700,13.244230712890625,2.8377745151519775,0.6855435371398926,-0.19746218621730804
1702060288397229300,13.261229248046876,2.7119362354278564,0.4999932050704956,-0.3078760802745819
1702060288414221800,13.278221923828125,2.5752551555633545,0.4031710624694824,-0.40072759985923767
1702060288431215000,13.295215087890625,2.4381158351898193,0.47907108068466187,-0.4922046661376953
1702060288448210000,13.3122099609375,2.379167318344116,0.5480988621711731,-0.4940372705459595
1702060288465203700,13.32920361328125,2.3484714031219482,0.49296826124191284,-0.37598755955696106
1702060288482198300,13.3461982421875,2.300365686416626,0.3900374472141266,-0.21441370248794556
1702060288499189500,13.363189453125,2.2545509338378906,0.3338378667831421,-0.14645494520664215
1702060288516178700,13.3801787109375,2.2490530014038086,0.3029891550540924,-0.2541199326515198
1702060288533180400,13.397180419921876,2.2489004135131836,0.29596421122550964,-0.2893974184989929
1702060288550175200,13.41417529296875,2.2180516719818115,0.3874412775039673,-0.19593502581119537
1702060288567158300,13.431158203125,2.1398608684539795,0.3799581825733185,-0.07422012835741043
1702060288584163600,13.44816357421875,2.113593816757202,0.3404046595096588,0.02932153269648552
1702060288601156600,13.465156494140626,2.124283790588379,0.35414913296699524,0.04444044828414917
1702060288618153000,13.482153076171874,2.102292776107788,0.47082439064979553,-0.001832595793530345
1702060288635145500,13.4991455078125,2.077247381210327,0.5873469114303589,-0.08429940044879913
1702060288652140800,13.516140869140624,2.048383951187134,0.5578727126121521,-0.14508049190044403
1702060288669134000,13.533134033203124,1.994780421257019,0.4876231849193573,-0.06536258012056351
1702060288686133800,13.5501337890625,1.9127718210220337,0.4306600093841553,0.0429132841527462
1702060288703122700,13.567122802734374,1.814880609512329,0.4398229718208313,0.054367005825042725
1702060288720117200,13.5841171875,1.7061465978622437,0.47510045766830444,-0.051770828664302826
1702060288737111000,13.601111083984375,1.5836681127548218,0.49296826124191284,-0.1742493063211441
1702060288754105900,13.61810595703125,1.4645494222640991,0.4893030524253845,-0.23487769067287445
1702060288771099600,13.635099609375,1.3252722024917603,0.45662176609039307,-0.206777885556221
1702060288788094200,13.65209423828125,1.129184365272522,0.39584067463874817,-0.10781771689653397
1702060288805088000,13.669087890625,0.9447031021118164,0.3130684494972229,-0.047800205647945404
1702060288822082600,13.68608251953125,0.8397870063781738,0.285121351480484,-0.04596760869026184
1702060288839076400,13.703076416015625,0.8429940342903137,0.36819902062416077,-0.010995574295520782
1702060288856071000,13.72007080078125,0.8956811428070068,0.4586070775985718,0.043218716979026794
1702060288873064400,13.737064453125,0.8764389157295227,0.4109596014022827,0.03848451003432274
1702060288890059500,13.7540595703125,0.7180721163749695,0.30314189195632935,0.027947084978222847
1702060288907053000,13.771052978515625,0.49296826124191284,0.18829920887947083,-0.00931569468230009
1702060288924048600,13.788048583984375,0.3220787048339844,0.09987647086381912,-0.057879481464624405
1702060288941040600,13.80504052734375,0.2151772826910019,0.02871066704392433,-0.08796459436416626
1702060288958017800,13.822017822265625,0.13377949595451355,0.005497787147760391,-0.10919216275215149
1702060288975030000,13.839030029296875,0.046731192618608475,0.004123340360820293,-0.11010845750570297
1702060288992024800,13.85602490234375,-0.04398229718208313,-0.02275473065674305,-0.07330382615327835
1702060289009018600,13.8730185546875,-0.1134682223200798,-0.05360342562198639,-0.017409659922122955
1702060289026013700,13.890013671875,-0.12889257073402405,-0.07070764899253845,0.019547687843441963
1702060289043006500,13.90700634765625,-0.11713340878486633,-0.09605856239795685,0.039095375686883926
1702060289060001500,13.92400146484375,-0.10751228034496307,-0.12202033400535583,0.015118914656341076
1702060289076995300,13.940995361328126,-0.10201449692249298,-0.1085812970995903,-0.02886338345706463
1702060289093990000,13.957989990234376,-0.12171489745378494,-0.0656680166721344,-0.04932736977934837
1702060289110973200,13.97497314453125,-0.16340644657611847,-0.04199698567390442,-0.045204028487205505
1702060289127978500,13.991978515625,-0.20784689486026764,-0.044287730008363724,0.005497787147760391
1702060289144958000,14.0089580078125,-0.2321287989616394,-0.06444628536701202,0.060933809727430344
1702060289161970700,14.025970703125,-0.20952677726745605,-0.09086620807647705,0.07910704612731934
1702060289178960600,14.042960693359374,-0.16539175808429718,-0.09254608303308487,0.06017022579908371
1702060289195955200,14.059955078125,-0.11820242553949356,-0.06734789162874222,0.010690141469240189
1702060289212949000,14.076948974609374,-0.10262536257505417,-0.04337143152952194,-0.05910121276974678
1702060289229943800,14.09394384765625,-0.12400564551353455,-0.029168816283345222,-0.07742717117071152
1702060289246937300,14.110937255859374,-0.15546520054340363,-0.038179077208042145,-0.05772676691412926
1702060289263932200,14.12793212890625,-0.15913039445877075,-0.05711590126156807,-0.013744467869400978
1702060289280925700,14.14492578125,-0.14905111491680145,-0.08246681094169617,0.022449297830462456
1702060289297920500,14.16192041015625,-0.13973543047904968,-0.11499538272619247,0.012980886735022068
1702060289314904600,14.178904541015624,-0.12568552792072296,-0.11239920556545258,-0.027183502912521362
1702060289331908900,14.195908935546875,-0.14767667651176453,-0.09300423413515091,-0.07483099400997162
1702060289348900900,14.21290087890625,-0.20128010213375092,-0.07864890247583389,-0.07727445662021637
1702060289365899000,14.22989892578125,-0.2721404731273651,-0.08506298810243607,-0.04230241850018501
1702060289382898000,14.24689794921875,-0.3234531581401825,-0.08994990587234497,0.03344487398862839
1702060289399884500,14.263884521484375,-0.3533855378627777,-0.10644327104091644,0.08200865983963013
1702060289416882200,14.280882080078126,-0.3923282027244568,-0.11957687139511108,0.05971207842230797
1702060289433873000,14.297872802734375,-0.470060795545578,-0.12568552792072296,-0.004734205547720194
1702060289450868000,14.314867919921875,-0.5839871764183044,-0.12049316614866257,-0.08048149943351746
1702060289467862500,14.331862548828125,-0.6918048858642578,-0.10247264802455902,-0.11820242553949356
1702060289484856300,14.348856201171875,-0.8187121152877808,-0.10033461451530457,-0.09315694868564606
1702060289501851100,14.36585107421875,-0.9821186065673828,-0.13408492505550385,-0.06185010448098183
1702060289518832600,14.38283251953125,-1.1459832191467285,-0.14523321390151978,0.0009162978967651725
1702060289535839500,14.399839599609376,-1.3318389654159546,-0.14523321390151978,0.06505715101957321
1702060289552833300,14.416833251953125,-1.580308437347412,-0.17318029701709747,0.058948494493961334
1702060289569827800,14.433827880859376,-1.832595705986023,-0.23747386038303375,0.02871066704392433
1702060289586821600,14.450821533203126,-2.035097599029541,-0.30604347586631775,0.023060163483023643
1702060289603816400,14.46781640625,-2.194838762283325,-0.3168863356113434,0.07681630551815033
1702060289620808700,14.48480859375,-2.3577871322631836,-0.24892759323120117,0.21670444309711456
1702060289637806000,14.50180615234375,-2.518444776535034,-0.22388210892677307,0.3400992155075073
1702060289654798300,14.51879833984375,-2.669175624847412,-0.3243694305419922,0.3643811047077179
1702060289671793200,14.535793212890624,-2.8351783752441406,-0.48319441080093384,0.33628132939338684
1702060289688786700,14.55278662109375,-2.984687566757202,-0.5896376967430115,0.3039054572582245
1702060289705781800,14.56978173828125,-3.0966286659240723,-0.5619960427284241,0.3149010241031647
1702060289722772700,14.586772705078126,-3.1416800022125244,-0.44364088773727417,0.3712533414363861
1702060289739772700,14.603772705078125,-3.137709379196167,-0.3306308090686798,0.451582133769989
1702060289756764700,14.6207646484375,-3.1030428409576416,-0.3649919927120209,0.504574716091156
1702060289773758500,14.637758544921875,-3.0473012924194336,-0.502436637878418,0.5079344511032104
1702060289790751200,14.654751220703124,-2.9975156784057617,-0.6143777370452881,0.48716503381729126
1702060289807750100,14.671750244140625,-2.9626965522766113,-0.5868887901306152,0.4996877610683441
1702060289824738600,14.688738525390624,-2.9472720623016357,-0.5233588218688965,0.5309945940971375
1702060289841732600,14.705732666015624,-2.925586462020874,-0.5047274231910706,0.5429064631462097
1702060289858731500,14.7227314453125,-2.850755453109741,-0.5100724697113037,0.5259549617767334
1702060289875723800,14.739723876953125,-2.766608715057373,-0.49586987495422363,0.5015203952789307
1702060289892707600,14.75670751953125,-2.6922359466552734,-0.4781547784805298,0.5038111209869385
1702060289909712100,14.773712158203125,-2.6667323112487793,-0.4938845634460449,0.49144110083580017
1702060289926710300,14.790710205078126,-2.6904032230377197,-0.499382346868515,0.4628831446170807
1702060289943702000,14.807701904296875,-2.6988027095794678,-0.4404338300228119,0.43737950921058655
1702060289960694300,14.8246943359375,-2.6532931327819824,-0.3533855378627777,0.4129449129104614
1702060289977688300,14.841688232421875,-2.5302038192749023,-0.28695395588874817,0.4167627990245819
1702060289994683000,14.858682861328125,-2.359467029571533,-0.3121521472930908,0.42042800784111023
1702060290011677200,14.87567724609375,-2.229810953140259,-0.4524984359741211,0.35964691638946533
1702060290028671000,14.8926708984375,-2.160630464553833,-0.6236934065818787,0.24923302233219147
1702060290045665800,14.909665771484375,-2.1152737140655518,-0.607810914516449,0.2515237629413605
1702060290062659600,14.92665966796875,-2.0508272647857666,-0.4715879559516907,0.3026837408542633
1702060290079654100,14.943654052734376,-1.9732474088668823,-0.3674354553222656,0.3349068760871887
1702060290096648000,14.96064794921875,-1.898263692855835,-0.3341432809829712,0.3436116874217987
1702060290113642500,14.977642578125,-1.7939585447311401,-0.38148534297943115,0.31902438402175903
1702060290130636300,14.99463623046875,-1.6762142181396484,-0.43936482071876526,0.28955012559890747
1702060290147631000,15.011631103515626,-1.5778648853302002,-0.47250425815582275,0.22067506611347198
1702060290164624600,15.028624755859376,-1.500285029411316,-0.3758348524570465,0.15286903083324432
1702060290181619500,15.045619384765626,-1.432326316833496,-0.18784105777740479,0.1511891484260559
1702060290198613200,15.06261328125,-1.4245377779006958,-0.08491026610136032,0.15241087973117828
1702060290215612000,15.07961181640625,-1.4665347337722778,-0.11911872029304504,0.1488984078168869
1702060290232601600,15.0966015625,-1.49738347530365,-0.25182920694351196,0.13607023656368256
1702060290249585700,15.113585693359376,-1.507157325744629,-0.33307427167892456,0.06475171446800232
1702060290266577700,15.13057763671875,-1.431868076324463,-0.2915354371070862,-0.001679879380390048
1702060290283586600,15.147586669921875,-1.3167200088500977,-0.21838432550430298,-0.021532999351620674
1702060290300578300,15.164578369140624,-1.249066710472107,-0.16493362188339233,0.02580905705690384
1702060290317573000,15.181572998046875,-1.216843605041504,-0.15225815773010254,0.060322944074869156
1702060290334566700,15.198566650390624,-1.1820242404937744,-0.15745051205158234,0.0734565481543541
1702060290351561700,15.215561767578125,-1.1146763563156128,-0.12660181522369385,0.05696318298578262
1702060290368555300,15.23255517578125,-0.9755517840385437,-0.04077525436878204,0.030085112899541855
1702060290385549800,15.2495498046875,-0.8422304391860962,-0.07299839705228806,0.030543262138962746
1702060290402533000,15.266533203125,-0.7707592248916626,-0.05910121276974678,0.0659734457731247
1702060290419538400,15.283538330078125,-0.7971791625022888,-0.08735372871160507,0.07452555745840073
1702060290436532000,15.300531982421875,-0.8478809595108032,-0.10247264802455902,0.10186178237199783
1702060290453526800,15.31752685546875,-0.8663596510887146,-0.1082758679986,0.08994990587234497
1702060290470520600,15.3345205078125,-0.8278751373291016,-0.05268712714314461,0.0529925599694252
1702060290487515100,15.35151513671875,-0.7544185519218445,0.015271631069481373,0.04459316283464432
1702060290504498400,15.36849853515625,-0.7341073155403137,0.020463986322283745,0.04245513305068016
1702060290521503500,15.38550341796875,-0.7263187766075134,-0.014508049935102463,0.023365596309304237
1702060290538497300,15.402497314453125,-0.7061602473258972,-0.01191187184303999,0.008704829961061478
1702060290555492000,15.4194921875,-0.6653849482536316,0.006719517521560192,-0.0006108652451075613
1702060290572486000,15.43648583984375,-0.5969680547714233,0.02779436856508255,-0.003054326167330146
1702060290589477000,15.45347705078125,-0.53328537940979,0.029474247246980667,0.012064588256180286
1702060290606477800,15.470477783203124,-0.48777589201927185,0.002138028386980295,0.029168816283345222
1702060290623468800,15.48746875,-0.47250425815582275,-0.02076941914856434,0.04046982154250145
1702060290640462600,15.504462646484376,-0.4415028691291809,-0.014202617108821869,0.05345070734620094
1702060290657457400,15.52145751953125,-0.4184426963329315,-0.03237585723400116,0.023365596309304237
1702060290674451000,15.538450927734376,-0.40882155299186707,-0.05665775015950203,-0.01725694350898266
1702060290691445800,15.55544580078125,-0.4109596014022827,-0.03527746722102165,-0.02687807008624077
1702060290708439600,15.572439453125,-0.39965859055519104,0.012675453908741474,-0.02122756652534008
1702060290725434000,15.58943408203125,-0.3727805018424988,0.03145955875515938,-0.030085112899541855
1702060290742428000,15.606427978515624,-0.33169981837272644,-0.00015271631127689034,-0.04612032696604729
1702060290759422500,15.62342236328125,-0.29245173931121826,-0.03298672288656235,-0.04917465150356293
1702060290776416300,15.640416259765624,-0.2715296149253845,-0.039248090237379074,-0.03176499158143997
1702060290793411000,15.6574111328125,-0.26190847158432007,-0.03084869496524334,-0.003359758760780096
1702060290810404600,15.674404541015624,-0.24129177629947662,-0.005955935921519995,0.0064140851609408855
1702060290827389000,15.691388916015624,-0.22403483092784882,-0.002138028386980295,0
1702060290844390400,15.708390380859376,-0.2099849283695221,-0.027030786499381065,-0.018020525574684143
1702060290861390600,15.725390625,-0.2275473028421402,-0.04657847434282303,-0.01618792861700058
1702060290878381600,15.742381591796875,-0.23808473348617554,-0.04245513305068016,-0.012064588256180286
1702060290895376100,15.759376220703125,-0.24358251690864563,-0.015271631069481373,0.0039706239476799965
1702060290912370000,15.776369873046875,-0.24404066801071167,-0.009010262787342072,-0.0032070425804704428
1702060290929351000,15.793350830078126,-0.24205535650253296,-0.024129176512360573,-0.008399397134780884
1702060290946358300,15.810358154296875,-0.22418753802776337,-0.03344487398862839,-0.011453723534941673
1702060290963353000,15.82735302734375,-0.19364428520202637,-0.024892758578062057,0.0019853119738399982
1702060290980344600,15.844344482421874,-0.17379115521907806,-0.023976460099220276,0.006108652334660292
1702060290997343700,15.86134375,-0.1736384481191635,-0.02535090781748295,0.019547687843441963
1702060291014317800,15.87831787109375,-0.16539175808429718,-0.02428189292550087,0.024587325751781464
1702060291031329800,15.895329833984375,-0.16081027686595917,-0.03420845419168472,0.013439035043120384
1702060291048321000,15.912321044921875,-0.1258382350206375,-0.014355333521962166,0.014202617108821869
1702060291065321000,15.929321044921876,-0.08139779418706894,-0.012675453908741474,0.015271631069481373
1702060291082312000,15.94631201171875,-0.044745877385139465,-0.016493361443281174,0.024892758578062057
1702060291099306800,15.963306640625,-0.07483099400997162,-0.035124752670526505,0.020463986322283745
1702060291116300500,15.980300537109375,-0.12767083942890167,-0.048105638474226,0.009010262787342072
1702060291133285000,15.99728515625,-0.1466076523065567,-0.014049900695681572,0.012980886735022068
1702060291150284500,16.014284423828126,-0.13958270847797394,0.019394971430301666,0.0013744467869400978
1702060291167287600,16.03128759765625,-0.1371392458677292,0.014202617108821869,-0.0027488935738801956
1702060291184277500,16.048277587890624,-0.164170041680336,-0.024129176512360573,0.005039638374000788
1702060291201269200,16.065269287109373,-0.2002110779285431,-0.05100724846124649,0.030543262138962746
1702060291218268200,16.08226806640625,-0.21609358489513397,-0.043676864355802536,0.04688390716910362
1702060291235260200,16.09926025390625,-0.17791450023651123,0.007635815534740686,0.03848451003432274
1702060291252254000,16.11625390625,-0.07452555745840073,0.048716504126787186,0.013744467869400978
1702060291269248800,16.133248779296874,0.030085112899541855,0.032681290060281754,0.001527163083665073
1702060291286231800,16.150231689453125,0.029932396486401558,-0.022907447069883347,0.0003054326225537807
1702060291303237000,16.167237060546874,-0.02932153269648552,-0.08109235763549805,0.02229658141732216
1702060291320230000,16.18422998046875,-0.08139779418706894,-0.10125091671943665,0.01863138936460018
1702060291337226500,16.2012265625,-0.05742133408784866,-0.06688974797725677,0.001527163083665073
1702060291354222300,16.218222412109377,-0.010537425056099892,-0.014202617108821869,0.002138028386980295
1702060291371209700,16.235209716796874,0.016951510682702065,0.004734205547720194,0.021532999351620674
1702060291388212200,16.252212158203125,0.013439035043120384,-0.012064588256180286,0.04138612002134323
1702060291405202700,16.26920263671875,-0.021532999351620674,-0.03191770985722542,0.04184427112340927
1702060291422193400,16.286193359375,-0.047800205647945404,-0.03436116874217987,0.012064588256180286
1702060291439193600,16.303193603515624,-0.027030786499381065,0.003054326167330146,-0.0012217304902151227
1702060291456184600,16.3201845703125,0.007635815534740686,0.035124752670526505,0.02229658141732216
1702060291473179400,16.337179443359375,0.03130684420466423,0.03145955875515938,0.058948494493961334
1702060291490173000,16.3541728515625,0.036651913076639175,0.009162978269159794,0.06811147183179855
1702060291507165200,16.371165283203126,0.033139441162347794,-0.002138028386980295,0.06123924255371094
1702060291524163800,16.388163818359374,0.039248090237379074,-0.01542434748262167,0.02871066704392433
1702060291541142500,16.405142578125,0.07437284290790558,-0.027641652151942253,-0.003054326167330146
1702060291558152400,16.42215234375,0.11484266817569733,-0.03344487398862839,-0.01725694350898266
1702060291575144400,16.43914453125,0.1281289905309677,-0.01878410577774048,-0.021532999351620674
1702060291592138200,16.45613818359375,0.1371392458677292,0.010079276748001575,0.003512475173920393
1702060291609133000,16.473133056640624,0.1466076523065567,0.010995574295520782,0.018020525574684143
1702060291626126600,16.490126708984373,0.17211128771305084,-0.009926560334861279,0.019089538604021072
1702060291643121400,16.507121337890624,0.21288654208183289,-0.03176499158143997,-0.0003054326225537807
1702060291660112400,16.5241123046875,0.2509129047393799,-0.05711590126156807,-0.04382958263158798
1702060291677112300,16.5411123046875,0.290313720703125,-0.04108068719506264,-0.057879481464624405
1702060291694103300,16.558103271484374,0.32940909266471863,0.0013744467869400978,-0.041233405470848083
1702060291711098000,16.57509814453125,0.3908010423183441,0.04245513305068016,-0.018020525574684143
1702060291728092000,16.592091796875,0.5048801302909851,0.017409659922122955,-0.014049900695681572
1702060291745086700,16.609086669921876,0.6533203721046448,-0.029474247246980667,-0.022907447069883347
1702060291762079700,16.626079833984374,0.8092437386512756,0.001527163083665073,0.006108652334660292
1702060291779075300,16.643075439453124,0.9443976879119873,0.020922135561704636,-0.0012217304902151227
1702060291796068600,16.660068603515626,1.0538952350616455,0.02977968007326126,-0.046273041516542435
1702060291813071600,16.677071533203126,1.1204795837402344,0.05253441259264946,-0.11468994617462158
1702060291830053000,16.69405322265625,1.2229522466659546,0.12690725922584534,-0.1371392458677292
1702060291847052000,16.711052001953124,1.3691017627716064,0.17088955640792847,-0.09162978827953339
1702060291864045600,16.728045654296874,1.5421292781829834,0.13897185027599335,-0.061391957104206085
1702060291881037800,16.745037841796876,1.6969836950302124,0.05711590126156807,-0.06490442901849747
1702060291898036500,16.762036376953127,1.8216001987457275,-0.013133603148162365,-0.0910189226269722
1702060291915035400,16.779035400390626,1.8875735998153687,-0.01863138936460018,-0.1313360333442688
1702060291932022300,16.796022216796874,1.9252945184707642,0.08994990587234497,-0.15745051205158234
1702060291949014300,16.81301416015625,1.986228346824646,0.31154128909111023,-0.09544769674539566
1702060291966013200,16.83001318359375,2.0777053833007812,0.4642575979232788,0.02367102913558483
1702060291983005400,16.84700537109375,2.169335126876831,0.4560109078884125,0.1264491081237793
1702060292000002000,16.864001953125,2.263866662979126,0.35353827476501465,0.12461651116609573
1702060292016991200,16.8809912109375,2.3487768173217773,0.24007004499435425,-0.019394971430301666
1702060292033987800,16.89798779296875,2.4223861694335938,0.22968533635139465,-0.18219055235385895
1702060292050982100,16.914982177734377,2.495689868927002,0.31673362851142883,-0.2301434874534607
1702060292067976000,16.931975830078127,2.576935052871704,0.4642575979232788,-0.15683965384960175
1702060292084970800,16.948970703125,2.6224443912506104,0.5694791078567505,-0.07483099400997162
1702060292101964300,16.96596435546875,2.635272741317749,0.5418374538421631,-0.09758572280406952
1702060292118959000,16.982958984375,2.674826145172119,0.4964807331562042,-0.164170041680336
1702060292135953700,16.99995361328125,2.7119362354278564,0.46731191873550415,-0.25641068816185
1702060292152945400,17.0169453125,2.7006351947784424,0.41890084743499756,-0.34544429183006287
1702060292169941200,17.033941162109375,2.727513313293457,0.4761694669723511,-0.3599523603916168
1702060292186922000,17.050921875,2.7600419521331787,0.5653557777404785,-0.337503045797348
1702060292203929600,17.0679296875,2.7959301471710205,0.6246097087860107,-0.3625485301017761
1702060292220923600,17.084923583984374,2.8632781505584717,0.6876815557479858,-0.37491855025291443
1702060292237908000,17.101907958984373,2.934443950653076,0.7102835774421692,-0.3845396637916565
1702060292254910200,17.11891015625,3.0080530643463135,0.693637490272522,-0.3966042697429657
1702060292271909000,17.1359091796875,3.0802879333496094,0.6960809230804443,-0.394618958234787
1702060292288901000,17.152901123046874,3.09586501121521,0.7617489695549011,-0.395077109336853
1702060292305895000,17.16989501953125,2.979037046432495,0.8350527882575989,-0.38087448477745056
1702060292322889500,17.186889404296874,2.8011226654052734,0.8248208165168762,-0.3623957931995392
1702060292339883300,17.20388330078125,2.6558892726898193,0.7351763248443604,-0.36682456731796265
1702060292356867300,17.220867431640624,2.5668556690216064,0.6614143252372742,-0.4346306324005127
1702060292373871600,17.23787158203125,2.5164594650268555,0.5633704662322998,-0.5283984541893005
1702060292390866700,17.25486669921875,2.459190845489502,0.5132794976234436,-0.5818491578102112
1702060292407856000,17.271856201171875,2.333352565765381,0.546571671962738,-0.5526803135871887
1702060292424854800,17.288854736328126,2.2149972915649414,0.5337435007095337,-0.47021353244781494
1702060292441847000,17.305846923828124,2.0920608043670654,0.43615779280662537,-0.35674530267715454
1702060292458844700,17.3228447265625,2.040442705154419,0.327729195356369,-0.3715587854385376
1702060292475837000,17.3398369140625,2.0561723709106445,0.2799290120601654,-0.3208569586277008
1702060292492831700,17.356831787109375,2.016160726547241,0.3439171314239502,-0.2041817009449005
1702060292509815000,17.37381494140625,1.8715384006500244,0.4179845452308655,-0.15546520054340363
1702060292526820000,17.390820068359375,1.7311921119689941,0.4430300295352936,-0.16554448008537292
1702060292543811300,17.407811279296876,1.6319265365600586,0.42180246114730835,-0.22021691501140594
1702060292560811000,17.42481103515625,1.606881022453308,0.3576616048812866,-0.21303924918174744
1702060292577791700,17.441791748046874,1.5945110321044922,0.32650747895240784,-0.1293507218360901
1702060292594796800,17.458796875,1.4911220073699951,0.2863430976867676,-0.11239920556545258
1702060292611793000,17.47579296875,1.330464482307434,0.32360586524009705,-0.14553864300251007
1702060292628775200,17.492775146484377,1.2249375581741333,0.36789360642433167,-0.23900102078914642
1702060292645779000,17.509779052734373,1.2044734954833984,0.35781431198120117,-0.3488040566444397
1702060292662773500,17.5267734375,1.2191343307495117,0.29046642780303955,-0.3663664162158966
1702060292679767300,17.543767333984373,1.2136365175247192,0.26908615231513977,-0.20861047506332397
1702060292696762000,17.56076220703125,1.1133018732070923,0.23976461589336395,-0.010079276748001575
1702060292713755600,17.577755615234373,0.9468411207199097,0.18127426505088806,0.0858265683054924
1702060292730750500,17.59475048828125,0.7967209815979004,0.10766500234603882,0.023518312722444534
1702060292747744000,17.611743896484374,0.6983717083930969,0.06719517707824707,-0.08002334833145142
1702060292764738800,17.62873876953125,0.6800457239151001,0.10476338863372803,-0.13454307615756989
1702060292781732600,17.645732666015626,0.7130324840545654,0.16768251359462738,-0.11820242553949356
1702060292798727200,17.66272705078125,0.7345654368400574,0.1892155110836029,-0.035582900047302246
1702060292815721000,17.679720947265626,0.6316346526145935,0.11713340878486633,0.014355333521962166
1702060292832704300,17.696704345703125,0.45494189858436584,0.011301007121801376,0.009468411095440388
1702060292849701000,17.713701171875,0.3043636083602905,-0.005650503560900688,-0.012980886735022068
1702060292866704100,17.7307041015625,0.2203696370124817,0.03848451003432274,-0.04703662544488907
1702060292883698000,17.747697998046874,0.20845776796340942,0.09514226019382477,-0.06612616032361984
1702060292900692500,17.7646923828125,0.2174680233001709,0.12324206531047821,-0.06918048858642578
1702060292917686300,17.781686279296874,0.1892155110836029,0.09040805697441101,-0.05742133408784866
1702060292934680800,17.798680908203124,0.11972958594560623,0.01191187184303999,-0.031154127791523933
1702060292951674600,17.815674560546874,0.04581489413976669,-0.01863138936460018,0.003054326167330146
1702060292968669400,17.83266943359375,-0.01572977937757969,0.00809396430850029,0.02535090781748295
1702060292985663000,17.8496630859375,-0.05910121276974678,0.015118914656341076,0.0019853119738399982
1702060293002664200,17.866664306640626,-0.09193521738052368,-0.0003054326225537807,-0.04001167416572571
1702060293019648800,17.883648681640626,-0.12110403180122375,-0.0354301854968071,-0.06398813426494598
1702060293036649000,17.90064892578125,-0.166460782289505,-0.044287730008363724,-0.023060163483023643
1702060293053652700,17.91765283203125,-0.23319780826568604,-0.06123924255371094,0.015882495790719986
1702060293070634800,17.934634765625,-0.2782491147518158,-0.08491026610136032,0.041233405470848083
1702060293087628300,17.951628173828126,-0.29504790902137756,-0.11041389405727386,0.024587325751781464
1702060293104636000,17.968635986328124,-0.2997821271419525,-0.13698652386665344,-0.031612277030944824
1702060293121616600,17.98561669921875,-0.28878653049468994,-0.13790282607078552,-0.08124507963657379
1702060293138611500,18.002611572265625,-0.28557950258255005,-0.10491610318422318,-0.06398813426494598
1702060293155605000,18.01960498046875,-0.33200526237487793,-0.13209961354732513,-0.0529925599694252
1702060293172597200,18.03659716796875,-0.4225660264492035,-0.19226983189582825,-0.05451972410082817
1702060293189596000,18.053595947265624,-0.5006040930747986,-0.21594086289405823,-0.027947084978222847
1702060293206588400,18.07058837890625,-0.5328271985054016,-0.18448130786418915,-0.00366519158706069
1702060293223579600,18.08757958984375,-0.5700899958610535,-0.1212567538022995,0.021532999351620674
1702060293240580000,18.104580078125,-0.6340781450271606,-0.06887505948543549,0.04764748737215996
1702060293257552600,18.121552734375,-0.6997461318969727,-0.076052725315094,0.06261368840932846
1702060293274565000,18.138565185546874,-0.7730499505996704,-0.1488984078168869,0.054367005825042725
1702060293291556400,18.155556396484375,-0.8752171993255615,-0.23548854887485504,0.02428189292550087
1702060293308556000,18.17255615234375,-0.9969320893287659,-0.260992169380188,-0.0029016099870204926
1702060293325547000,18.189547119140624,-1.1218540668487549,-0.20265454053878784,0.0503963828086853
1702060293342527000,18.20652685546875,-1.2504411935806274,-0.15790866315364838,0.11560624837875366
1702060293359535600,18.22353564453125,-1.3687963485717773,-0.13820825517177582,0.144622340798378
1702060293376528000,18.24052783203125,-1.4805846214294434,-0.17959438264369965,0.13271047174930573
1702060293393536000,18.257535888671875,-1.6459764242172241,-0.285121351480484,0.09957103431224823
1702060293410518800,18.274518798828126,-1.8632917404174805,-0.3517056703567505,0.08720101416110992
1702060293427512300,18.29151220703125,-2.0502164363861084,-0.3436116874217987,0.13958270847797394
1702060293444507100,18.308507080078126,-2.2227859497070312,-0.3257438838481903,0.2223549485206604
1702060293461500700,18.325500732421876,-2.3800837993621826,-0.3197879493236542,0.29107728600502014
1702060293478485200,18.3424853515625,-2.507296323776245,-0.34086281061172485,0.2977968156337738
1702060293495489300,18.3594892578125,-2.6035077571868896,-0.3926336467266083,0.2802344262599945
1702060293512483800,18.37648388671875,-2.7090346813201904,-0.48976120352745056,0.27229318022727966
1702060293529477400,18.393477294921876,-2.802802562713623,-0.5244278311729431,0.33505958318710327
1702060293546472200,18.41047216796875,-2.8875601291656494,-0.5021312236785889,0.45066583156585693
1702060293563466000,18.427466064453125,-2.958878517150879,-0.4671591818332672,0.5642867684364319
1702060293580460500,18.44446044921875,-2.979189872741699,-0.48258355259895325,0.6126978397369385
1702060293597454600,18.46145458984375,-2.9582676887512207,-0.5053382515907288,0.6348416805267334
1702060293614449200,18.47844921875,-2.9526171684265137,-0.5126686692237854,0.6575964093208313
1702060293631443000,18.49544287109375,-2.9610166549682617,-0.55069500207901,0.6415612101554871
1702060293648437500,18.5124375,-2.9494102001190186,-0.5786421298980713,0.6081163287162781
1702060293665431300,18.529431396484377,-2.8935160636901855,-0.5355761051177979,0.6177374720573425
1702060293682425900,18.54642578125,-2.782796621322632,-0.5170974135398865,0.6044511795043945
1702060293699419400,18.56341943359375,-2.6444356441497803,-0.49693888425827026,0.5419901609420776
1702060293716414500,18.58041455078125,-2.4547619819641113,-0.418748140335083,0.46379944682121277
1702060293733408000,18.597407958984373,-2.233934164047241,-0.3530801236629486,0.380721777677536
1702060293750394000,18.61439404296875,-2.063197374343872,-0.3675881624221802,0.2993239760398865
1702060293767399200,18.631399169921874,-1.9911152124404907,-0.4086688458919525,0.24755313992500305
1702060293784401400,18.6484013671875,-1.9911152124404907,-0.38698312640190125,0.29107728600502014
1702060293801385000,18.665385009765625,-2.0082194805145264,-0.33887749910354614,0.37888917326927185
1702060293818377500,18.68237744140625,-1.9920315742492676,-0.30894508957862854,0.4017966091632843
1702060293835375000,18.699375,-1.9127718210220337,-0.3271183371543884,0.3289509415626526
1702060293852368100,18.7163681640625,-1.806023120880127,-0.3778201639652252,0.21273382008075714
1702060293869361700,18.733361572265625,-1.7075210809707642,-0.4060726761817932,0.12110403180122375
1702060293886356500,18.7503564453125,-1.6672040224075317,-0.33429601788520813,0.1472185254096985
1702060293903350000,18.76735009765625,-1.6433802843093872,-0.24434609711170197,0.24236078560352325
1702060293920344600,18.784344482421876,-1.5925257205963135,-0.19165897369384766,0.30024027824401855
1702060293937335800,18.801335693359373,-1.5244141817092896,-0.23273965716362,0.28267788887023926
1702060293954335700,18.818335693359376,-1.4628695249557495,-0.2993239760398865,0.2102903574705124
1702060293971326700,18.83532666015625,-1.4159855842590332,-0.31154128909111023,0.11743884533643723
1702060293988321500,18.852321533203124,-1.3391693830490112,-0.19685132801532745,0.0708603709936142
1702060294005298000,18.8692978515625,-1.2733485698699951,-0.07254024595022202,0.09453139454126358
1702060294022310000,18.886309814453124,-1.2930489778518677,-0.030237829312682152,0.15042556822299957
1702060294039303700,18.9033037109375,-1.3694071769714355,-0.08765916526317596,0.17256943881511688
1702060294056298200,18.92029833984375,-1.3814717531204224,-0.13209961354732513,0.14553864300251007
1702060294073292000,18.9372919921875,-1.3686435222625732,-0.26633724570274353,0.05665775015950203
1702060294090286800,18.954286865234376,-1.2860240936279297,-0.31581732630729675,-0.03329215571284294
1702060294107280600,18.97128076171875,-1.1565206050872803,-0.2646573781967163,-0.06933320313692093
1702060294124264400,18.988264404296874,-1.013578176498413,-0.18707747757434845,-0.04535674303770065
1702060294141269000,19.00526904296875,-0.8405506014823914,-0.12538009881973267,0.0007635815418325365
1702060294158263600,19.022263671875,-0.7035640478134155,-0.13316862285137177,0.021074850112199783
1702060294175246800,19.039246826171876,-0.698677122592926,-0.15027284622192383,0.006872233934700489
1702060294192252000,19.056251953125,-0.7925976514816284,-0.18478673696517944,-0.005955935921519995
1702060294209246000,19.073245849609375,-0.8958339095115662,-0.194713294506073,0.02871066704392433
1702060294226240500,19.090240478515625,-0.9334021210670471,-0.1892155110836029,0.09086620807647705
1702060294243234000,19.107234130859375,-0.9277516007423401,-0.17760907113552094,0.13469578325748444
1702060294260230400,19.12423046875,-0.8907942175865173,-0.17027868330478668,0.14523321390151978
1702060294277220900,19.141220947265627,-0.8362745046615601,-0.13225232064723969,0.14034628868103027
1702060294294217200,19.15821728515625,-0.7860308289527893,-0.09285151958465576,0.13271047174930573
1702060294311210800,19.175210693359375,-0.7441865801811218,-0.09896016865968704,0.1082758679986
1702060294328205600,19.19220556640625,-0.698677122592926,-0.11071932315826416,0.08903361111879349
1702060294345199000,19.20919921875,-0.6840163469314575,-0.10506882518529892,0.0959058403968811
1702060294362194000,19.22619384765625,-0.6944010853767395,-0.0858265683054924,0.11835514008998871
1702060294379185700,19.243185546875,-0.7260133624076843,-0.0705549344420433,0.13011430203914642
1702060294396184800,19.260184814453126,-0.703411340713501,-0.033597588539123535,0.14798210561275482
1702060294413176000,19.277176025390624,-0.6123924255371094,-0.04932736977934837,0.10842858254909515
1702060294430171000,19.2941708984375,-0.4873177409172058,-0.052839845418930054,0.0754418596625328
1702060294447164400,19.311164306640624,-0.4363104999065399,-0.058795779943466187,0.03222314268350601
1702060294464159200,19.3281591796875,-0.4314235746860504,-0.0754418596625328,0.0019853119738399982
1702060294481153000,19.345153076171876,-0.44654250144958496,-0.07208210229873657,0.014508049935102463
1702060294498147600,19.362147705078126,-0.4703662395477295,-0.04398229718208313,0.04382958263158798
1702060294515141400,19.379141357421876,-0.45265114307403564,0.004734205547720194,0.0734565481543541
1702060294532139500,19.396139404296875,-0.4283692538738251,0.06001751124858856,0.09300423413515091
1702060294549126000,19.4131259765625,-0.40591996908187866,0.08307767659425735,0.09315694868564606
1702060294566117600,19.43011767578125,-0.37720927596092224,0.07819075137376785,0.08216137439012527
1702060294583118000,19.4471181640625,-0.3390302062034607,0.06154467165470123,0.05925392732024193
1702060294600111600,19.464111572265626,-0.27840182185173035,0.02519819140434265,0.00733038317412138
1702060294617108000,19.48110791015625,-0.2099849283695221,0.02367102913558483,-0.028405234217643738
1702060294634101500,19.4981015625,-0.18081611394882202,0.04230241850018501,-0.008704829961061478
1702060294651095000,19.515094970703124,-0.17821992933750153,0.018325956538319588,0.02687807008624077
1702060294668089600,19.532089599609375,-0.17348572611808777,0.003359758760780096,0.05513058975338936
1702060294685083400,19.54908349609375,-0.17012597620487213,-0.0022907445672899485,0.04245513305068016
1702060294702078000,19.566077880859375,-0.14966198801994324,0.021532999351620674,0.023518312722444534
1702060294719071500,19.583071533203125,-0.13255776464939117,0.03726277872920036,0.021838432177901268
1702060294736066600,19.600066650390627,-0.13988813757896423,-0.0009162978967651725,0.010842857882380486
1702060294753060400,19.617060302734377,-0.15134187042713165,-0.035582900047302246,0.005650503560900688
1702060294770055000,19.634054931640627,-0.17256943881511688,-0.02474004216492176,0.002138028386980295
1702060294787041800,19.651041748046875,-0.17852537333965302,0.023518312722444534,0.019853120669722557
1702060294804043300,19.668043212890623,-0.16432274878025055,0.0507018156349659,0.038026362657547
1702060294821037000,19.685037109375,-0.13729196786880493,0.02733621932566166,0.025045474991202354
1702060294838022700,19.702022705078125,-0.12217304855585098,-0.023976460099220276,0.004886921960860491
1702060294855024000,19.719024169921877,-0.10995574295520782,-0.04398229718208313,-0.00045814894838258624
1702060294872015400,19.736015380859374,-0.08735372871160507,-0.016340645030140877,0.013133603148162365
1702060294889013800,19.753013671875,-0.05009094998240471,0.001679879380390048,0.012217304669320583
1702060294906008000,19.770008056640624,-0.027641652151942253,0.001527163083665073,0.0025961773935705423
1702060294923003000,19.7870029296875,-0.023365596309304237,-0.030085112899541855,-0.01160643994808197
1702060294939997000,19.803996826171876,-0.03222314268350601,-0.03787364438176155,-0.012522737495601177
1702060294956981200,19.820981201171875,-0.043676864355802536,-0.01466076634824276,0.01466076634824276
1702060294973985300,19.8379853515625,-0.04352414980530739,-0.008246680721640587,0.030237829312682152
1702060294990979000,19.85497900390625,-0.04260785132646561,-0.018325956538319588,0.016951510682702065
1702060295007964000,19.8719638671875,-0.04886921867728233,-0.019394971430301666,0.00855211354792118
1702060295024964600,19.888964599609373,-0.06505715101957321,-0.0027488935738801956,0.031154127791523933
1702060295041964800,19.90596484375,-0.06108652427792549,0.024587325751781464,0.04841107130050659
1702060295058956000,19.9229560546875,-0.024892758578062057,0.04337143152952194,0.045204028487205505
1702060295075950600,19.93995068359375,0.009621127508580685,0.009926560334861279,0.016951510682702065
1702060295092944100,19.956944091796874,0.027947084978222847,-0.020463986322283745,0.00366519158706069
1702060295109939000,19.97393896484375,0.0455094613134861,-0.015118914656341076,0.01970040425658226
1702060295126932700,19.9909326171875,0.05115996301174164,0.011301007121801376,0.022143865004181862
1702060295143927300,20.00792724609375,0.07162395119667053,0.03039054572582245,0.004734205547720194
1702060295160921000,20.024921142578126,0.11972958594560623,0.02474004216492176,-0.006719517521560192
1702060295177913000,20.0419130859375,0.17073683440685272,0.020616702735424042,0.0012217304902151227
1702060295194912300,20.058912353515623,0.21853704750537872,0.009926560334861279,0.0025961773935705423
1702060295211898400,20.0758984375,0.26603180170059204,0.021380282938480377,-0.008857546374201775
1702060295228897800,20.092897705078126,0.3335324227809906,0.05696318298578262,-0.04993823543190956
1702060295245883600,20.109883544921875,0.43875396251678467,0.08643743395805359,-0.0780380368232727
1702060295262875600,20.126875732421876,0.5461135506629944,0.09468411654233932,-0.07498370856046677
1702060295279878400,20.14387841796875,0.6690501570701599,0.10766500234603882,-0.06108652427792549
1702060295296877000,20.160876953125,0.8008443117141724,0.13805554807186127,-0.032528575509786606
1702060295313869300,20.177869384765625,0.9089674949645996,0.1537853181362152,-0.02168571576476097
1702060295330860300,20.1948603515625,0.9938777685165405,0.15500704944133759,-0.03405573591589928
1702060295347850000,20.21185009765625,1.1084150075912476,0.14782938361167908,-0.05375614017248154
1702060295364851500,20.2288515625,1.243721604347229,0.16401731967926025,-0.04535674303770065
1702060295381847800,20.245847900390626,1.3996449708938599,0.14966198801994324,-0.05604688450694084
1702060295398838000,20.262838134765627,1.5305228233337402,0.13805554807186127,-0.0754418596625328
1702060295415834600,20.279834716796874,1.665065884590149,0.20326541364192963,-0.09208793938159943
1702060295432828400,20.296828369140623,1.825570821762085,0.2987131178379059,-0.12003502249717712
1702060295449823000,20.313822998046874,2.0092885494232178,0.3605632185935974,-0.18157969415187836
1702060295466816500,20.33081640625,2.1757493019104004,0.37950003147125244,-0.24113905429840088
1702060295483811300,20.347811279296874,2.2623393535614014,0.4069889783859253,-0.23808473348617554
1702060295500805000,20.36480517578125,2.2624921798706055,0.4482223689556122,-0.2382374405860901
1702060295517799700,20.381799560546874,2.2686007022857666,0.45234572887420654,-0.29886582493782043
1702060295534793500,20.39879345703125,2.3040308952331543,0.4239404797554016,-0.39354994893074036
1702060295551788300,20.415788330078126,2.3483188152313232,0.42562034726142883,-0.42791110277175903
1702060295568781800,20.43278173828125,2.3632848262786865,0.4427245855331421,-0.40133845806121826
1702060295585776400,20.4497763671875,2.361299514770508,0.5035057067871094,-0.33246341347694397
1702060295602770200,20.466770263671876,2.3403775691986084,0.5566509366035461,-0.2814561724662781
1702060295619762700,20.4837626953125,2.285705089569092,0.5839871764183044,-0.26511552929878235
1702060295636771600,20.500771484375,2.205681800842285,0.5713117122650146,-0.27061331272125244
1702060295653753300,20.51775341796875,2.1363484859466553,0.5455026626586914,-0.2938261926174164
1702060295670747100,20.5347470703125,2.163379192352295,0.4977024495601654,-0.3747658133506775
1702060295687742000,20.551741943359374,2.269975185394287,0.461355984210968,-0.5167919993400574
1702060295704735500,20.568735595703124,2.350609540939331,0.4156937897205353,-0.5760459303855896
1702060295721730000,20.58572998046875,2.4417810440063477,0.40622538328170776,-0.48426342010498047
1702060295738724000,20.60272412109375,2.537381410598755,0.4943426847457886,-0.33399057388305664
1702060295755718400,20.619718505859375,2.6287059783935547,0.603687584400177,-0.28680121898651123
1702060295772712400,20.63671240234375,2.7145323753356934,0.6386595964431763,-0.3956879675388336
1702060295789707000,20.65370703125,2.747061014175415,0.5719226002693176,-0.5740606188774109
1702060295806700800,20.67070068359375,2.6980390548706055,0.5426010489463806,-0.5878050923347473
1702060295823689700,20.687689697265625,2.5886940956115723,0.5823072791099548,-0.4740314185619354
1702060295840689200,20.704689208984377,2.4688119888305664,0.5910121202468872,-0.43020185828208923
1702060295857683700,20.72168359375,2.391995668411255,0.5050328373908997,-0.5077817440032959
1702060295874677500,20.738677490234377,2.4106268882751465,0.40424007177352905,-0.5839871764183044
1702060295891668000,20.75566796875,2.479349374771118,0.3778201639652252,-0.5566509366035461
1702060295908670200,20.772670166015626,2.5280659198760986,0.4369213581085205,-0.4225660264492035
1702060295925660700,20.78966064453125,2.5537221431732178,0.4948008358478546,-0.29504790902137756
1702060295942654200,20.806654296875,2.492330312728882,0.4155410826206207,-0.33017265796661377
1702060295959649000,20.82364892578125,2.314110279083252,0.3194825351238251,-0.3361285924911499
1702060295976642800,20.840642822265625,2.180636167526245,0.43508878350257874,-0.30314189195632935
1702060295993631000,20.857630859375,2.2901337146759033,0.5328271985054016,-0.30253100395202637
1702060296010631200,20.874631103515625,2.4161248207092285,0.512210488319397,-0.2837468981742859
1702060296027632600,20.891632568359373,2.436741352081299,0.3543018400669098,-0.3159700334072113
