time,seconds_elapsed,z,y,x
1702059400723667500,0.06366748046875,-1.1814134120941162,-1.4701999425888062,1.3697125911712646
1702059400740030200,0.0800302734375,-1.1191051006317139,-1.6607898473739624,1.4685200452804565
1702059400757033000,0.097032958984375,-0.9836457371711731,-3.0521881580352783,1.405295491218567
1702059400774027800,0.11402783203125,-0.6269004344940186,-2.5312728881835938,1.206153392791748
1702059400791009500,0.131009521484375,-0.3205515444278717,-1.7279850244522095,0.9106473922729492
1702059400808014600,0.1480146484375,-0.3845396637916565,-1.6303993463516235,0.7073819637298584
1702059400825008600,0.165008544921875,-0.645684540271759,-2.045787811279297,0.7327328324317932
1702059400842003200,0.182003173828125,-0.779464066028595,-2.286621332168579,0.6861543655395508
1702059400858994400,0.198994384765625,-0.7325801253318787,-2.350304126739502,0.5920811295509338
1702059400875989200,0.2159892578125,-0.7334964275360107,-2.1252002716064453,0.792750358581543
1702059400892985900,0.23298583984375,-0.6951646208763123,-2.325105905532837,1.291063666343689
1702059400909975300,0.249975341796875,-0.5681046843528748,-3.3987014293670654,1.9297232627868652
1702059400926970400,0.266970458984375,-0.7093672752380371,-4.14349889755249,2.5146267414093018
1702059400943966500,0.283966552734375,-1.1749993562698364,-4.123340606689453,2.847395658493042
1702059400960957200,0.300957275390625,-1.6638442277908325,-3.7646098136901855,2.7734808921813965
1702059400977953300,0.317953369140625,-1.9257526397705078,-3.83272123336792,2.602285861968994
1702059400994946300,0.3349462890625,-2.080148935317993,-3.45871901512146,2.610685348510742
1702059401011942000,0.35194189453125,-2.0393736362457275,-2.7814221382141113,2.38741397857666
1702059401028933000,0.36893310546875,-1.8762725591659546,-2.174069404602051,2.054797887802124
1702059401045933300,0.385933349609375,-1.7809776067733765,-2.2618813514709473,1.7148514986038208
1702059401062923800,0.402923828125,-1.814269781112671,-2.5418102741241455,1.6548339128494263
1702059401079913200,0.419913330078125,-1.8865046501159668,-2.2716550827026367,1.8559613227844238
1702059401096910600,0.43691064453125,-1.8234328031539917,-1.5543465614318848,1.6357444524765015
1702059401113911800,0.453911865234375,-1.600925087928772,-0.9669997096061707,1.2574660778045654
1702059401130894800,0.470894775390625,-1.2857186794281006,-0.9749409556388855,0.8810204267501831
1702059401147892000,0.48789208984375,-1.1282681226730347,-1.1618657112121582,0.7243334650993347
1702059401164886300,0.50488623046875,-1.0140362977981567,-0.9891435503959656,0.9135489463806152
1702059401181871900,0.521871826171875,-0.9242390990257263,-0.7843509912490845,1.030071496963501
1702059401198873300,0.538873291015625,-0.8329147696495056,-0.4075998365879059,0.8558222055435181
1702059401215862000,0.555862060546875,-0.8358163833618164,-0.16584990918636322,0.5734497308731079
1702059401232863700,0.57286376953125,-0.8578075170516968,-0.08017606288194656,0.3023782968521118
1702059401249853200,0.589853271484375,-0.589179515838623,0.45234572887420654,0.05619960278272629
1702059401266849500,0.606849609375,-0.16325373947620392,1.4286611080169678,-0.07773260027170181
1702059401283844400,0.62384423828125,-0.32039880752563477,0.699288010597229,1.2067643404006958
1702059401300834600,0.64083447265625,-0.4983133375644684,0.17440202832221985,0.3634648323059082
1702059401317830400,0.657830322265625,-0.6728680729866028,-0.4827362596988678,-0.2970332205295563
1702059401334824000,0.674823974609375,-0.6585127115249634,-0.21181751787662506,-0.1085812970995903
1702059401351818800,0.69181884765625,-0.5583308339118958,-0.13041973114013672,0.3735440969467163
1702059401368812300,0.708812255859375,-0.5338962078094482,0.1014036312699318,0.8373435139656067
1702059401385804000,0.725803955078125,-0.5338962078094482,0.8828529715538025,0.4024074673652649
1702059401402798300,0.74279833984375,-0.8142833709716797,-0.02474004216492176,0.23609942197799683
1702059401419791000,0.759791015625,-0.9392052888870239,0.030695978552103043,0.3196352422237396
1702059401436779500,0.776779541015625,-1.0705413818359375,-0.12751811742782593,0.23747386038303375
1702059401453784600,0.79378466796875,-1.0702359676361084,-0.2269364446401596,0.19196440279483795
1702059401470774300,0.810774169921875,-0.9370672702789307,0.018478672951459885,0.15729780495166779
1702059401487771000,0.82777099609375,-0.806647539138794,0.04459316283464432,0.09941831976175308
1702059401504764700,0.8447646484375,-0.7168503403663635,-0.09957103431224823,0.07696902006864548
1702059401521754600,0.861754638671875,-0.6757696866989136,-0.1774563491344452,0.11499538272619247
1702059401538751200,0.878751220703125,-0.6685920357704163,-0.27091872692108154,0.11194105446338654
1702059401555757000,0.895757080078125,-0.6821837425231934,-0.32940909266471863,0.078343465924263
1702059401572740900,0.912740966796875,-0.698066234588623,-0.29794952273368835,0.0555887371301651
1702059401589729500,0.9297294921875,-0.7041749358177185,-0.22617286443710327,0.04092797264456749
1702059401606726100,0.94672607421875,-0.707534670829773,-0.1160643994808197,0.057879481464624405
1702059401623721500,0.963721435546875,-0.7391469478607178,-0.04001167416572571,0.09529497474431992
1702059401640712400,0.98071240234375,-0.7948883771896362,-0.0529925599694252,0.1469130963087082
1702059401657702400,0.997702392578125,-0.9144652485847473,-0.10583240538835526,0.18585574626922607
1702059401674701800,1.014701904296875,-1.0939068794250488,-0.18249599635601044,0.2171625941991806
1702059401691694000,1.031694091796875,-1.2015719413757324,-0.17806722223758698,0.24266621470451355
1702059401708680700,1.0486806640625,-1.2121093273162842,-0.12629638612270355,0.2612976133823395
1702059401725683000,1.065682861328125,-1.2551753520965576,-0.09712757170200348,0.2877175211906433
1702059401742678800,1.0826787109375,-1.3341296911239624,-0.10323622822761536,0.30604347586631775
1702059401759668500,1.09966845703125,-1.472796082496643,-0.204487144947052,0.3245221674442291
1702059401776658200,1.116658203125,-1.6627751588821411,-0.3113885521888733,0.36789360642433167
1702059401793657600,1.13365771484375,-1.8113682270050049,-0.27091872692108154,0.4277583956718445
1702059401810652400,1.15065234375,-1.8903224468231201,-0.1498146951198578,0.4812090992927551
1702059401827636700,1.16763671875,-1.9781343936920166,-0.11133018881082535,0.4818199574947357
1702059401844641500,1.1846416015625,-2.0532708168029785,-0.14095716178417206,0.42928555607795715
1702059401861632300,1.20163232421875,-2.1111502647399902,-0.21410827338695526,0.40286561846733093
1702059401878633700,1.2186337890625,-2.160630464553833,-0.2713768780231476,0.4079052805900574
1702059401895622000,1.235621826171875,-2.2284364700317383,-0.27458393573760986,0.422871470451355
1702059401912618500,1.252618408203125,-2.294562578201294,-0.2790127098560333,0.44104471802711487
1702059401929601000,1.26960107421875,-2.336254119873047,-0.3448334336280823,0.44654250144958496
1702059401946603500,1.286603515625,-2.3637430667877197,-0.3677408695220947,0.45326200127601624
1702059401963599000,1.30359912109375,-2.3822216987609863,-0.3251330256462097,0.4743368625640869
1702059401980589800,1.32058984375,-2.439948558807373,-0.385303258895874,0.49296826124191284
1702059401997575000,1.337574951171875,-2.4489588737487793,-0.40973785519599915,0.4977024495601654
1702059402014578000,1.354577880859375,-2.415055751800537,-0.4259257912635803,0.4758640229701996
1702059402031574000,1.371573974609375,-2.393064498901367,-0.4239404797554016,0.46043968200683594
1702059402048567000,1.388567138671875,-2.456289052963257,-0.39324450492858887,0.4996877610683441
1702059402065561300,1.405561279296875,-2.529592990875244,-0.41951170563697815,0.5624541640281677
1702059402082555400,1.422555419921875,-2.56868839263916,-0.4550946056842804,0.5998696684837341
1702059402099546000,1.439546142578125,-2.559525489807129,-0.4579962193965912,0.6302602291107178
1702059402116544000,1.4565439453125,-2.487290620803833,-0.38408151268959045,0.640644907951355
1702059402133537300,1.473537353515625,-2.392911911010742,-0.3292563557624817,0.6113234162330627
1702059402150529000,1.490529052734375,-2.2728769779205322,-0.31871894001960754,0.5774203538894653
1702059402167523600,1.507523681640625,-2.1514673233032227,-0.3825543522834778,0.5458080768585205
1702059402184520700,1.524520751953125,-2.032654047012329,-0.39767327904701233,0.5001459121704102
1702059402201508900,1.5415087890625,-1.9277379512786865,-0.290313720703125,0.4265366494655609
1702059402218499800,1.558499755859375,-1.8643606901168823,-0.17073683440685272,0.3260493278503418
1702059402235499500,1.57549951171875,-1.8115209341049194,-0.11652254313230515,0.25763240456581116
1702059402252496000,1.592495849609375,-1.7576119899749756,-0.17058411240577698,0.24862214922904968
1702059402269484800,1.60948486328125,-1.6893478631973267,-0.19532416760921478,0.26710084080696106
1702059402286480400,1.62648046875,-1.6055065393447876,-0.18829920887947083,0.28496864438056946
1702059402303477200,1.643477294921875,-1.5416711568832397,-0.1915062516927719,0.28695395588874817
1702059402320467700,1.6604677734375,-1.536784291267395,-0.2528982162475586,0.2984076738357544
1702059402337462800,1.677462890625,-1.5285375118255615,-0.23487769067287445,0.31459560990333557
1702059402354458400,1.694458251953125,-1.4873042106628418,-0.2064724564552307,0.26801711320877075
1702059402371448600,1.711448486328125,-1.397048830986023,-0.08231408894062042,0.14126259088516235
1702059402388445700,1.72844580078125,-1.2760975360870361,0.005955935921519995,0.042760565876960754
1702059402405439500,1.745439453125,-1.1789699792861938,-0.032070424407720566,0.03649919852614403
1702059402422425000,1.762425048828125,-1.1855367422103882,-0.1771509200334549,0.06185010448098183
1702059402439423500,1.779423583984375,-1.2260065078735352,-0.18646661937236786,0.0913243517279625
1702059402456421000,1.796421142578125,-1.2203559875488281,-0.10125091671943665,0.12018773704767227
1702059402473415700,1.813415771484375,-1.0885618925094604,0.010995574295520782,0.11591167747974396
1702059402490398200,1.830398193359375,-0.9053022861480713,0.12446379661560059,0.07284568250179291
1702059402507401700,1.847401611328125,-0.7338019013404846,0.20845776796340942,0.06062837690114975
1702059402524398000,1.864398193359375,-0.6278167366981506,0.11102475970983505,0.10552696883678436
1702059402541386000,1.881385986328125,-0.5824599862098694,-0.02382374368607998,0.17180584371089935
1702059402558385000,1.898385009765625,-0.5383250117301941,-0.06704246252775192,0.19028452038764954
1702059402575377200,1.915377197265625,-0.5558874011039734,-0.07437284290790558,0.18280142545700073
1702059402592373500,1.93237353515625,-0.5716171264648438,-0.05390885844826698,0.1843285858631134
1702059402609355300,1.949355224609375,-0.5224425196647644,-0.03191770985722542,0.1618792861700058
1702059402626358800,1.96635888671875,-0.4008803069591522,0.027183502912521362,0.0806342139840126
1702059402643343600,1.983343505859375,-0.280539870262146,-0.001832595793530345,0.014813481830060482
1702059402660342800,2.0003427734375,-0.21471913158893585,-0.05726861581206322,0.01466076634824276
1702059402677342700,2.0173427734375,-0.197004035115242,-0.060475658625364304,0.02076941914856434
1702059402694335700,2.034335693359375,-0.14263702929019928,0.016951510682702065,0.008857546374201775
1702059402711318800,2.05131884765625,-0.1189660057425499,0.059406645596027374,-0.004734205547720194
1702059402728323300,2.0683232421875,-0.14569136500358582,0.0039706239476799965,0.020616702735424042
1702059402745316000,2.085316162109375,-0.1716531366109848,-0.05253441259264946,0.05192354694008827
1702059402762311400,2.1023115234375,-0.15546520054340363,-0.04764748737215996,0.05161811411380768
1702059402779301000,2.119301025390625,-0.1342376321554184,-0.059406645596027374,0.03344487398862839
1702059402796298500,2.136298583984375,-0.1365283876657486,-0.09834930300712585,0.01970040425658226
1702059402813304800,2.153304931640625,-0.166460782289505,-0.0936150997877121,-0.003512475173920393
1702059402830282800,2.17028271484375,-0.14034628868103027,0.0003054326225537807,-0.02779436856508255
1702059402847279000,2.187279052734375,-0.09636399149894714,0.05115996301174164,-0.027488935738801956
1702059402864275700,2.204275634765625,-0.06459899991750717,0.014966198243200779,-0.003512475173920393
1702059402881264600,2.2212646484375,-0.050243668258190155,-0.08124507963657379,0.004886921960860491
1702059402898261500,2.238261474609375,0.03634648025035858,-0.0806342139840126,-0.0025961773935705423
1702059402915254800,2.2552548828125,0.09407325088977814,-0.030695978552103043,-0.014202617108821869
1702059402932243200,2.2722431640625,0.15286903083324432,0.031612277030944824,-0.031001411378383636
1702059402949239600,2.289239501953125,0.16462817788124084,0.014508049935102463,-0.045204028487205505
1702059402966235000,2.30623486328125,0.1212567538022995,-0.02580905705690384,-0.06169738993048668
1702059402983231700,2.323231689453125,0.08429940044879913,-0.03588833287358284,-0.07238753139972687
1702059403000222500,2.340222412109375,0.055741455405950546,-0.04642575979232788,-0.06123924255371094
1702059403017220600,2.357220703125,0.058948494493961334,-0.016340645030140877,-0.04352414980530739
1702059403034213600,2.374213623046875,0.06979135423898697,-0.014813481830060482,-0.04566217586398125
1702059403051203300,2.391203369140625,0.055894169956445694,0.00366519158706069,-0.04764748737215996
1702059403068201500,2.408201416015625,0.009162978269159794,0.015118914656341076,-0.04917465150356293
1702059403085193500,2.425193359375,0.005803219974040985,0.03497203439474106,-0.041691552847623825
1702059403102189000,2.44218896484375,0.03176499158143997,0.013591751456260681,-0.02871066704392433
1702059403119178800,2.4591787109375,0.038179077208042145,-0.02122756652534008,-0.03390302136540413
1702059403136166400,2.47616650390625,0.00855211354792118,-0.00809396430850029,-0.04841107130050659
1702059403153170700,2.493170654296875,0.020463986322283745,0.02733621932566166,-0.05543602257966995
1702059403170160400,2.510160400390625,0.09056077152490616,0.06123924255371094,-0.06352998316287994
1702059403187156700,2.52715673828125,0.16722436249256134,0.03695734590291977,-0.06169738993048668
1702059403204143000,2.54414306640625,0.23273965716362,-0.017409659922122955,-0.044135015457868576
1702059403221142000,2.56114208984375,0.27290403842926025,-0.04184427112340927,-0.03878994286060333
1702059403238136800,2.57813671875,0.2942843437194824,-0.022907447069883347,-0.028557950630784035
1702059403255135500,2.595135498046875,0.2773328125476837,-0.05467243865132332,-0.018478672951459885
1702059403272134100,2.612134033203125,0.24465152621269226,-0.09758572280406952,-0.03145955875515938
1702059403289121500,2.62912158203125,0.2741257846355438,-0.11407908797264099,-0.048258353024721146
1702059403306104600,2.6461044921875,0.3517056703567505,-0.10018189996480942,-0.048258353024721146
1702059403323102500,2.6631025390625,0.41752639412879944,-0.05971207842230797,-0.029168816283345222
1702059403340092700,2.6800927734375,0.3966042697429657,-0.055741455405950546,-0.035582900047302246
1702059403357097000,2.697096923828125,0.38408151268959045,-0.014202617108821869,-0.0682641938328743
1702059403374096100,2.71409619140625,0.46593746542930603,0.05955936014652252,-0.08933904021978378
1702059403391095000,2.731094970703125,0.5783366560935974,0.07009678333997726,-0.0910189226269722
1702059403408094500,2.748094482421875,0.6772968173027039,0.02733621932566166,-0.08827003091573715
1702059403425074200,2.76507421875,0.7733554244041443,-0.01618792861700058,-0.10354165732860565
1702059403442067000,2.78206689453125,0.9028588533401489,0.04230241850018501,-0.13377949595451355
1702059403459056400,2.799056396484375,1.006400465965271,0.19135354459285736,-0.13255776464939117
1702059403476053800,2.8160537109375,1.1200214624404907,0.24587325751781464,-0.09285151958465576
1702059403493048600,2.833048583984375,1.1672108173370361,0.22540926933288574,-0.05192354694008827
1702059403510038300,2.850038330078125,1.1771373748779297,0.14905111491680145,-0.05054909735918045
1702059403527034600,2.86703466796875,1.2394455671310425,0.07620543986558914,-0.08078692853450775
1702059403544031000,2.884031005859375,1.3889548778533936,0.13347405195236206,-0.17348572611808777
1702059403561020000,2.90102001953125,1.5919147729873657,0.22220222651958466,-0.2503020465373993
1702059403578017000,2.91801708984375,1.7111862897872925,0.2330450862646103,-0.28557950258255005
1702059403595010000,2.935010009765625,1.7956384420394897,0.20204368233680725,-0.2742784917354584
1702059403612006700,2.952006591796875,1.8706220388412476,0.1508837193250656,-0.24495697021484375
1702059403628997000,2.9689970703125,1.9480493068695068,0.19013181328773499,-0.21533000469207764
1702059403645992000,2.985991943359375,2.065793514251709,0.29504790902137756,-0.23716843128204346
1702059403662992000,3.002991943359375,2.266768217086792,0.35613444447517395,-0.2971859276294708
1702059403679978000,3.01997802734375,2.5254695415496826,0.266642689704895,-0.347276896238327
1702059403696974800,3.036974853515625,2.7707319259643555,0.17287486791610718,-0.39125919342041016
1702059403713964500,3.053964599609375,2.9442176818847656,0.1667662113904953,-0.4538728892803192
1702059403730961200,3.070961181640625,2.992323398590088,0.3006984293460846,-0.5352706909179688
1702059403747956700,3.087956787109375,2.9633073806762695,0.4407392740249634,-0.6116288304328918
1702059403764948700,3.10494873046875,2.9881999492645264,0.5009095072746277,-0.6414085030555725
1702059403781934000,3.12193408203125,3.0416507720947266,0.34574973583221436,-0.656680166721344
1702059403798934000,3.13893408203125,3.1221323013305664,0.24236078560352325,-0.707840085029602
1702059403815931400,3.155931396484375,3.1974213123321533,0.4280638098716736,-0.7644978761672974
1702059403832926000,3.172926025390625,3.2039883136749268,0.5745187401771545,-0.7912232279777527
1702059403849919200,3.189919189453125,3.14931583404541,0.5288565754890442,-0.7719809412956238
1702059403866913000,3.2069130859375,3.0952541828155518,0.4427245855331421,-0.7693848013877869
1702059403883896300,3.223896240234375,3.0688343048095703,0.48059824109077454,-0.8101600408554077
1702059403900900900,3.24090087890625,3.076775550842285,0.6285803318023682,-0.8550586104393005
1702059403917892000,3.25789208984375,3.1534390449523926,0.6003278493881226,-0.8400924205780029
1702059403934879200,3.274879150390625,3.2563698291778564,0.43508878350257874,-0.7759515643119812
1702059403951885300,3.29188525390625,3.3151657581329346,0.2860376536846161,-0.7179193496704102
1702059403968878600,3.308878662109375,3.2620203495025635,0.25244006514549255,-0.7066183686256409
1702059403985868000,3.325867919921875,3.1192307472229004,0.37079519033432007,-0.7183775305747986
1702059404002865000,3.342864990234375,2.984076738357544,0.4590652287006378,-0.6960809230804443
1702059404019856600,3.359856689453125,2.9749138355255127,0.5313000679016113,-0.6067419052124023
1702059404036854500,3.3768544921875,3.051882743835449,0.5051855444908142,-0.4918992519378662
1702059404053845800,3.393845703125,3.114954710006714,0.3706424832344055,-0.41111230850219727
1702059404070839600,3.410839599609375,3.0170633792877197,0.2538145184516907,-0.44425174593925476
1702059404087834600,3.427834716796875,2.9575040340423584,0.3399465084075928,-0.5665774941444397
1702059404104825000,3.4448251953125,2.79119610786438,0.4541783034801483,-0.6311765313148499
1702059404121822200,3.461822265625,2.696206569671631,0.6162103414535522,-0.6359107494354248
1702059404138817000,3.478817138671875,2.6334400177001953,0.6696610450744629,-0.5626068711280823
1702059404155810000,3.49581005859375,2.4636194705963135,0.6160575747489929,-0.4311181604862213
1702059404172815000,3.512815185546875,2.235461473464966,0.4784601926803589,-0.3349068760871887
1702059404189794300,3.529794189453125,2.0567831993103027,0.36682456731796265,-0.3358231782913208
1702059404206793700,3.546793701171875,1.9199494123458862,0.36880987882614136,-0.3949243724346161
1702059404223785700,3.56378564453125,1.75608491897583,0.34758231043815613,-0.4411974251270294
1702059404240775700,3.580775634765625,1.618945598602295,0.2538145184516907,-0.5091561675071716
1702059404257775000,3.597775146484375,1.5312864780426025,0.2574796974658966,-0.5581781268119812
1702059404274763800,3.614763671875,1.4469870328903198,0.2919935882091522,-0.5351179838180542
1702059404291764000,3.631763916015625,1.3048081398010254,0.2695443034172058,-0.4386012554168701
1702059404308754200,3.648754150390625,1.1484266519546509,0.2974913716316223,-0.29367345571517944
1702059404325748000,3.665748046875,0.9538660645484924,0.27290403842926025,-0.15500704944133759
1702059404342742000,3.682741943359375,0.7515169382095337,0.21884247660636902,-0.08261952549219131
1702059404359736800,3.69973681640625,0.5624541640281677,0.20616702735424042,-0.04581489413976669
1702059404376729600,3.7167294921875,0.44318273663520813,0.20051652193069458,-0.038026362657547
1702059404393723400,3.733723388671875,0.38087448477745056,0.1618792861700058,-0.04688390716910362
1702059404410717400,3.750717529296875,0.33108896017074585,0.12049316614866257,-0.048105638474226
1702059404427712500,3.76771240234375,0.2718350291252136,0.0757472887635231,-0.03848451003432274
1702059404444696000,3.784696044921875,0.2122756689786911,0.08414668589830399,-0.023060163483023643
1702059404461699000,3.801698974609375,0.14278975129127502,0.05543602257966995,-0.03084869496524334
1702059404478693000,3.818693115234375,0.056352317333221436,-0.02076941914856434,-0.04398229718208313
1702059404495675000,3.8356748046875,-0.02977968007326126,-0.08017606288194656,-0.044745877385139465
1702059404512683500,3.85268359375,-0.08139779418706894,-0.09422596544027328,-0.03390302136540413
1702059404529674800,3.8696748046875,-0.10293079167604446,-0.10247264802455902,-0.029168816283345222
1702059404546668500,3.88666845703125,-0.11468994617462158,-0.11591167747974396,-0.021838432177901268
1702059404563663400,3.903663330078125,-0.15577064454555511,-0.13225232064723969,-0.004734205547720194
1702059404580653800,3.92065380859375,-0.20387627184391022,-0.14019356667995453,0.02580905705690384
1702059404597652500,3.937652587890625,-0.2675589919090271,-0.18112154304981232,0.05161811411380768
1702059404614631200,3.954631103515625,-0.3274237811565399,-0.182648703455925,0.0887281745672226
1702059404631639000,3.97163916015625,-0.39156460762023926,-0.17669276893138885,0.12339477986097336
1702059404648635100,3.98863525390625,-0.4570799171924591,-0.15913039445877075,0.13484850525856018
1702059404665622500,4.00562255859375,-0.5320636034011841,-0.1215621829032898,0.14187344908714294
1702059404682619600,4.02261962890625,-0.6183483600616455,-0.1215621829032898,0.17531833052635193
1702059404699614700,4.03961474609375,-0.7113525867462158,-0.14935655891895294,0.21410827338695526
1702059404716607200,4.056607177734375,-0.8153523802757263,-0.16920967400074005,0.2513710558414459
1702059404733601300,4.073601318359375,-0.9471465349197388,-0.19226983189582825,0.29184088110923767
1702059404750595000,4.090594970703125,-1.1061242818832397,-0.2217440903186798,0.3173444867134094
1702059404767590100,4.107590087890625,-1.2608258724212646,-0.2513710558414459,0.3107776939868927
1702059404784580400,4.124580322265625,-1.3849842548370361,-0.2515237629413605,0.31230485439300537
1702059404801579500,4.14157958984375,-1.4883731603622437,-0.23777928948402405,0.34025195240974426
1702059404818570800,4.15857080078125,-1.6455183029174805,-0.2718350291252136,0.40622538328170776
1702059404835556400,4.175556396484375,-1.860695481300354,-0.31749722361564636,0.48090365529060364
1702059404852555800,4.1925556640625,-2.0949623584747314,-0.33918291330337524,0.5351179838180542
1702059404869555000,4.209554931640625,-2.2818870544433594,-0.3251330256462097,0.5607742667198181
1702059404886545200,4.226545166015625,-2.433687210083008,-0.3149010241031647,0.5673410892486572
1702059404903542300,4.243542236328125,-2.579225778579712,-0.35475999116897583,0.575893223285675
1702059404920534000,4.260533935546875,-2.6844472885131836,-0.4053090810775757,0.6102544069290161
1702059404937527800,4.27752783203125,-2.782796621322632,-0.44165557622909546,0.6540839672088623
1702059404954521900,4.29452197265625,-2.911689281463623,-0.42928555607795715,0.6640105247497559
1702059404971516700,4.3115166015625,-3.0476067066192627,-0.3930917978286743,0.6650795340538025
1702059404988499000,4.3284990234375,-3.1280882358551025,-0.4612032473087311,0.6667594313621521
1702059405005493000,4.345492919921875,-3.138320207595825,-0.5520694851875305,0.6919575929641724
1702059405022496500,4.36249658203125,-3.137556552886963,-0.6165157556533813,0.7215845584869385
1702059405039492900,4.379492919921875,-3.1917707920074463,-0.5659666657447815,0.7296785116195679
1702059405056484900,4.39648486328125,-3.2537736892700195,-0.43997567892074585,0.7171558141708374
1702059405073479000,4.41347900390625,-3.243541717529297,-0.38698312640190125,0.6782131195068359
1702059405090472700,4.43047265625,-3.1955888271331787,-0.4433354437351227,0.6589708924293518
1702059405107468000,4.447468017578125,-3.137098550796509,-0.6004805564880371,0.6653849482536316
1702059405124460800,4.464460693359375,-3.1115949153900146,-0.71318519115448,0.6591235995292664
1702059405141459000,4.481458984375,-3.093421697616577,-0.5874996781349182,0.646906316280365
1702059405158448600,4.49844873046875,-3.0242412090301514,-0.39553526043891907,0.618195652961731
1702059405175443500,4.515443359375,-2.934596538543701,-0.33475416898727417,0.5345070958137512
1702059405192425700,4.53242578125,-2.774855375289917,-0.36163222789764404,0.4259257912635803
1702059405209430300,4.54943017578125,-2.5506677627563477,-0.4118759036064148,0.3784310221672058
1702059405226424000,4.566424072265625,-2.355648994445801,-0.47708576917648315,0.3758348524570465
1702059405243419000,4.5834189453125,-2.258368730545044,-0.446389764547348,0.4108068645000458
1702059405260412000,4.600411865234375,-2.1757493019104004,-0.40912699699401855,0.4502076804637909
1702059405277407200,4.6174072265625,-2.1319196224212646,-0.3822489380836487,0.42959097027778625
1702059405294387500,4.634387451171875,-2.0777053833007812,-0.34208452701568604,0.342237263917923
1702059405311394600,4.65139453125,-1.9772180318832397,-0.22021691501140594,0.28130343556404114
1702059405328387300,4.66838720703125,-1.868789553642273,-0.17287486791610718,0.2779437005519867
1702059405345381000,4.685381103515625,-1.8535178899765015,-0.2632829248905182,0.33796119689941406
1702059405362375200,4.702375244140625,-1.9529361724853516,-0.3747658133506775,0.3862195611000061
1702059405379371500,4.71937158203125,-1.9927951097488403,-0.33918291330337524,0.3822489380836487
1702059405396358700,4.736358642578125,-1.823127269744873,-0.22540926933288574,0.29856038093566895
1702059405413359400,4.753359375,-1.582904577255249,-0.16982053220272064,0.22143864631652832
1702059405430350300,4.770350341796875,-1.4301882982254028,-0.15974126756191254,0.19486601650714874
1702059405447346200,4.78734619140625,-1.3074043989181519,-0.15332718193531036,0.20341812074184418
1702059405464338400,4.80433837890625,-1.2777774333953857,-0.1563815027475357,0.23426681756973267
1702059405481332200,4.821332275390625,-1.3220651149749756,-0.1514945775270462,0.2525927722454071
1702059405498326500,4.838326416015625,-1.3516920804977417,-0.16554448008537292,0.22357667982578278
1702059405515321000,4.855321044921875,-1.296408772468567,-0.19013181328773499,0.1508837193250656
1702059405532314000,4.872314208984375,-1.190423607826233,-0.168751522898674,0.06322455406188965
1702059405549308000,4.889307861328125,-1.0519099235534668,-0.08933904021978378,0.02015855349600315
1702059405566301700,4.9063017578125,-0.9500481486320496,-0.08414668589830399,0.05100724846124649
1702059405583296800,4.923296875,-0.9286679029464722,-0.12889257073402405,0.12400564551353455
1702059405600290600,4.94029052734375,-0.9624181985855103,-0.1212567538022995,0.1889100819826126
1702059405617282300,4.9572822265625,-0.9807441234588623,-0.08765916526317596,0.22510384023189545
1702059405634277000,4.974277099609375,-0.9370672702789307,-0.05665775015950203,0.20357084274291992
1702059405651272200,4.991272216796875,-0.8442157506942749,-0.06001751124858856,0.14676037430763245
1702059405668262100,5.00826220703125,-0.769079327583313,-0.10002918541431427,0.08659014850854874
1702059405685251300,5.025251220703125,-0.7241807579994202,-0.12965615093708038,0.02580905705690384
1702059405702250800,5.042250732421875,-0.6644686460494995,-0.08536841720342636,-0.021380282938480377
1702059405719250000,5.05925,-0.5783366560935974,-0.05054909735918045,-0.0429132841527462
1702059405736240600,5.07624072265625,-0.5158756971359253,-0.06673702597618103,-0.02474004216492176
1702059405753234700,5.093234619140625,-0.49724429845809937,-0.07269296050071716,0.029016099870204926
1702059405770226000,5.110225830078125,-0.5068654417991638,-0.04382958263158798,0.078343465924263
1702059405787225900,5.127225830078125,-0.4999932050704956,-0.02367102913558483,0.08475755155086517
1702059405804210700,5.144210693359375,-0.4715879559516907,0.006108652334660292,0.05803219974040985
1702059405821212700,5.161212646484375,-0.43936482071876526,-0.00045814894838258624,0.035124752670526505
1702059405838204000,5.178203857421875,-0.4242459237575531,-0.05619960278272629,0.027183502912521362
1702059405855199000,5.195198974609375,-0.432645320892334,-0.1082758679986,0.03695734590291977
1702059405872189200,5.212189208984375,-0.418748140335083,-0.07498370856046677,0.048716504126787186
1702059405889188000,5.22918798828125,-0.39385536313056946,0.005345070734620094,0.052381694316864014
1702059405906179600,5.2461796875,-0.35811975598335266,0.052381694316864014,0.040622539818286896
1702059405923172000,5.263172119140625,-0.30802878737449646,0.03833179548382759,0.021074850112199783
1702059405940169700,5.280169677734375,-0.24495697021484375,0.0007635815418325365,0.002138028386980295
1702059405957161200,5.2971611328125,-0.21441370248794556,-0.02275473065674305,-0.00045814894838258624
1702059405974155300,5.3141552734375,-0.21868975460529327,0.011759156361222267,0.005803219974040985
1702059405991150000,5.331150146484375,-0.20051652193069458,0.06734789162874222,0.01237002108246088
1702059406008142300,5.348142333984375,-0.13271047174930573,0.08170322328805923,0.014813481830060482
1702059406025137400,5.365137451171875,-0.08338310569524765,0.040164388716220856,0.010995574295520782
1702059406042130700,5.382130615234375,-0.05696318298578262,-0.03344487398862839,-0.005192354787141085
1702059406059108900,5.39910888671875,-0.05009094998240471,-0.02626720629632473,-0.01924225501716137
1702059406076118500,5.416118408203125,-0.05115996301174164,-0.005650503560900688,-0.013286318629980087
1702059406093112300,5.4331123046875,-0.02580905705690384,-0.029932396486401558,0.004428773187100887
1702059406110093600,5.450093505859375,0.0065668015740811825,-0.03649919852614403,0.012522737495601177
1702059406127103000,5.46710302734375,0.021532999351620674,-0.044135015457868576,0.010079276748001575
1702059406144094200,5.48409423828125,0.013439035043120384,-0.060322944074869156,0.0029016099870204926
1702059406161088000,5.501087890625,-0.025503624230623245,-0.053297992795705795,-0.004886921960860491
1702059406178081800,5.518081787109375,-0.06261368840932846,-0.038179077208042145,0.00015271631127689034
1702059406195076900,5.535076904296875,-0.08139779418706894,-0.03833179548382759,0.003054326167330146
1702059406212069600,5.552069580078125,-0.08307767659425735,-0.021532999351620674,-0.0032070425804704428
1702059406229063400,5.5690634765625,-0.10186178237199783,-0.02672535367310047,0.001527163083665073
1702059406246057200,5.58605712890625,-0.14355333149433136,-0.044287730008363724,0.024129176512360573
1702059406263051000,5.603051025390625,-0.1820378452539444,-0.08216137439012527,0.038637228310108185
1702059406280045000,5.620045166015625,-0.16844609379768372,-0.07070764899253845,0.030237829312682152
1702059406297039000,5.6370390625,-0.11178833991289139,-0.030085112899541855,0.006719517521560192
1702059406314033000,5.654032958984375,-0.03955352306365967,-0.027641652151942253,-0.0010690141934901476
1702059406331028000,5.671028076171875,0.020005837082862854,-0.060322944074869156,0.013133603148162365
1702059406348020700,5.688020751953125,0.024587325751781464,-0.05742133408784866,0.029932396486401558
1702059406365014500,5.7050146484375,-0.012980886735022068,-0.03084869496524334,0.03176499158143997
1702059406382008600,5.722008544921875,-0.027641652151942253,-0.01725694350898266,0.023365596309304237
1702059406398993000,5.738992919921875,0.0012217304902151227,-0.007635815534740686,0.003359758760780096
1702059406415996200,5.75599609375,0.02825251780450344,-0.01038470957428217,-0.007941247895359993
1702059406432990200,5.772990234375,0.027641652151942253,-0.01237002108246088,-0.004581489134579897
1702059406449982200,5.789982177734375,0.0003054326225537807,-0.03436116874217987,-0.006872233934700489
1702059406466981000,5.806981201171875,-0.040622539818286896,-0.008704829961061478,-0.027947084978222847
1702059406483975400,5.823975341796875,-0.0705549344420433,0.02733621932566166,-0.04382958263158798
1702059406500965600,5.840965576171875,-0.0806342139840126,0.038179077208042145,-0.032681290060281754
1702059406517966300,5.85796630859375,-0.078343465924263,0.022907447069883347,-0.0027488935738801956
1702059406534938600,5.874938720703125,-0.06475171446800232,0.02015855349600315,0.020311269909143448
1702059406551947300,5.891947265625,-0.050243668258190155,0.02428189292550087,0.013897184282541275
1702059406568938800,5.908938720703125,-0.02474004216492176,0.0403171069920063,-0.01618792861700058
1702059406585938000,5.92593798828125,-0.01038470957428217,0.02168571576476097,-0.03039054572582245
1702059406602930200,5.94293017578125,-0.018020525574684143,0.01237002108246088,-0.02168571576476097
1702059406619923000,5.9599228515625,-0.011453723534941673,0.006108652334660292,0.0024434609804302454
1702059406636916700,5.976916748046875,0.028557950630784035,-0.009773843921720982,0.022449297830462456
1702059406653910800,5.993910888671875,0.08200865983963013,-0.0064140851609408855,0.01237002108246088
1702059406670905900,6.01090576171875,0.10919216275215149,-0.04398229718208313,-0.014813481830060482
1702059406687898400,6.0278984375,0.10201449692249298,-0.054367005825042725,-0.029932396486401558
1702059406704892400,6.044892333984375,0.07467827945947647,-0.05009094998240471,-0.02015855349600315
1702059406721883600,6.061883544921875,0.04046982154250145,-0.029932396486401558,0.0065668015740811825
1702059406738883800,6.0788837890625,0.031612277030944824,-0.008246680721640587,0.026572637259960175
1702059406755874000,6.0958740234375,0.055894169956445694,-0.003512475173920393,0.03298672288656235
1702059406772868000,6.1128681640625,0.07238753139972687,-0.022449297830462456,0.03176499158143997
1702059406789862000,6.12986181640625,0.06505715101957321,-0.026572637259960175,0.018020525574684143
1702059406806857000,6.14685693359375,0.06658431142568588,-0.020922135561704636,-0.006108652334660292
1702059406823849700,6.163849609375,0.13057245314121246,-0.004428773187100887,-0.027641652151942253
1702059406840840000,6.18083984375,0.24724771082401276,-0.0429132841527462,-0.024587325751781464
1702059406857839000,6.197839111328125,0.33460143208503723,-0.10980302840471268,-0.0003054326225537807
1702059406874830600,6.21483056640625,0.36224308609962463,-0.11804971098899841,0.023976460099220276
1702059406891825200,6.2318251953125,0.3715587854385376,-0.08338310569524765,0.04306599870324135
1702059406908810000,6.24881005859375,0.408363401889801,-0.048716504126787186,0.04612032696604729
1702059406925810400,6.265810546875,0.49525898694992065,-0.031154127791523933,0.032070424407720566
1702059406942810600,6.282810546875,0.6168211698532104,-0.08109235763549805,-0.004428773187100887
1702059406959800800,6.29980078125,0.7486153841018677,-0.09224065393209457,-0.04948008432984352
1702059406976792800,6.316792724609375,0.8663596510887146,-0.04245513305068016,-0.08979719132184982
1702059406993791000,6.333791015625,0.9549350738525391,0.016340645030140877,-0.11759155988693237
1702059407010783500,6.350783447265625,1.0545061826705933,0.0029016099870204926,-0.1212567538022995
1702059407027776500,6.367776611328125,1.117730736732483,-0.026419922709465027,-0.13347405195236206
1702059407044770300,6.384770263671875,1.1872166395187378,0.05360342562198639,-0.16371189057826996
1702059407061751000,6.4017509765625,1.2811371088027954,0.25106561183929443,-0.17821992933750153
1702059407078759200,6.41875927734375,1.4049900770187378,0.38377609848976135,-0.18280142545700073
1702059407095752000,6.435751953125,1.541213035583496,0.28435778617858887,-0.1976149082183838
1702059407112737300,6.4527373046875,1.6643023490905762,0.14324790239334106,-0.24908030033111572
1702059407129755100,6.469755126953125,1.8035796880722046,0.19288070499897003,-0.3168863356113434
1702059407146734600,6.486734619140625,1.9408715963363647,0.2945897579193115,-0.33826664090156555
1702059407163727400,6.503727294921875,2.0899226665496826,0.2776382565498352,-0.30573806166648865
1702059407180711200,6.520711181640625,2.2676844596862793,0.2025018334388733,-0.28527405858039856
1702059407197715200,6.537715087890625,2.4164302349090576,0.17043140530586243,-0.3168863356113434
1702059407214710300,6.554710205078125,2.4857633113861084,0.2603813111782074,-0.394008070230484
1702059407231703000,6.571703125,2.487137794494629,0.37827831506729126,-0.4360050559043884
1702059407248697000,6.588697021484375,2.4749205112457275,0.32788193225860596,-0.41172316670417786
1702059407265691000,6.60569091796875,2.524095296859741,0.152105450630188,-0.39813143014907837
1702059407282685700,6.622685791015625,2.5983152389526367,0.0656680166721344,-0.485027015209198
1702059407299668200,6.639668212890625,2.6813929080963135,0.16859880089759827,-0.585667073726654
1702059407316675000,6.656675048828125,2.7197248935699463,0.2405281960964203,-0.5926920175552368
1702059407333664000,6.6736640625,2.721710205078125,0.23854288458824158,-0.49495357275009155
1702059407350648000,6.69064794921875,2.691472291946411,0.11178833991289139,-0.4239404797554016
1702059407367654100,6.707654052734375,2.6082417964935303,0.0607810914516449,-0.44165557622909546
1702059407384648200,6.724648193359375,2.50103497505188,0.15760323405265808,-0.5010622143745422
1702059407401631500,6.741631591796875,2.450485944747925,0.2519819140434265,-0.5170974135398865
1702059407418636800,6.75863671875,2.528982162475586,0.2935207486152649,-0.4524984359741211
1702059407435629800,6.7756298828125,2.671160936355591,0.2513710558414459,-0.3845396637916565
1702059407452623600,6.79262353515625,2.6945266723632812,0.1359175145626068,-0.3767511546611786
1702059407469606000,6.80960595703125,2.5558602809906006,0.1319468915462494,-0.3654501438140869
1702059407486612500,6.826612548828125,2.4046709537506104,0.27718010544776917,-0.32039880752563477
1702059407503605500,6.84360546875,2.456136465072632,0.5186246037483215,-0.2922990322113037
1702059407520599300,6.860599365234375,2.645962715148926,0.6676757335662842,-0.28435778617858887
1702059407537598000,6.877597900390625,2.8683178424835205,0.6215553879737854,-0.2981022298336029
1702059407554588200,6.894588134765625,2.883894920349121,0.21242839097976685,-0.3663664162158966
1702059407571581000,6.911580810546875,2.735454559326172,0.10842858254909515,-0.4161519408226013
1702059407588574700,6.92857470703125,2.5584564208984375,0.28909197449684143,-0.42791110277175903
1702059407605558300,6.945558349609375,2.514932155609131,0.6120869517326355,-0.3930917978286743
1702059407622563600,6.9625634765625,2.5273022651672363,0.7707592248916626,-0.29397889971733093
1702059407639556600,6.979556640625,2.540435791015625,0.660192608833313,-0.20723603665828705
1702059407656550400,6.99655029296875,2.4999659061431885,0.40683624148368835,-0.22632557153701782
1702059407673544200,7.013544189453125,2.4106268882751465,0.21838432550430298,-0.328340083360672
1702059407690528800,7.03052880859375,2.2912027835845947,0.16493362188339233,-0.37888917326927185
1702059407707532300,7.0475322265625,2.225229263305664,0.1411098688840866,-0.37369680404663086
1702059407724525800,7.06452587890625,2.199725866317749,0.2200642079114914,-0.37171149253845215
1702059407741520000,7.081519775390625,2.2324070930480957,0.37308594584465027,-0.4199698567390442
1702059407758515000,7.098514892578125,2.231032609939575,0.4495968222618103,-0.46471574902534485
1702059407775502600,7.115502685546875,2.138333797454834,0.4763221740722656,-0.470671683549881
1702059407792501500,7.13250146484375,1.9533942937850952,0.5155702829360962,-0.46043968200683594
1702059407809493200,7.1494931640625,1.725236177444458,0.5725334286689758,-0.4476115107536316
1702059407826493000,7.166492919921875,1.5635095834732056,0.5455026626586914,-0.41722095012664795
1702059407843483100,7.183483154296875,1.4761558771133423,0.5006040930747986,-0.3888157308101654
1702059407860477200,7.200477294921875,1.3578007221221924,0.47678032517433167,-0.32360586524009705
1702059407877471000,7.217470947265625,1.2376129627227783,0.42042800784111023,-0.26969701051712036
1702059407894466000,7.234466064453125,1.0974193811416626,0.38835757970809937,-0.2632829248905182
1702059407911458800,7.251458740234375,0.9824240207672119,0.3338378667831421,-0.26419922709465027
1702059407928455700,7.26845556640625,0.8437576293945312,0.2692388594150543,-0.2353358417749405
1702059407945443600,7.285443603515625,0.7024950385093689,0.18219055235385895,-0.2165517359972
1702059407962442000,7.30244189453125,0.566730260848999,0.08231408894062042,-0.1996002197265625
1702059407979434200,7.319434326171875,0.4502076804637909,0.029168816283345222,-0.17608191072940826
1702059407996425700,7.33642578125,0.3649919927120209,0.02779436856508255,-0.166460782289505
1702059408013424600,7.353424560546875,0.2974913716316223,0.06887505948543549,-0.15164729952812195
1702059408030417000,7.3704169921875,0.21471913158893585,0.0659734457731247,-0.1108720451593399
1702059408047407400,7.387407470703125,0.11667526513338089,0.026114489883184433,-0.06582073122262955
1702059408064406500,7.404406494140625,0.012064588256180286,-0.02367102913558483,-0.0328340083360672
1702059408081387000,7.421386962890625,-0.06688974797725677,-0.08521570265293121,-0.02672535367310047
1702059408098392800,7.438392822265625,-0.09743300825357437,-0.10445795953273773,-0.03680463135242462
1702059408115385300,7.45538525390625,-0.0933096632361412,-0.07849618047475815,-0.03634648025035858
1702059408132379400,7.47237939453125,-0.07116580009460449,-0.03955352306365967,-0.019853120669722557
1702059408149373200,7.489373291015625,-0.05421429127454758,-0.02733621932566166,0.0010690141934901476
1702059408166368300,7.5063681640625,-0.05742133408784866,-0.058795779943466187,0.005955935921519995
1702059408183361000,7.523361083984375,-0.09514226019382477,-0.09300423413515091,0.00733038317412138
1702059408200350500,7.5403505859375,-0.14156801998615265,-0.10048733651638031,0.01664607785642147
1702059408217348900,7.557348876953125,-0.16600263118743896,-0.06688974797725677,0.025656340643763542
1702059408234343700,7.57434375,-0.16340644657611847,-0.014508049935102463,0.02382374368607998
1702059408251336700,7.591336669921875,-0.14065171778202057,0.0024434609804302454,0.023976460099220276
1702059408268330800,7.608330810546875,-0.11804971098899841,-0.026114489883184433,0.030237829312682152
1702059408285324500,7.625324462890625,-0.10033461451530457,-0.08017606288194656,0.036651913076639175
1702059408302319400,7.6423193359375,-0.12110403180122375,-0.09773843735456467,0.03405573591589928
1702059408319301600,7.659301513671875,-0.15363261103630066,-0.07635815441608429,0.02672535367310047
1702059408336306000,7.676305908203125,-0.1647808998823166,-0.029016099870204926,0.027641652151942253
1702059408353301800,7.6933017578125,-0.16249015927314758,-0.01664607785642147,0.04948008432984352
1702059408370293200,7.710293212890625,-0.14263702929019928,-0.048258353024721146,0.05268712714314461
1702059408387285200,7.72728515625,-0.13271047174930573,-0.0832303911447525,0.03649919852614403
1702059408404276000,7.74427587890625,-0.13576480746269226,-0.1007927656173706,0.024587325751781464
1702059408421275600,7.761275634765625,-0.15164729952812195,-0.09437867999076843,0.03726277872920036
1702059408438270500,7.7782705078125,-0.18768835067749023,-0.056352317333221436,0.08017606288194656
1702059408455263500,7.795263427734375,-0.23350323736667633,-0.013133603148162365,0.13759739696979523
1702059408472252000,7.812251953125,-0.27977627515792847,-0.010231993161141872,0.18784105777740479
1702059408489251000,7.8292509765625,-0.3445279896259308,-0.0328340083360672,0.20876319706439972
1702059408506246100,7.84624609375,-0.4384485185146332,-0.06658431142568588,0.22220222651958466
1702059408523239200,7.8632392578125,-0.5615378618240356,-0.07238753139972687,0.24877487123012543
1702059408540224500,7.880224609375,-0.716697633266449,-0.06688974797725677,0.28848111629486084
1702059408557226800,7.897226806640625,-0.8797986507415771,-0.05955936014652252,0.3449861407279968
1702059408574219300,7.91421923828125,-1.0280861854553223,-0.07513642311096191,0.38377609848976135
1702059408591216600,7.931216552734375,-1.1760683059692383,-0.08781187981367111,0.38606682419776917
1702059408608198000,7.948197998046875,-1.3251193761825562,-0.09376781433820724,0.3706424832344055
1702059408625205200,7.965205322265625,-1.5001323223114014,-0.12263119965791702,0.3675881624221802
1702059408642194200,7.982194091796875,-1.695609211921692,-0.17058411240577698,0.3825543522834778
1702059408659180000,7.999179931640625,-1.8839083909988403,-0.23289237916469574,0.394618958234787
1702059408676184000,8.01618408203125,-2.0428860187530518,-0.294437050819397,0.3833179473876953
1702059408693177900,8.033177734375,-2.1849122047424316,-0.3674354553222656,0.35216382145881653
1702059408710173000,8.0501728515625,-2.3467915058135986,-0.4245513379573822,0.34086281061172485
1702059408727165400,8.06716552734375,-2.512488842010498,-0.40882155299186707,0.3692680299282074
1702059408744159500,8.084159423828124,-2.668259382247925,-0.3237585723400116,0.44913867115974426
1702059408761142800,8.101142822265626,-2.8183796405792236,-0.2684752643108368,0.5369505286216736
1702059408778148400,8.1181484375,-2.9654452800750732,-0.2733621895313263,0.5867360830307007
1702059408795142000,8.135141845703124,-3.096017837524414,-0.3504839241504669,0.6091853380203247
1702059408812126700,8.152126708984374,-3.1694743633270264,-0.46410486102104187,0.6145304441452026
1702059408829129000,8.16912890625,-3.171154260635376,-0.49205195903778076,0.6235406994819641
1702059408846125000,8.186125,-3.1636710166931152,-0.40362921357154846,0.6484334468841553
1702059408863106600,8.2031064453125,-3.1497738361358643,-0.29397889971733093,0.675616979598999
1702059408880110600,8.220110595703124,-3.123812198638916,-0.2886338233947754,0.7231117486953735
1702059408897104600,8.237104736328124,-3.1106784343719482,-0.3582724630832672,0.7651087045669556
1702059408914099500,8.254099365234374,-3.112663745880127,-0.49327367544174194,0.7525860071182251
1702059408931092200,8.27109228515625,-3.1111366748809814,-0.47311514616012573,0.7043276429176331
1702059408948086500,8.28808642578125,-3.054173469543457,-0.39187005162239075,0.656069278717041
1702059408965080300,8.305080322265624,-2.9353601932525635,-0.40973785519599915,0.6235406994819641
1702059408982075100,8.3220751953125,-2.769663095474243,-0.4668537676334381,0.6059783101081848
1702059408999071000,8.339071044921875,-2.554791212081909,-0.4944954216480255,0.554818332195282
1702059409016061700,8.356061767578124,-2.326022148132324,-0.4677700698375702,0.4665483236312866
1702059409033055700,8.3730556640625,-2.171931266784668,-0.40103304386138916,0.41202861070632935
1702059409050050600,8.390050537109374,-2.1117610931396484,-0.38698312640190125,0.41370847821235657
1702059409067041000,8.407041015625,-2.110081195831299,-0.3959933817386627,0.42867469787597656
1702059409084040000,8.4240400390625,-2.1183278560638428,-0.39797869324684143,0.3885102868080139
1702059409101032200,8.4410322265625,-2.096794843673706,-0.34666603803634644,0.3142901659011841
1702059409118026200,8.458026123046874,-2.0508272647857666,-0.3214678466320038,0.2724458873271942
1702059409135010600,8.475010498046874,-1.9662225246429443,-0.32131510972976685,0.27458393573760986
1702059409152012800,8.4920126953125,-1.867567777633667,-0.3449861407279968,0.299476683139801
1702059409169006800,8.5090068359375,-1.820225715637207,-0.26908615231513977,0.3153591752052307
1702059409186001700,8.526001708984374,-1.72935950756073,-0.20097467303276062,0.33887749910354614
1702059409202995000,8.542994873046876,-1.5957326889038086,-0.19349156320095062,0.3222314119338989
1702059409219988500,8.559988525390626,-1.5173892974853516,-0.17577648162841797,0.2623666226863861
1702059409236982500,8.576982421875,-1.483791708946228,-0.14538592100143433,0.20631973445415497
1702059409253963800,8.5939638671875,-1.4450017213821411,-0.1287398487329483,0.1563815027475357
1702059409270971400,8.610971435546874,-1.39017653465271,-0.14126259088516235,0.12339477986097336
1702059409287964200,8.627964111328126,-1.3182471990585327,-0.1108720451593399,0.1085812970995903
1702059409304958200,8.644958251953126,-1.207069754600525,-0.07559457421302795,0.12461651116609573
1702059409321953300,8.661953369140624,-1.1074986457824707,-0.07620543986558914,0.13973543047904968
1702059409338945800,8.67894580078125,-1.0641272068023682,-0.08292495459318161,0.12293662875890732
1702059409355939600,8.695939697265626,-1.0896308422088623,-0.06612616032361984,0.09208793938159943
1702059409372933600,8.71293359375,-1.117730736732483,-0.03588833287358284,0.059864792972803116
1702059409389928400,8.729928466796874,-1.125366449356079,-0.0013744467869400978,0.04214970022439957
1702059409406921500,8.74692138671875,-1.0768027305603027,-0.03084869496524334,0.05711590126156807
1702059409423912400,8.763912353515625,-1.0051788091659546,-0.1033889427781105,0.0910189226269722
1702059409440912000,8.780911865234375,-0.9651671051979065,-0.16279558837413788,0.12095131725072861
1702059409457904000,8.797904052734374,-0.9552405476570129,-0.15531249344348907,0.11453723162412643
1702059409474897000,8.81489697265625,-0.940121591091156,-0.10262536257505417,0.05406157299876213
1702059409491880400,8.83188037109375,-0.8878926634788513,-0.08261952549219131,-0.011301007121801376
1702059409508898000,8.84889794921875,-0.8153523802757263,-0.07819075137376785,-0.04948008432984352
1702059409525879600,8.865879638671874,-0.7258606553077698,-0.06536258012056351,-0.04688390716910362
1702059409542861800,8.88286181640625,-0.664315938949585,-0.01863138936460018,-0.01924225501716137
1702059409559866400,8.899866455078126,-0.6272059082984924,0.00931569468230009,0.024129176512360573
1702059409576860400,8.9168603515625,-0.6073527932167053,0.05009094998240471,0.055894169956445694
1702059409593855200,8.933855224609376,-0.5653557777404785,0.06276640295982361,0.05161811411380768
1702059409610838300,8.95083837890625,-0.5042692422866821,0.01542434748262167,0.027641652151942253
1702059409627841800,8.967841796875,-0.4648684561252594,-0.009926560334861279,0.0007635815418325365
1702059409644834000,8.984833984375,-0.45891252160072327,0.02519819140434265,-0.011301007121801376
1702059409661827600,9.00182763671875,-0.4607451260089874,0.076052725315094,0.009010262787342072
1702059409678812200,9.018812255859375,-0.4596760869026184,0.1062905490398407,0.03375030308961868
1702059409695818200,9.035818359375,-0.4489859640598297,0.10751228034496307,0.05268712714314461
1702059409712808200,9.05280810546875,-0.44089198112487793,0.08445212244987488,0.050854530185461044
1702059409729805300,9.069805419921876,-0.43279802799224854,0.06169738993048668,0.028099801391363144
1702059409746800000,9.086800048828126,-0.41890084743499756,0.05161811411380768,0.005039638374000788
1702059409763789600,9.10378955078125,-0.40591996908187866,0.10277807712554932,-0.01038470957428217
1702059409780787000,9.120786865234376,-0.40286561846733093,0.10735956579446793,-0.0007635815418325365
1702059409797781200,9.13778125,-0.40851613879203796,0.061391957104206085,0.04138612002134323
1702059409814775000,9.154775146484376,-0.41004329919815063,0.019853120669722557,0.08216137439012527
1702059409831765500,9.171765625,-0.3608686327934265,0.02321287989616394,0.07559457421302795
1702059409848761600,9.18876171875,-0.29077184200286865,0.06123924255371094,0.04108068719506264
1702059409865765600,9.205765625,-0.24495697021484375,0.03527746722102165,0.007635815534740686
1702059409882741800,9.22274169921875,-0.21410827338695526,-0.048716504126787186,-0.013897184282541275
1702059409899741700,9.23974169921875,-0.21013765037059784,-0.07727445662021637,0.0006108652451075613
1702059409916738800,9.25673876953125,-0.20326541364192963,-0.03985895588994026,0.031001411378383636
1702059409933730000,9.27372998046875,-0.17776179313659668,0.009010262787342072,0.05161811411380768
1702059409950725600,9.2907255859375,-0.15760323405265808,0.018020525574684143,0.05100724846124649
1702059409967719000,9.307718994140625,-0.15317445993423462,0.003359758760780096,0.04856378585100174
1702059409984714500,9.324714599609376,-0.1976149082183838,-0.048258353024721146,0.060322944074869156
1702059410001704200,9.3417041015625,-0.25702154636383057,-0.05345070734620094,0.05604688450694084
1702059410018701600,9.35870166015625,-0.27259862422943115,-0.001832595793530345,0.041233405470848083
1702059410035696000,9.375696044921876,-0.2687807083129883,0.04077525436878204,0.039095375686883926
1702059410052685800,9.392685791015625,-0.28069257736206055,0.05406157299876213,0.0555887371301651
1702059410069683000,9.409682861328125,-0.3136793076992035,0.0027488935738801956,0.07635815441608429
1702059410086678000,9.426677978515626,-0.3381139039993286,-0.041233405470848083,0.08261952549219131
1702059410103669000,9.4436689453125,-0.3113885521888733,0.009010262787342072,0.04382958263158798
1702059410120659000,9.460658935546874,-0.2577851414680481,0.08659014850854874,-0.010842857882380486
1702059410137659600,9.47765966796875,-0.2200642079114914,0.06368270516395569,-0.016035212203860283
1702059410154661000,9.4946611328125,-0.24129177629947662,-0.017409659922122955,0.0377209298312664
1702059410171651600,9.511651611328125,-0.29733866453170776,-0.03084869496524334,0.09178250283002853
1702059410188637000,9.528636962890625,-0.3309362530708313,0.024129176512360573,0.09040805697441101
1702059410205646300,9.545646240234374,-0.3116939961910248,0.09911288321018219,0.04214970022439957
1702059410222627600,9.562627685546875,-0.2724458873271942,0.1514945775270462,-0.0012217304902151227
1702059410239624000,9.5796240234375,-0.2583959996700287,0.10735956579446793,0.0003054326225537807
1702059410256619300,9.596619384765624,-0.2932153046131134,0.02076941914856434,0.031612277030944824
1702059410273607700,9.613607666015625,-0.3423899710178375,-0.018020525574684143,0.04841107130050659
1702059410290607600,9.630607666015624,-0.35063666105270386,0.040622539818286896,0.03298672288656235
1702059410307588900,9.6475888671875,-0.2961169183254242,0.11560624837875366,0.00427605677396059
1702059410324594200,9.66459423828125,-0.21853704750537872,0.1333213448524475,0.0022907445672899485
1702059410341576000,9.681575927734375,-0.20402899384498596,0.07024950534105301,0.04459316283464432
1702059410358577000,9.698576904296875,-0.2588541507720947,-0.001832595793530345,0.08781187981367111
1702059410375575300,9.7155751953125,-0.26374107599258423,0.020922135561704636,0.10766500234603882
1702059410392557000,9.73255712890625,-0.21319197118282318,0.10613783448934555,0.06505715101957321
1702059410409561600,9.7495615234375,-0.1359175145626068,0.12965615093708038,0.019547687843441963
1702059410426556000,9.766555908203125,-0.1082758679986,0.07788532227277756,0.001527163083665073
1702059410443545300,9.78354541015625,-0.09682214260101318,0.06276640295982361,0.0019853119738399982
1702059410460542700,9.800542724609375,-0.08261952549219131,0.07849618047475815,0.012522737495601177
1702059410477536500,9.81753662109375,-0.06627888232469559,0.055741455405950546,0.023060163483023643
1702059410494531300,9.83453125,-0.025961773470044136,0.021074850112199783,0.017867809161543846
1702059410511528000,9.85152783203125,0.036651913076639175,0.015577063895761967,0.01114829070866108
1702059410528517400,9.868517333984375,0.10186178237199783,0.001832595793530345,0.017409659922122955
1702059410545514000,9.885513916015626,0.14905111491680145,-0.015271631069481373,0.023060163483023643
1702059410562497000,9.9024970703125,0.20036379992961884,-0.06169738993048668,0.007941247895359993
1702059410579497500,9.91949755859375,0.24495697021484375,-0.0507018156349659,-0.01114829070866108
1702059410596496100,9.93649609375,0.31383201479911804,-0.00931569468230009,-0.020922135561704636
1702059410613485800,9.95348583984375,0.3758348524570465,-0.0065668015740811825,-0.010690141469240189
1702059410630481700,9.970481689453125,0.4034765064716339,-0.032528575509786606,0.005803219974040985
1702059410647475000,9.987474853515625,0.42378777265548706,-0.05650503560900688,0.010537425056099892
1702059410664470000,10.004469970703125,0.4127921760082245,-0.03848451003432274,-0.003359758760780096
1702059410681461200,10.021461181640625,0.42760565876960754,0.031154127791523933,-0.006108652334660292
1702059410698456000,10.0384560546875,0.4922046661376953,0.07864890247583389,0.0074830991216003895
1702059410715452000,10.055451904296875,0.5549710988998413,0.0757472887635231,0.007788531947880983
1702059410732441600,10.072441650390624,0.5879577994346619,0.03955352306365967,-0.014508049935102463
1702059410749435400,10.089435302734374,0.623235285282135,0.07590000331401825,-0.03649919852614403
1702059410766437000,10.10643701171875,0.6812674403190613,0.14767667651176453,-0.05711590126156807
1702059410783431400,10.123431396484374,0.7964155673980713,0.20387627184391022,-0.0708603709936142
1702059410800418000,10.14041796875,0.9092729091644287,0.06062837690114975,-0.0708603709936142
1702059410817417200,10.157417236328126,0.9502009153366089,-0.17959438264369965,-0.07269296050071716
1702059410834425600,10.174425537109375,1.0166324377059937,-0.2519819140434265,-0.09407325088977814
1702059410851401200,10.191401123046875,1.1270463466644287,-0.11392636597156525,-0.12232576310634613
1702059410868396300,10.208396240234375,1.3124439716339111,0.09544769674539566,-0.1408044397830963
1702059410885393400,10.225393310546876,1.4391984939575195,0.08720101416110992,-0.13118331134319305
1702059410902381800,10.2423818359375,1.483791708946228,-0.16920967400074005,-0.1267545372247696
1702059410919376600,10.259376708984375,1.508989930152893,-0.21884247660636902,-0.14874568581581116
1702059410936372500,10.27637255859375,1.6531540155410767,0.01038470957428217,-0.20983220636844635
1702059410953362700,10.29336279296875,1.8782578706741333,0.2719877362251282,-0.24266621470451355
1702059410970363100,10.310363037109376,2.046245813369751,0.2015855312347412,-0.21181751787662506
1702059410987353600,10.327353515625,2.0586159229278564,0.059864792972803116,-0.18448130786418915
1702059411004347100,10.34434716796875,2.0053179264068604,0.16859880089759827,-0.17928895354270935
1702059411021339400,10.36133935546875,2.059990406036377,0.502436637878418,-0.20433442294597626
1702059411038331600,10.37833154296875,2.2201898097991943,0.6655376553535461,-0.2591595947742462
1702059411055327500,10.395327392578125,2.3385448455810547,0.3397938013076782,-0.36392298340797424
1702059411072321000,10.412321044921875,2.3136520385742188,0.13225232064723969,-0.4242459237575531
1702059411089319700,10.429319580078126,2.2901337146759033,0.3196352422237396,-0.40653082728385925
1702059411106312400,10.4463125,2.426203966140747,0.8286387324333191,-0.34834590554237366
1702059411123298800,10.463298828125,2.5273022651672363,1.0809260606765747,-0.3173444867134094
1702059411140300800,10.48030078125,2.6864326000213623,0.8098546266555786,-0.3900374472141266
1702059411157293000,10.49729296875,2.707507371902466,0.2799290120601654,-0.5180137157440186
1702059411174283300,10.514283203125,2.737898111343384,0.23335053026676178,-0.6140722632408142
1702059411191280000,10.531280029296875,2.81654691696167,0.5899431109428406,-0.6375905871391296
1702059411208272400,10.5482724609375,2.955976963043213,0.9682214260101318,-0.6711881756782532
1702059411225267200,10.56526708984375,3.0532572269439697,0.6166684627532959,-0.708450973033905
1702059411242261000,10.582260986328125,2.995224952697754,0.10354165732860565,-0.7483099102973938
1702059411259254800,10.5992548828125,2.8480064868927,0.09865473955869675,-0.7536550164222717
1702059411276247800,10.616247802734375,2.7366762161254883,0.40882155299186707,-0.7347181439399719
1702059411293243600,10.63324365234375,2.7324001789093018,0.6186537742614746,-0.7721336483955383
1702059411310242300,10.6502421875,2.785545587539673,0.4150829315185547,-0.8576548099517822
1702059411327230700,10.667230712890625,2.7629435062408447,-0.06185010448098183,-0.9285151958465576
1702059411344222700,10.68422265625,2.7397305965423584,-0.17806722223758698,-0.9260717034339905
1702059411361220000,10.70122021484375,2.749962568283081,0.10002918541431427,-0.9190467596054077
1702059411378212000,10.718212158203125,2.786003589630127,0.4282165467739105,-0.9265298843383789
1702059411395207000,10.73520703125,2.84968638420105,0.4787656366825104,-0.9547823667526245
1702059411412198400,10.752198486328124,2.8550314903259277,0.33169981837272644,-0.9379835724830627
1702059411429194800,10.76919482421875,2.9219212532043457,0.26511552929878235,-0.8526151776313782
1702059411446185700,10.786185791015624,2.9747610092163086,0.3572034537792206,-0.7446447610855103
1702059411463182800,10.803182861328125,2.925128221511841,0.3706424832344055,-0.7205155491828918
1702059411480176400,10.82017626953125,2.7621798515319824,0.33292156457901,-0.7895433306694031
1702059411497170400,10.83717041015625,2.648864507675171,0.2018909603357315,-0.8594874143600464
1702059411514161200,10.8541611328125,2.587777853012085,0.1235474944114685,-0.8463537693023682
1702059411531157800,10.87115771484375,2.48988676071167,0.14935655891895294,-0.6577491760253906
1702059411548151000,10.888151123046875,2.336254119873047,0.21273382008075714,-0.3842342495918274
1702059411565147400,10.9051474609375,2.1560487747192383,0.2857322096824646,-0.22968533635139465
1702059411582136300,10.92213623046875,2.0115792751312256,0.33735033869743347,-0.26633724570274353
1702059411599132700,10.939132568359375,1.9159787893295288,0.285121351480484,-0.3878994286060333
1702059411616128300,10.956128173828125,1.8425222635269165,0.2295326143503189,-0.4697553813457489
1702059411633124900,10.973124755859375,1.7673858404159546,0.2223549485206604,-0.47907108068466187
1702059411650114600,10.990114501953125,1.6840027570724487,0.3448334336280823,-0.41111230850219727
1702059411667109400,11.007109375,1.5279266834259033,0.4590652287006378,-0.2848159074783325
1702059411684092400,11.024092529296874,1.3193162679672241,0.5239696502685547,-0.16081027686595917
1702059411701098200,11.04109814453125,1.1305588483810425,0.5152648091316223,-0.10735956579446793
1702059411718090000,11.058090087890625,1.002277135848999,0.43218716979026794,-0.13545936346054077
1702059411735084800,11.075084716796875,0.8959866166114807,0.36422839760780334,-0.1915062516927719
1702059411752075300,11.0920751953125,0.7889324426651001,0.33276882767677307,-0.22999076545238495
1702059411769073400,11.109073486328125,0.6708827614784241,0.31093040108680725,-0.21349740028381348
1702059411786069800,11.12606982421875,0.5482515692710876,0.3039054572582245,-0.16340644657611847
1702059411803053800,11.1430537109375,0.41951170563697815,0.25213462114334106,-0.11194105446338654
1702059411820053000,11.160052978515624,0.3251330256462097,0.18738290667533875,-0.08445212244987488
1702059411837047300,11.17704736328125,0.24083362519741058,0.1411098688840866,-0.07956519722938538
1702059411854046200,11.194046142578125,0.166460782289505,0.08277224004268646,-0.09789115190505981
1702059411871033000,11.211033203125,0.12431107461452484,0.04306599870324135,-0.10965031385421753
1702059411888031200,11.22803125,0.11148291081190109,0.05207626149058342,-0.096211276948452
1702059411905026800,11.24502685546875,0.10125091671943665,0.06200282275676727,-0.057879481464624405
1702059411922014700,11.2620146484375,0.07422012835741043,0.06719517707824707,-0.009621127508580685
1702059411939010600,11.279010498046874,0.02229658141732216,0.036651913076639175,0.01618792861700058
1702059411956006100,11.296006103515625,-0.03237585723400116,0.007635815534740686,0.01817324012517929
1702059411972996900,11.312996826171876,-0.06459899991750717,-0.0022907445672899485,0.015577063895761967
1702059411989992200,11.3299921875,-0.06719517707824707,0.007635815534740686,0.02229658141732216
1702059412006988000,11.346988037109375,-0.05467243865132332,0.03237585723400116,0.022449297830462456
1702059412023977500,11.3639775390625,-0.03741549700498581,0.04703662544488907,0.009162978269159794
1702059412040976000,11.380975830078125,-0.039095375686883926,0.022143865004181862,0.002138028386980295
1702059412057966000,11.397966064453126,-0.05268712714314461,-0.014355333521962166,0.009926560334861279
1702059412074963500,11.41496337890625,-0.05864306539297104,-0.04382958263158798,0.021838432177901268
1702059412091953200,11.431953125,-0.04688390716910362,-0.05390885844826698,0.020616702735424042
1702059412108960500,11.44896044921875,-0.02474004216492176,-0.04306599870324135,0.013439035043120384
1702059412125945000,11.465945068359375,-0.01664607785642147,-0.04184427112340927,0.009773843921720982
1702059412142934800,11.482934814453126,-0.027947084978222847,-0.04932736977934837,0.012980886735022068
1702059412159922400,11.49992236328125,-0.04749477282166481,-0.08384125679731369,0.011301007121801376
1702059412176926000,11.516926025390624,-0.047800205647945404,-0.10018189996480942,-0.003817907767370343
1702059412193918500,11.53391845703125,-0.04489859566092491,-0.09407325088977814,-0.009162978269159794
1702059412210913500,11.55091357421875,-0.04841107130050659,-0.06459899991750717,0.00366519158706069
1702059412227906800,11.56790673828125,-0.051770828664302826,-0.04764748737215996,0.02687807008624077
1702059412244900900,11.58490087890625,-0.044287730008363724,-0.0429132841527462,0.04001167416572571
1702059412261894700,11.601894775390624,-0.041691552847623825,-0.06062837690114975,0.018936822190880775
1702059412278888400,11.618888427734374,-0.036193765699863434,-0.06368270516395569,-0.009773843921720982
1702059412295884000,11.635884033203125,-0.02932153269648552,-0.054825156927108765,-0.00809396430850029
1702059412312875800,11.652875732421874,-0.02428189292550087,-0.04657847434282303,0.014508049935102463
1702059412329869000,11.669869140625,-0.03405573591589928,-0.032681290060281754,0.03237585723400116
1702059412346865700,11.68686572265625,-0.07269296050071716,-0.056352317333221436,0.0354301854968071
1702059412363852800,11.703852783203125,-0.12476922571659088,-0.09987647086381912,0.030695978552103043
1702059412380856000,11.72085595703125,-0.18356500566005707,-0.12919799983501434,0.021532999351620674
1702059412397845800,11.737845703125,-0.2249511331319809,-0.13408492505550385,0.014355333521962166
1702059412414841300,11.75484130859375,-0.24190263450145721,-0.12263119965791702,0.020463986322283745
1702059412431831000,11.7718310546875,-0.2444988191127777,-0.08994990587234497,0.036041051149368286
1702059412448828700,11.78882861328125,-0.26251932978630066,-0.05772676691412926,0.05971207842230797
1702059412465823000,11.805822998046875,-0.299476683139801,-0.07284568250179291,0.07788532227277756
1702059412482810400,11.822810302734375,-0.337503045797348,-0.1111774742603302,0.06963863968849182
1702059412499811600,11.8398115234375,-0.39354994893074036,-0.16340644657611847,0.048716504126787186
1702059412516805600,11.8568056640625,-0.4738787114620209,-0.23839016258716583,0.03405573591589928
1702059412533794300,11.873794189453125,-0.569631814956665,-0.2721404731273651,0.04932736977934837
1702059412550792000,11.8907919921875,-0.6962336897850037,-0.23426681756973267,0.11071932315826416
1702059412567782700,11.90778271484375,-0.8184067010879517,-0.1267545372247696,0.22800545394420624
1702059412584782800,11.924782958984375,-0.9286679029464722,-0.09056077152490616,0.3539963960647583
1702059412601762800,11.9417626953125,-1.0781772136688232,-0.14553864300251007,0.4173736870288849
1702059412618766000,11.95876611328125,-1.2631165981292725,-0.2116648107767105,0.4210388660430908
1702059412635762000,11.975761962890624,-1.4891366958618164,-0.18829920887947083,0.44028112292289734
1702059412652752600,11.992752685546876,-1.7192802429199219,-0.0988074541091919,0.5097670555114746
1702059412669748000,12.009748046875,-1.9060522317886353,-0.09407325088977814,0.5859724879264832
1702059412686743600,12.02674365234375,-2.1175644397735596,-0.18066339194774628,0.6131559610366821
1702059412703730700,12.043730712890625,-2.327702045440674,-0.28328874707221985,0.5981897711753845
1702059412720734200,12.060734130859375,-2.50714373588562,-0.32498031854629517,0.5998696684837341
1702059412737723600,12.0777236328125,-2.6510024070739746,-0.26633724570274353,0.6391177773475647
1702059412754719000,12.094718994140624,-2.7656924724578857,-0.1693623960018158,0.6745479702949524
1702059412771702000,12.111701904296876,-2.8383853435516357,-0.16890424489974976,0.6782131195068359
1702059412788704500,12.12870458984375,-2.888934373855591,-0.2612976133823395,0.6876815557479858
1702059412805703000,12.145702880859375,-2.942079782485962,-0.3410155177116394,0.750142514705658
1702059412822696200,12.1626962890625,-2.986825704574585,-0.35094207525253296,0.8370380997657776
1702059412839688000,12.17968798828125,-3.0225613117218018,-0.32009339332580566,0.8732318878173828
1702059412856682800,12.196682861328124,-3.017674207687378,-0.3019201457500458,0.8439103364944458
1702059412873675800,12.21367578125,-2.9655981063842773,-0.3674354553222656,0.7669413089752197
1702059412890669600,12.230669677734374,-2.909092903137207,-0.3654501438140869,0.7163922190666199
1702059412907663600,12.24766357421875,-2.908329486846924,-0.3478877544403076,0.7313584089279175
1702059412924655900,12.26465576171875,-2.933680295944214,-0.3245221674442291,0.7948883771896362
1702059412941651200,12.281651123046874,-2.955976963043213,-0.31444287300109863,0.8498662710189819
1702059412958642400,12.298642333984375,-2.9796478748321533,-0.3237585723400116,0.8581129312515259
1702059412975641600,12.3156416015625,-2.9631545543670654,-0.29733866453170776,0.783892810344696
1702059412992631300,12.33263134765625,-2.8652634620666504,-0.22143864631652832,0.6695083379745483
1702059413009624300,12.349624267578125,-2.7647759914398193,-0.20906862616539001,0.5936083197593689
1702059413026623200,12.366623291015625,-2.7128524780273438,-0.31383201479911804,0.5760459303855896
1702059413043602700,12.383602783203125,-2.6206119060516357,-0.3367394804954529,0.5821545720100403
1702059413060611000,12.400611083984375,-2.481945514678955,-0.26710084080696106,0.5781839489936829
1702059413077602300,12.417602294921876,-2.2595906257629395,-0.20326541364192963,0.5294674634933472
1702059413094596400,12.434596435546876,-1.9691240787506104,-0.21578814089298248,0.4943426847457886
1702059413111590400,12.45159033203125,-1.8200730085372925,-0.25763240456581116,0.47280970215797424
1702059413128585000,12.4685849609375,-1.796249270439148,-0.2025018334388733,0.4749477207660675
1702059413145575400,12.485575439453125,-1.7792977094650269,-0.14645494520664215,0.4662429094314575
1702059413162563800,12.502563720703124,-1.6924021244049072,-0.16462817788124084,0.4056145250797272
1702059413179565800,12.51956591796875,-1.5233452320098877,-0.26511552929878235,0.3139847218990326
1702059413196560600,12.536560546875,-1.3765848875045776,-0.32940909266471863,0.24404066801071167
1702059413213543200,12.553543212890625,-1.3254249095916748,-0.3159700334072113,0.2295326143503189
1702059413230548500,12.570548583984374,-1.3307698965072632,-0.29993483424186707,0.2483167201280594
1702059413247540500,12.58754052734375,-1.333060622215271,-0.32421672344207764,0.2588541507720947
1702059413264536300,12.604536376953124,-1.3017538785934448,-0.3162754774093628,0.2278527319431305
1702059413281529000,12.621529052734376,-1.2516628503799438,-0.266642689704895,0.18784105777740479
1702059413298523100,12.638523193359376,-1.188132882118225,-0.244804248213768,0.17027868330478668
1702059413315517000,12.655516845703126,-1.1204795837402344,-0.25335636734962463,0.16554448008537292
1702059413332511700,12.67251171875,-1.091310739517212,-0.2678644061088562,0.182648703455925
1702059413349503500,12.68950341796875,-1.1016954183578491,-0.19608774781227112,0.20922134816646576
1702059413366500000,12.7065,-1.1100949048995972,-0.09178250283002853,0.23594669997692108
1702059413383492600,12.72349267578125,-1.103833556175232,-0.06627888232469559,0.2577851414680481
1702059413400471300,12.74047119140625,-1.0742065906524658,-0.12553280591964722,0.265573650598526
1702059413417478000,12.757477783203125,-1.0033462047576904,-0.10674870014190674,0.25076019763946533
1702059413434476800,12.774476806640624,-0.9121745228767395,-0.017562376335263252,0.21303924918174744
1702059413451468000,12.791468017578126,-0.7903069257736206,-0.015577063895761967,0.18096883594989777
1702059413468463000,12.808463134765624,-0.7392996549606323,-0.020922135561704636,0.17104226350784302
1702059413485448200,12.8254482421875,-0.7273877859115601,-0.04902193695306778,0.19944749772548676
1702059413502451500,12.842451416015624,-0.7367035150527954,-0.078343465924263,0.2370157092809677
1702059413519443700,12.859443603515626,-0.7483099102973938,-0.0884227454662323,0.23884831368923187
1702059413536438500,12.8764384765625,-0.7447974681854248,-0.09575312584638596,0.20387627184391022
1702059413553431600,12.893431640625,-0.7255551815032959,-0.11148291081190109,0.15332718193531036
1702059413570425300,12.91042529296875,-0.6931793093681335,-0.126143679022789,0.09697485715150833
1702059413587416600,12.92741650390625,-0.6417139172554016,-0.10415252298116684,0.062460970133543015
1702059413604406500,12.944406494140624,-0.5820018649101257,-0.08338310569524765,0.07666359096765518
1702059413621407000,12.961406982421876,-0.5192354321479797,-0.03527746722102165,0.10842858254909515
1702059413638400000,12.97839990234375,-0.5115996599197388,0.058337632566690445,0.14645494520664215
1702059413655395800,12.995395751953126,-0.5085453391075134,0.13118331134319305,0.17791450023651123
1702059413672389600,13.0123896484375,-0.45784351229667664,0.13927727937698364,0.17531833052635193
1702059413689380000,13.029380126953125,-0.4245513379573822,0.09712757170200348,0.1287398487329483
1702059413706379300,13.046379150390624,-0.408974289894104,0.034666601568460464,0.0907134860754013
1702059413723370500,13.06337060546875,-0.40026944875717163,0.03680463135242462,0.07192938029766083
1702059413740365600,13.080365478515626,-0.3825543522834778,0.07971791177988052,0.06948592513799667
1702059413757358000,13.097358154296876,-0.3338378667831421,0.11530081182718277,0.06979135423898697
1702059413774352100,13.11435205078125,-0.2971859276294708,0.09789115190505981,0.0630718395113945
1702059413791346000,13.131345947265626,-0.23976461589336395,0.07712173461914062,0.04902193695306778
1702059413808341200,13.14834130859375,-0.1713477075099945,0.032070424407720566,0.04199698567390442
1702059413825323300,13.1653232421875,-0.14477506279945374,0.01191187184303999,0.038026362657547
1702059413842327600,13.18232763671875,-0.1699732542037964,0.002138028386980295,0.02672535367310047
1702059413859321600,13.199321533203126,-0.17058411240577698,0.020463986322283745,0.016493361443281174
1702059413876306400,13.216306396484375,-0.15974126756191254,0.06322455406188965,0.014355333521962166
1702059413893309400,13.233309326171875,-0.14278975129127502,0.08124507963657379,0.04245513305068016
1702059413910303500,13.250303466796876,-0.1059851199388504,0.0734565481543541,0.06704246252775192
1702059413927286800,13.267286865234375,-0.07971791177988052,0.06536258012056351,0.07162395119667053
1702059413944292000,13.2842919921875,-0.05451972410082817,0.06811147183179855,0.058337632566690445
1702059413961284900,13.301284912109375,-0.03848451003432274,0.06673702597618103,0.041233405470848083
1702059413978279000,13.31827880859375,-0.037110064178705215,0.02932153269648552,0.03451388701796532
1702059413995272700,13.335272705078125,-0.0377209298312664,0.01618792861700058,0.030695978552103043
1702059414012269300,13.352269287109374,-0.052381694316864014,0.03726277872920036,0.031001411378383636
1702059414029258800,13.3692587890625,-0.07666359096765518,0.043218716979026794,0.033139441162347794
1702059414046254300,13.38625439453125,-0.10170906037092209,0.00931569468230009,0.031154127791523933
1702059414063247600,13.40324755859375,-0.11728613078594208,-0.012980886735022068,0.012217304669320583
1702059414080244000,13.420243896484376,-0.14217889308929443,0.03237585723400116,-0.020311269909143448
1702059414097236200,13.437236328125,-0.19196440279483795,0.06017022579908371,-0.03497203439474106
1702059414114232600,13.454232666015624,-0.24633140861988068,0.014508049935102463,-0.020463986322283745
1702059414131220200,13.47122021484375,-0.299476683139801,-0.012980886735022068,0.003054326167330146
1702059414148220000,13.488219970703126,-0.247094988822937,0.0003054326225537807,0.009162978269159794
1702059414165211600,13.505211669921875,-0.14156801998615265,0.023518312722444534,0.0007635815418325365
1702059414182205700,13.522205810546875,-0.06352998316287994,0.03848451003432274,-0.006108652334660292
1702059414199199500,13.539199462890625,-0.06994406878948212,0.00366519158706069,-0.0003054326225537807
1702059414216194600,13.556194580078126,-0.11682797968387604,-0.024129176512360573,0.005497787147760391
1702059414233185000,13.57318505859375,-0.14049901068210602,-0.023060163483023643,0.009926560334861279
1702059414250183700,13.59018359375,-0.11591167747974396,0.01771509274840355,0.010079276748001575
1702059414267165400,13.60716552734375,-0.04856378585100174,0.055283304303884506,0.0039706239476799965
1702059414284171500,13.624171630859376,-0.006872233934700489,0.050243668258190155,-0.010231993161141872
1702059414301158100,13.641158203125,-0.030237829312682152,0.02321287989616394,-0.01771509274840355
1702059414318160400,13.658160400390624,-0.0913243517279625,-0.01191187184303999,-0.005345070734620094
1702059414335148300,13.675148193359375,-0.1495092660188675,0.003512475173920393,0.0024434609804302454
1702059414352148200,13.692148193359374,-0.17547103762626648,0.009773843921720982,0.009162978269159794
1702059414369129000,13.70912890625,-0.17837265133857727,-0.007635815534740686,0.017409659922122955
1702059414386132500,13.726132568359375,-0.17256943881511688,-0.04199698567390442,0.02015855349600315
1702059414403126300,13.743126220703125,-0.1391245573759079,-0.04108068719506264,0.019089538604021072
1702059414420121300,13.760121337890626,-0.06994406878948212,0.004581489134579897,0.001527163083665073
1702059414437113900,13.77711376953125,-0.003359758760780096,0.02886338345706463,-0.010690141469240189
1702059414454108000,13.79410791015625,0.024434609338641167,-0.01771509274840355,-0.009621127508580685
1702059414471100700,13.8111005859375,0.02687807008624077,-0.06765332818031311,0.006261368747800589
1702059414488096000,13.828095947265625,0.014813481830060482,-0.06918048858642578,0.02626720629632473
1702059414505089800,13.84508984375,0.010995574295520782,-0.019089538604021072,0.027947084978222847
1702059414522073300,13.8620732421875,0.051770828664302826,0.02275473065674305,0.004428773187100887
1702059414539077400,13.879077392578125,0.11820242553949356,0.020616702735424042,-0.020005837082862854
1702059414556072400,13.896072509765625,0.13225232064723969,-0.0010690141934901476,-0.022143865004181862
1702059414573065200,13.913065185546875,0.08720101416110992,0.0012217304902151227,-0.0027488935738801956
1702059414590059000,13.93005908203125,0.04841107130050659,-0.0006108652451075613,0.020005837082862854
1702059414607053300,13.94705322265625,0.04642575979232788,-0.012217304669320583,0.01191187184303999
1702059414624047900,13.9640478515625,0.07024950534105301,-0.023976460099220276,-0.015882495790719986
1702059414641041000,13.981041015625,0.09147707372903824,-0.02382374368607998,-0.03084869496524334
1702059414658034700,13.99803466796875,0.11316278576850891,0.002138028386980295,-0.022449297830462456
1702059414675026000,14.01502587890625,0.1466076523065567,0.020463986322283745,-0.01863138936460018
1702059414692026000,14.032026123046874,0.21624629199504852,0.035124752670526505,-0.04260785132646561
1702059414709016300,14.049016357421875,0.32070425152778625,0.023518312722444534,-0.08765916526317596
1702059414726010400,14.06601025390625,0.41981714963912964,0.005497787147760391,-0.12461651116609573
1702059414742994700,14.08299462890625,0.4940372705459595,0.0007635815418325365,-0.12553280591964722
1702059414759999000,14.0999990234375,0.5424483418464661,0.06185010448098183,-0.10949759185314178
1702059414776992000,14.116991943359375,0.6327036619186401,0.14278975129127502,-0.11530081182718277
1702059414793985800,14.13398583984375,0.7993171811103821,0.16233743727207184,-0.15683965384960175
1702059414810979800,14.150979736328125,1.0053315162658691,0.11636982858181,-0.21105393767356873
1702059414827974700,14.167974609375,1.1717922687530518,0.008857546374201775,-0.2535090744495392
1702059414844957000,14.18495703125,1.2605204582214355,-0.06062837690114975,-0.27382034063339233
1702059414861961500,14.20196142578125,1.3075571060180664,-0.03084869496524334,-0.28909197449684143
1702059414878955300,14.218955322265625,1.4283556938171387,0.04260785132646561,-0.3263547718524933
1702059414895950300,14.235950439453125,1.6180293560028076,0.05864306539297104,-0.37598755955696106
1702059414912933600,14.25293359375,1.800678014755249,0.09911288321018219,-0.43539419770240784
1702059414929934300,14.269934326171875,1.9465221166610718,0.2064724564552307,-0.4346306324005127
1702059414946933800,14.286933837890626,2.035708427429199,0.21319197118282318,-0.38499781489372253
1702059414963925800,14.30392578125,2.135890245437622,0.14278975129127502,-0.3689626157283783
1702059414980914700,14.320914794921874,2.2233967781066895,0.152105450630188,-0.4271475374698639
1702059414997912600,14.33791259765625,2.306169033050537,0.2819143235683441,-0.528245747089386
1702059415014906400,14.35490625,2.4362833499908447,0.3911064863204956,-0.5991060733795166
1702059415031901400,14.3719013671875,2.5842654705047607,0.3651446998119354,-0.5830708742141724
1702059415048894200,14.388894287109375,2.699413537979126,0.24434609711170197,-0.5560401082038879
1702059415065888300,14.40588818359375,2.68230938911438,0.3173444867134094,-0.5424483418464661
1702059415082882000,14.422882080078125,2.646420955657959,0.5135849714279175,-0.5322163701057434
1702059415099878400,14.43987841796875,2.652376890182495,0.5568036437034607,-0.4999932050704956
1702059415116874500,14.45687451171875,2.6952900886535645,0.413555771112442,-0.4746423065662384
1702059415133864000,14.473864013671875,2.7766878604888916,0.14767667651176453,-0.5545129179954529
1702059415150857700,14.490857666015625,2.7989845275878906,0.09972374886274338,-0.6921103000640869
1702059415167837000,14.5078369140625,2.8286116123199463,0.24816401302814484,-0.790154218673706
1702059415184844800,14.5248447265625,2.8047878742218018,0.3640756905078888,-0.7666358947753906
1702059415201840000,14.541840087890625,2.75500226020813,0.31413745880126953,-0.6866125464439392
1702059415218823200,14.5588232421875,2.6529877185821533,0.22571471333503723,-0.6527095437049866
1702059415235822000,14.575822021484376,2.5335636138916016,0.23900102078914642,-0.6947064995765686
1702059415252821000,14.592821044921875,2.4225387573242188,0.3620903789997101,-0.7461718916893005
1702059415269814800,14.609814697265625,2.3661866188049316,0.3865249752998352,-0.740368664264679
1702059415286808800,14.626808837890625,2.3884830474853516,0.29993483424186707,-0.6811147332191467
1702059415303804000,14.643803955078125,2.3944389820098877,0.15103642642498016,-0.6924157738685608
1702059415320794000,14.660794189453124,2.3823745250701904,0.16920967400074005,-0.7698429226875305
1702059415337785300,14.677785400390626,2.347555160522461,0.4593706727027893,-0.7929030656814575
1702059415354784500,14.694784423828125,2.319913387298584,0.722959041595459,-0.7195992469787598
1702059415371784700,14.71178466796875,2.3861923217773438,0.7195992469787598,-0.5739079117774963
1702059415388761600,14.72876171875,2.45063853263855,0.5473352670669556,-0.4407392740249634
1702059415405763600,14.745763671875,2.528829336166382,0.35750889778137207,-0.4434881806373596
1702059415422762800,14.7627626953125,2.562732458114624,0.2921462953090668,-0.5508477091789246
1702059415439754200,14.779754150390625,2.556623697280884,0.40164390206336975,-0.6476698517799377
1702059415456748000,14.796748046875,2.4616341590881348,0.38728857040405273,-0.6397286057472229
1702059415473741800,14.813741943359375,2.331214427947998,0.28420504927635193,-0.5780312418937683
1702059415490735600,14.830735595703125,2.1978931427001953,0.2557998299598694,-0.579405665397644
1702059415507730700,14.847730712890625,2.090380907058716,0.23869559168815613,-0.6233879923820496
1702059415524723500,14.864723388671875,2.0112738609313965,0.12140946835279465,-0.6527095437049866
1702059415541717200,14.88171728515625,1.9480493068695068,0.09972374886274338,-0.6322455406188965
1702059415558724900,14.898724853515626,1.8600846529006958,0.14477506279945374,-0.575893223285675
1702059415575706000,14.9157060546875,1.7606663703918457,0.24297164380550385,-0.5090034604072571
1702059415592699100,14.93269921875,1.6549866199493408,0.3318525552749634,-0.4567744731903076
1702059415609685000,14.94968505859375,1.5722143650054932,0.3413209617137909,-0.43157628178596497
1702059415626676200,14.96667626953125,1.5030338764190674,0.32391130924224854,-0.38026362657546997
1702059415643680300,14.98368017578125,1.4214833974838257,0.32299500703811646,-0.3078760802745819
1702059415660676000,15.000676025390625,1.2892310619354248,0.3075706362724304,-0.2474004179239273
1702059415677668400,15.01766845703125,1.1044443845748901,0.25473082065582275,-0.24663683772087097
1702059415694662400,15.034662353515625,0.9815077185630798,0.19685132801532745,-0.28985556960105896
1702059415711657500,15.051657470703125,0.9396634697914124,0.16050484776496887,-0.33276882767677307
1702059415728650200,15.068650146484375,0.8445212244987488,0.15073099732398987,-0.32818734645843506
1702059415745644000,15.08564404296875,0.7606799602508545,0.15347988903522491,-0.30543261766433716
1702059415762627000,15.102626953125,0.6670648455619812,0.11743884533643723,-0.285121351480484
1702059415779627300,15.119627197265626,0.574976921081543,0.11820242553949356,-0.24556782841682434
1702059415796625700,15.136625732421875,0.49144110083580017,0.0835358202457428,-0.20082195103168488
1702059415813621200,15.153621337890625,0.4138612151145935,0.06215553730726242,-0.1592831164598465
1702059415830612000,15.170612060546874,0.3396410644054413,0.09728029370307922,-0.10399980843067169
1702059415847608800,15.18760888671875,0.27382034063339233,0.10980302840471268,-0.048258353024721146
1702059415864598800,15.204598876953124,0.23289237916469574,0.11927144229412079,-0.02321287989616394
1702059415881597700,15.22159765625,0.2246456891298294,0.11224649101495743,-0.013286318629980087
1702059415898589200,15.238589111328125,0.2041817009449005,0.07192938029766083,-0.0065668015740811825
1702059415915584000,15.255583984375,0.13729196786880493,0.032528575509786606,-0.0022907445672899485
1702059415932577000,15.272576904296875,0.07330382615327835,-0.012217304669320583,-0.011759156361222267
1702059415949570800,15.28957080078125,0.059864792972803116,-0.03084869496524334,-0.03634648025035858
1702059415966564900,15.30656494140625,0.0685696229338646,0.008246680721640587,-0.04153883829712868
1702059415983544600,15.323544677734375,0.07819075137376785,0.016035212203860283,-0.023976460099220276
1702059416000553200,15.34055322265625,0.08949175477027893,-0.0039706239476799965,-0.012217304669320583
1702059416017546500,15.35754638671875,0.09651670604944229,-0.03573561832308769,-0.013897184282541275
1702059416034540300,15.374540283203125,0.08155050873756409,-0.060322944074869156,-0.03985895588994026
1702059416051525000,15.391525146484375,0.04917465150356293,-0.0679587572813034,-0.060475658625364304
1702059416068528000,15.408528076171875,0.019547687843441963,-0.05207626149058342,-0.052839845418930054
1702059416085522000,15.42552197265625,-0.004123340360820293,-0.03588833287358284,-0.02580905705690384
1702059416102516000,15.442515869140625,-0.020311269909143448,-0.035582900047302246,-0.004581489134579897
1702059416119510800,15.4595107421875,-0.017562376335263252,-0.03039054572582245,-0.001679879380390048
1702059416136503800,15.47650390625,-0.008246680721640587,-0.03145955875515938,-0.015271631069481373
1702059416153487000,15.493487060546874,0.0025961773935705423,-0.04917465150356293,-0.027947084978222847
1702059416170491600,15.51049169921875,0.003817907767370343,-0.05451972410082817,-0.024587325751781464
1702059416187485400,15.5274853515625,-0.01466076634824276,-0.07559457421302795,-0.005955935921519995
1702059416204471000,15.544470947265625,-0.0555887371301651,-0.06276640295982361,0.01237002108246088
1702059416221473000,15.56147314453125,-0.12461651116609573,-0.06322455406188965,0.027488935738801956
1702059416238466000,15.578466064453124,-0.19517144560813904,-0.08429940044879913,0.045204028487205505
1702059416255463200,15.595463134765625,-0.2611449062824249,-0.08521570265293121,0.056810468435287476
1702059416272455000,15.612454833984375,-0.3139847218990326,-0.08460483700037003,0.06414084881544113
1702059416289447700,15.62944775390625,-0.37659841775894165,-0.11743884533643723,0.06444628536701202
1702059416306443800,15.64644384765625,-0.46731191873550415,-0.16294831037521362,0.06368270516395569
1702059416323437600,15.6634375,-0.5726861953735352,-0.1921171247959137,0.08857546001672745
1702059416340430800,15.680430908203125,-0.685390830039978,-0.19807305932044983,0.11988230794668198
1702059416357424400,15.69742431640625,-0.8057312369346619,-0.20326541364192963,0.16065755486488342
1702059416374418200,15.714418212890624,-0.922711968421936,-0.21365012228488922,0.2064724564552307
1702059416391413200,15.731413330078125,-1.0352638959884644,-0.21853704750537872,0.24633140861988068
1702059416408403700,15.74840380859375,-1.1527026891708374,-0.24587325751781464,0.2788599729537964
1702059416425402600,15.765402587890625,-1.3339769840240479,-0.2539672255516052,0.3228422701358795
1702059416442393900,15.782393798828124,-1.5789339542388916,-0.24373523890972137,0.38667771220207214
1702059416459388700,15.799388671875,-1.7964019775390625,-0.25045475363731384,0.44577890634536743
1702059416476374500,15.81637451171875,-1.9653061628341675,-0.3219259977340698,0.456163614988327
1702059416493374000,15.8333740234375,-2.096642255783081,-0.38087448477745056,0.41828998923301697
1702059416510371300,15.850371337890625,-2.202932834625244,-0.36850446462631226,0.4046982228755951
1702059416527377000,15.867376953125,-2.3041837215423584,-0.2857322096824646,0.46471574902534485
1702059416544346600,15.8843466796875,-2.4020748138427734,-0.2298380434513092,0.5780312418937683
1702059416561351200,15.90135107421875,-2.5106561183929443,-0.2617557644844055,0.6687447428703308
1702059416578345000,15.918344970703124,-2.610685348510742,-0.37522396445274353,0.7133378982543945
1702059416595340000,15.935340087890625,-2.6842947006225586,-0.41920626163482666,0.7524332404136658
1702059416612332800,15.952332763671874,-2.7404942512512207,-0.33887749910354614,0.8350527882575989
1702059416629324300,15.96932421875,-2.799900770187378,-0.2616030275821686,0.9434813857078552
1702059416646313000,15.98631298828125,-2.828153371810913,-0.2929098904132843,1.006095051765442
1702059416663313000,16.00331298828125,-2.8345675468444824,-0.3877467215061188,0.9896016716957092
1702059416680305000,16.020304931640624,-2.8574748039245605,-0.4337143301963806,0.8865181803703308
1702059416697293800,16.0372939453125,-2.8935160636901855,-0.3878994286060333,0.7988590002059937
1702059416714296600,16.054296630859376,-2.992476224899292,-0.2811507284641266,0.7925976514816284
1702059416731280400,16.0712802734375,-3.101515531539917,-0.2684752643108368,0.8093964457511902
1702059416748284000,16.088283935546876,-3.120604991912842,-0.3352122902870178,0.8206974864006042
1702059416765278000,16.10527783203125,-3.109609603881836,-0.37720927596092224,0.8504771590232849
1702059416782271700,16.122271728515624,-3.0896036624908447,-0.3856086730957031,0.9224064946174622
1702059416799266600,16.1392666015625,-3.0579915046691895,-0.3251330256462097,0.9705121517181396
1702059416816259600,16.156259521484376,-2.989879846572876,-0.30741792917251587,0.9411906003952026
1702059416833254000,16.17325390625,-2.8774807453155518,-0.4063780903816223,0.8321511745452881
1702059416850247700,16.19024755859375,-2.766761302947998,-0.4902193546295166,0.7040221691131592
1702059416867232300,16.207232177734376,-2.671924591064453,-0.5111414790153503,0.6262896060943604
1702059416884234800,16.22423486328125,-2.5502097606658936,-0.5213735103607178,0.5635231733322144
1702059416901226500,16.2412265625,-2.32586932182312,-0.43050727248191833,0.483957976102829
1702059416918225700,16.2582255859375,-2.029599666595459,-0.3228422701358795,0.4066835343837738
1702059416935209700,16.275209716796876,-1.7508925199508667,-0.26801711320877075,0.380721777677536
1702059416952210700,16.292210693359376,-1.5725198984146118,-0.294895201921463,0.4082106947898865
1702059416969204700,16.309204833984374,-1.6239852905273438,-0.29596421122550964,0.4210388660430908
1702059416986198500,16.326198486328124,-1.7539467811584473,-0.2838996350765228,0.4178318381309509
1702059417003193600,16.343193603515626,-1.814880609512329,-0.2379320114850998,0.37568211555480957
1702059417020186400,16.360186279296876,-1.7282904386520386,-0.19135354459285736,0.3168863356113434
1702059417037180400,16.377180419921874,-1.5569428205490112,-0.1768454909324646,0.2626720666885376
1702059417054174200,16.39417431640625,-1.4173600673675537,-0.14004085958003998,0.24877487123012543
1702059417071169000,16.4111689453125,-1.3634512424468994,-0.13179416954517365,0.2942843437194824
1702059417088159200,16.4281591796875,-1.3894129991531372,-0.14844025671482086,0.35323283076286316
1702059417105158400,16.445158447265626,-1.479668378829956,-0.1488984078168869,0.3274237811565399
1702059417122139000,16.462138916015626,-1.4674509763717651,-0.02015855349600315,0.23854288458824158
1702059417139142100,16.47914208984375,-1.3956743478775024,0.06383541971445084,0.1670716404914856
1702059417156140000,16.49614013671875,-1.2831224203109741,-0.01771509274840355,0.16371189057826996
1702059417173121000,16.51312109375,-1.217454433441162,-0.12690725922584534,0.2028072625398636
1702059417190125300,16.530125244140624,-1.1501065492630005,-0.10231992602348328,0.2565633952617645
1702059417207120600,16.54712060546875,-1.117730736732483,0.06322455406188965,0.31551191210746765
1702059417224110300,16.5641103515625,-1.1087204217910767,0.0757472887635231,0.3484986126422882
1702059417241111600,16.581111572265623,-1.0757336616516113,0.004123340360820293,0.3546072840690613
1702059417258100700,16.598100830078124,-1.0305296182632446,-0.08949175477027893,0.35964691638946533
1702059417275094300,16.61509423828125,-0.9764680862426758,-0.04886921867728233,0.3520110845565796
1702059417292087300,16.63208740234375,-0.9387471675872803,0.01664607785642147,0.3240640163421631
1702059417309082600,16.64908251953125,-0.9101892113685608,0.03787364438176155,0.2727513313293457
1702059417326057000,16.666056884765624,-0.8634580373764038,0.0328340083360672,0.21502456068992615
1702059417343069000,16.68306884765625,-0.7799221873283386,0.048105638474226,0.16722436249256134
1702059417360064300,16.700064208984376,-0.6837109327316284,0.036041051149368286,0.14645494520664215
1702059417377058300,16.717058349609374,-0.6348416805267334,0.022907447069883347,0.15241087973117828
1702059417394053400,16.734053466796876,-0.6241515874862671,0.05711590126156807,0.1563815027475357
1702059417411047200,16.751047119140626,-0.5900958180427551,0.07528914511203766,0.16432274878025055
1702059417428040000,16.7680400390625,-0.5325217843055725,0.02886338345706463,0.1716531366109848
1702059417445033700,16.78503369140625,-0.48090365529060364,0.017867809161543846,0.18157969415187836
1702059417462027800,16.80202783203125,-0.4453207552433014,0.004581489134579897,0.16920967400074005
1702059417479022600,16.819022705078126,-0.4106541574001312,0.0003054326225537807,0.12003502249717712
1702059417496014300,16.836014404296876,-0.3911064863204956,0.03756821155548096,0.07391469180583954
1702059417513010700,16.8530107421875,-0.3882048726081848,0.10231992602348328,0.06001751124858856
1702059417530003200,16.870003173828124,-0.4069889783859253,0.0959058403968811,0.09865473955869675
1702059417546998300,16.886998291015626,-0.40485092997550964,0.08674286305904388,0.126143679022789
1702059417563979300,16.903979248046873,-0.32498031854629517,0.09666942805051804,0.10735956579446793
1702059417580985000,16.920985107421874,-0.21700987219810486,0.09300423413515091,0.057879481464624405
1702059417597976000,16.93797607421875,-0.15683965384960175,0.05467243865132332,0.021991148591041565
1702059417614966000,16.954966064453124,-0.16752979159355164,0.020311269909143448,0.01863138936460018
1702059417631966700,16.971966796875,-0.18219055235385895,0.003512475173920393,0.03436116874217987
1702059417648958000,16.9889580078125,-0.1768454909324646,0.02932153269648552,0.0455094613134861
1702059417665957000,17.00595703125,-0.12034045159816742,0.05742133408784866,0.03680463135242462
1702059417682949600,17.02294970703125,-0.059864792972803116,0.0377209298312664,0.018325956538319588
1702059417699942100,17.039942138671876,-0.041691552847623825,-0.009010262787342072,0.015577063895761967
1702059417716929500,17.056929443359376,-0.08552113175392151,-0.04764748737215996,0.010079276748001575
1702059417733922300,17.07392236328125,-0.13301590085029602,-0.03436116874217987,-0.01466076634824276
1702059417750925000,17.090925048828126,-0.13515393435955048,-0.0024434609804302454,-0.039248090237379074
1702059417767917800,17.107917724609376,-0.13484850525856018,0.017409659922122955,-0.03573561832308769
1702059417784901400,17.1249013671875,-0.1365283876657486,-0.013744467869400978,-0.00366519158706069
1702059417801905700,17.14190576171875,-0.14309518039226532,-0.03756821155548096,0.025045474991202354
1702059417818900700,17.158900634765626,-0.12232576310634613,-0.00733038317412138,0.009926560334861279
1702059417835883000,17.175883056640625,-0.055283304303884506,0.033597588539123535,-0.03145955875515938
1702059417852887300,17.19288720703125,0.005803219974040985,0.04138612002134323,-0.05390885844826698
1702059417869881300,17.20988134765625,-0.0003054326225537807,-0.007024950347840786,-0.015882495790719986
1702059417886876200,17.226876220703126,-0.056810468435287476,-0.038179077208042145,0.05207626149058342
1702059417903869000,17.243868896484376,-0.10659598559141159,-0.041691552847623825,0.08414668589830399
1702059417920863200,17.26086328125,-0.08414668589830399,-0.026419922709465027,0.06215553730726242
1702059417937846500,17.277846435546873,0.012217304669320583,-0.0027488935738801956,0.004123340360820293
1702059417954848300,17.29484814453125,0.09575312584638596,-0.005497787147760391,-0.03680463135242462
1702059417971848200,17.31184814453125,0.07330382615327835,-0.04993823543190956,-0.039706241339445114
1702059417988844300,17.32884423828125,-0.015118914656341076,-0.06215553730726242,-0.01863138936460018
1702059418005830100,17.345830078125,-0.12217304855585098,-0.06001751124858856,0.013744467869400978
1702059418022829800,17.362829833984375,-0.15332718193531036,-0.021074850112199783,0.032681290060281754
1702059418039817500,17.3798173828125,-0.08185594528913498,-0.003359758760780096,0.024587325751781464
1702059418056816600,17.396816650390626,-0.009773843921720982,0.0027488935738801956,0.0010690141934901476
1702059418073808100,17.41380810546875,-0.03756821155548096,-0.030085112899541855,-0.013744467869400978
1702059418090790400,17.430790283203127,-0.11957687139511108,-0.0630718395113945,-0.00733038317412138
1702059418107798300,17.44779833984375,-0.1898263692855835,-0.042760565876960754,0.0065668015740811825
1702059418124789800,17.464789794921874,-0.17638733983039856,0.021380282938480377,0.010995574295520782
1702059418141783800,17.48178369140625,-0.08261952549219131,0.06459899991750717,-0.001832595793530345
1702059418158778600,17.498778564453126,0.001832595793530345,0.06887505948543549,-0.013439035043120384
1702059418175771400,17.515771484375,0.018020525574684143,0.018325956538319588,-0.010079276748001575
1702059418192765200,17.53276513671875,0.020311269909143448,-0.0025961773935705423,-0.0019853119738399982
1702059418209753000,17.549753173828126,0.02015855349600315,0.026114489883184433,0
1702059418226751500,17.56675146484375,0.06368270516395569,0.052381694316864014,-0.008704829961061478
1702059418243763200,17.58376318359375,0.1287398487329483,0.028405234217643738,-0.014966198243200779
1702059418260737000,17.600737060546876,0.15653422474861145,-0.020616702735424042,-0.0065668015740811825
1702059418277734700,17.617734619140624,0.1492038369178772,-0.04642575979232788,-0.0012217304902151227
1702059418294729700,17.634729736328126,0.13179416954517365,-0.029626963660120964,-0.021838432177901268
1702059418311720400,17.651720458984375,0.09422596544027328,-0.03222314268350601,-0.03985895588994026
1702059418328720000,17.668719970703126,0.05757404863834381,-0.031612277030944824,-0.03344487398862839
1702059418345706800,17.685706787109375,0.05268712714314461,-0.053297992795705795,-0.003817907767370343
1702059418362705400,17.702705322265626,0.05971207842230797,-0.08185594528913498,0.029474247246980667
1702059418379687400,17.7196875,0.11407908797264099,-0.07773260027170181,0.021074850112199783
1702059418396692000,17.73669189453125,0.21930062770843506,-0.05406157299876213,-0.019853120669722557
1702059418413685800,17.753685791015624,0.32559117674827576,-0.03390302136540413,-0.05757404863834381
1702059418430678300,17.77067822265625,0.3920227587223053,-0.03298672288656235,-0.07254024595022202
1702059418447676400,17.787676513671876,0.4648684561252594,-0.039706241339445114,-0.08506298810243607
1702059418464667600,17.804667724609374,0.5564982295036316,0.004886921960860491,-0.10537425428628922
1702059418481661400,17.821661376953124,0.6614143252372742,0.09040805697441101,-0.1310305893421173
1702059418498656500,17.838656494140626,0.7849618196487427,0.09773843735456467,-0.15714508295059204
1702059418515649300,17.855649169921875,0.8866708874702454,-0.03451388701796532,-0.18707747757434845
1702059418532643000,17.87264306640625,0.9810495972633362,-0.11835514008998871,-0.20799961686134338
1702059418549637000,17.88963720703125,1.1125383377075195,-0.0555887371301651,-0.22617286443710327
1702059418566632200,17.906632080078126,1.2878566980361938,0.06001751124858856,-0.24648413062095642
1702059418583625000,17.923625,1.4801265001296997,0.09834930300712585,-0.28787025809288025
1702059418600620500,17.94062060546875,1.5795447826385498,0.058795779943466187,-0.33047810196876526
1702059418617611300,17.957611328125,1.612226128578186,0.036193765699863434,-0.3459024429321289
1702059418634618400,17.974618408203124,1.6607898473739624,0.0959058403968811,-0.32940909266471863
1702059418651597800,17.991597900390627,1.74356210231781,0.2125810980796814,-0.33597588539123535
1702059418668586800,18.008586669921876,1.9234619140625,0.24419337511062622,-0.3851505517959595
1702059418685588200,18.025588134765623,2.096336841583252,0.14324790239334106,-0.47418415546417236
1702059418702583600,18.04258349609375,2.1795670986175537,0.09407325088977814,-0.5526803135871887
1702059418719575800,18.059575927734375,2.1815524101257324,0.14309518039226532,-0.5713117122650146
1702059418736569900,18.07656982421875,2.1421515941619873,0.32421672344207764,-0.5309945940971375
1702059418753564000,18.09356396484375,2.1702516078948975,0.49144110083580017,-0.48685958981513977
1702059418770559000,18.11055908203125,2.289522886276245,0.3582724630832672,-0.503047525882721
1702059418787551500,18.127551513671875,2.3009767532348633,0.03420845419168472,-0.5619960427284241
1702059418804542000,18.1445419921875,2.3235785961151123,-0.06459899991750717,-0.6369797587394714
1702059418821536800,18.161536865234375,2.3796255588531494,-0.008246680721640587,-0.6849326491355896
1702059418838537000,18.178536865234374,2.4940099716186523,0.08384125679731369,-0.6959282159805298
1702059418855527200,18.195527099609375,2.6453518867492676,0.15332718193531036,-0.6953173875808716
1702059418872518700,18.2125185546875,2.760347366333008,0.09926560521125793,-0.650418758392334
1702059418889517600,18.229517578125,2.847395658493042,0.013591751456260681,-0.5783366560935974
1702059418906499800,18.246499755859375,2.9805643558502197,0.06520986557006836,-0.5600107312202454
1702059418923490000,18.263489990234376,3.102126359939575,0.12492194026708603,-0.6688974499702454
1702059418940497000,18.280496826171873,3.171001434326172,0.3081815242767334,-0.802524209022522
1702059418957490700,18.29749072265625,3.1839823722839355,0.3572034537792206,-0.8733845949172974
1702059418974485500,18.314485595703125,3.156798839569092,0.13469578325748444,-0.8419250249862671
1702059418991478300,18.331478271484375,3.1141910552978516,-0.11041389405727386,-0.8266534209251404
1702059419008472600,18.34847265625,3.0886874198913574,-0.09193521738052368,-0.8390234112739563
1702059419025459200,18.365459228515626,3.0138564109802246,0.15027284622192383,-0.8571966290473938
1702059419042461200,18.382461181640625,2.8990137577056885,0.3006984293460846,-0.8345946669578552
1702059419059454000,18.399453857421875,2.7346909046173096,0.20494529604911804,-0.7791585922241211
1702059419076461800,18.4164619140625,2.587777853012085,0.0507018156349659,-0.7432702779769897
1702059419093439200,18.433439208984375,2.493093729019165,0.01924225501716137,-0.7334964275360107
1702059419110439200,18.450439208984374,2.4184155464172363,0.09147707372903824,-0.7605272531509399
1702059419127429600,18.4674296875,2.3684773445129395,0.21578814089298248,-0.707840085029602
1702059419144425200,18.48442529296875,2.3935227394104004,0.27320948243141174,-0.6017022728919983
1702059419161415700,18.501415771484375,2.4489588737487793,0.2200642079114914,-0.5288565754890442
1702059419178412300,18.518412353515625,2.5305092334747314,0.09315694868564606,-0.5514585971832275
1702059419195405000,18.535405029296875,2.4437663555145264,-0.1385136991739273,-0.580016553401947
1702059419212397300,18.552397216796876,2.311208724975586,-0.33796119689941406,-0.5633704662322998
1702059419229394700,18.569394775390624,2.1226038932800293,-0.4662429094314575,-0.479834645986557
1702059419246395400,18.5863955078125,2.0176877975463867,-0.3358231782913208,-0.3732386529445648
1702059419263379000,18.60337890625,1.853365182876587,-0.20525072515010834,-0.3013092875480652
1702059419280376300,18.620376220703125,1.6447546482086182,-0.029626963660120964,-0.3078760802745819
1702059419297368800,18.637368896484375,1.5007431507110596,0.14905111491680145,-0.3442225754261017
1702059419314363400,18.65436328125,1.425454020500183,0.1696678251028061,-0.36331209540367126
1702059419331356200,18.671356201171875,1.307709813117981,0.19975294172763824,-0.33368512988090515
1702059419348350500,18.6883505859375,1.212720274925232,0.3061962127685547,-0.2716823220252991
1702059419365344300,18.70534423828125,1.1432342529296875,0.45005497336387634,-0.21471913158893585
1702059419382339000,18.722339111328125,1.1186469793319702,0.5299255847930908,-0.16584990918636322
1702059419399331800,18.739331787109375,1.0877982378005981,0.5258022546768188,-0.12003502249717712
1702059419416326000,18.756325927734373,1.0190759897232056,0.41340306401252747,-0.07299839705228806
1702059419433320000,18.77331982421875,0.9482156038284302,0.3107776939868927,-0.06017022579908371
1702059419450314800,18.790314697265625,0.9024006724357605,0.26862800121307373,-0.0887281745672226
1702059419467305000,18.807304931640626,0.8626944422721863,0.2730567753314972,-0.1287398487329483
1702059419484304000,18.824303955078125,0.8246681094169617,0.289244681596756,-0.1411098688840866
1702059419501292500,18.84129248046875,0.7635815739631653,0.28130343556404114,-0.11652254313230515
1702059419518289700,18.85828955078125,0.6626361012458801,0.23075434565544128,-0.06429356336593628
1702059419535286300,18.875286376953124,0.5760459303855896,0.20112738013267517,-0.02672535367310047
1702059419552266500,18.8922666015625,0.49006664752960205,0.20005837082862854,-0.009010262787342072
1702059419569270800,18.909270751953127,0.39217549562454224,0.20815233886241913,0.012064588256180286
1702059419586265900,18.926265869140625,0.3066543638706207,0.19975294172763824,0.03451388701796532
1702059419603259600,18.943259765625,0.2200642079114914,0.16691893339157104,0.058948494493961334
1702059419620251600,18.960251708984377,0.14966198801994324,0.11636982858181,0.07651086896657944
1702059419637246500,18.97724658203125,0.1212567538022995,0.09498954564332962,0.08796459436416626
1702059419654241500,18.994241455078125,0.10965031385421753,0.09315694868564606,0.098502017557621
1702059419671234300,19.011234375,0.1010981947183609,0.0754418596625328,0.10155634582042694
1702059419688226300,19.028226318359376,0.07987063378095627,0.08720101416110992,0.07941248267889023
1702059419705224000,19.045223876953123,0.055894169956445694,0.09407325088977814,0.04077525436878204
1702059419722202600,19.06220263671875,0.02932153269648552,0.09911288321018219,0.008246680721640587
1702059419739207200,19.079207275390626,0.02015855349600315,0.07437284290790558,0.0074830991216003895
1702059419756206300,19.096206298828125,0.020616702735424042,0.05360342562198639,0.0328340083360672
1702059419773197600,19.113197509765627,0.023518312722444534,0.049785517156124115,0.05451972410082817
1702059419790192600,19.130192626953125,0.012522737495601177,0.06688974797725677,0.058337632566690445
1702059419807185700,19.147185546875,-0.020311269909143448,0.07712173461914062,0.04856378585100174
1702059419824179500,19.164179443359377,-0.04764748737215996,0.06368270516395569,0.03634648025035858
1702059419841173200,19.18117333984375,-0.048258353024721146,0.05253441259264946,0.018478672951459885
1702059419858164700,19.198164794921876,-0.04612032696604729,0.036193765699863434,0.007788531947880983
1702059419875164000,19.215163818359375,-0.05360342562198639,0.020005837082862854,0.007635815534740686
1702059419892155000,19.23215478515625,-0.08277224004268646,-0.0039706239476799965,0.013744467869400978
1702059419909144300,19.249144287109374,-0.11499538272619247,-0.008399397134780884,0.001832595793530345
1702059419926141200,19.26614111328125,-0.13530665636062622,-0.005955935921519995,-0.021991148591041565
1702059419943139000,19.28313916015625,-0.14523321390151978,-0.015271631069481373,-0.03390302136540413
1702059419960130600,19.300130615234377,-0.17547103762626648,-0.022602014243602753,-0.019547687843441963
1702059419977124600,19.31712451171875,-0.2382374405860901,-0.06918048858642578,0.025656340643763542
1702059419994106600,19.334106689453126,-0.3306308090686798,-0.10735956579446793,0.06841690838336945
1702059420011115500,19.351115478515624,-0.44104471802711487,-0.10201449692249298,0.07941248267889023
1702059420028106000,19.36810595703125,-0.5390886068344116,-0.11850785464048386,0.07299839705228806
1702059420045100000,19.38510009765625,-0.6372851729393005,-0.13607023656368256,0.07284568250179291
1702059420062094800,19.4020947265625,-0.7586946487426758,-0.17928895354270935,0.11774427443742752
1702059420079087900,19.419087890625,-0.9344711303710938,-0.22296582162380219,0.1849394589662552
1702059420096081700,19.43608154296875,-1.129489779472351,-0.30772337317466736,0.21471913158893585
1702059420113065200,19.453065185546876,-1.2855658531188965,-0.36422839760780334,0.20586158335208893
1702059420130069200,19.4700693359375,-1.4424055814743042,-0.3727805018424988,0.22540926933288574
1702059420147064600,19.487064697265627,-1.578781247138977,-0.3237585723400116,0.2782491147518158
1702059420164057300,19.504057373046876,-1.7424931526184082,-0.3029891550540924,0.3550654351711273
1702059420181051100,19.521051025390626,-1.9188804626464844,-0.294895201921463,0.4164573848247528
1702059420198046200,19.538046142578125,-2.1010711193084717,-0.2863430976867676,0.4775438904762268
1702059420215039000,19.5550390625,-2.2676844596862793,-0.28328874707221985,0.5384777188301086
1702059420232032800,19.57203271484375,-2.425898551940918,-0.2825251817703247,0.5974262356758118
1702059420249026800,19.58902685546875,-2.560136318206787,-0.23777928948402405,0.6417139172554016
1702059420266021600,19.606021728515625,-2.6647469997406006,-0.23075434565544128,0.6687447428703308
1702059420283014700,19.6230146484375,-2.7510316371917725,-0.2747366428375244,0.6940956115722656
1702059420300008400,19.640008544921876,-2.8382327556610107,-0.318566232919693,0.7273877859115601
1702059420317002200,19.657002197265626,-2.972623109817505,-0.3594942092895508,0.7683157324790955
1702059420333997300,19.673997314453125,-3.141221761703491,-0.3449861407279968,0.8373435139656067
1702059420350990000,19.690989990234375,-3.2647693157196045,-0.26282477378845215,0.903164267539978
1702059420367983900,19.70798388671875,-3.3481523990631104,-0.18768835067749023,0.959669291973114
1702059420384977200,19.72497705078125,-3.3479998111724854,-0.0913243517279625,0.9821186065673828
1702059420401973800,19.741973876953125,-3.234989643096924,-0.09407325088977814,0.9439395070075989
1702059420418965500,19.758965576171875,-3.0436360836029053,-0.20830504596233368,0.8600982427597046
1702059420435959600,19.77595947265625,-2.8437304496765137,-0.3043636083602905,0.7695375084877014
1702059420452953900,19.792953857421875,-2.6729936599731445,-0.3032945990562439,0.7031059265136719
1702059420469948700,19.80994873046875,-2.5105035305023193,-0.2817615866661072,0.6611089110374451
1702059420486941200,19.826941162109375,-2.3470969200134277,-0.24617868661880493,0.6183483600616455
1702059420503935200,19.843935302734376,-2.1844542026519775,-0.16340644657611847,0.5355761051177979
1702059420520929000,19.860928955078126,-2.0253236293792725,-0.0708603709936142,0.41370847821235657
1702059420537924000,19.877924072265625,-1.9343048334121704,-0.0754418596625328,0.30283644795417786
1702059420554916900,19.894916748046874,-1.8993327617645264,-0.08964447677135468,0.25763240456581116
1702059420571911700,19.91191162109375,-1.9201022386550903,-0.12003502249717712,0.3052799105644226
1702059420588908300,19.928908203125,-1.9750800132751465,-0.16111570596694946,0.4205807149410248
1702059420605900000,19.945900146484377,-2.0453295707702637,-0.2119702398777008,0.526107668876648
1702059420622892500,19.962892578125,-2.091144561767578,-0.18845193088054657,0.5335907936096191
1702059420639886300,19.97988623046875,-2.0502164363861084,-0.09804387390613556,0.46181413531303406
1702059420656880400,19.99688037109375,-1.9541579484939575,-0.045204028487205505,0.3764457106590271
1702059420673875200,20.013875244140625,-1.8113682270050049,-0.027030786499381065,0.27977627515792847
1702059420690868000,20.030867919921874,-1.5871806144714355,0.012828170321881771,0.1560760736465454
1702059420707862000,20.047862060546876,-1.2580770254135132,0.06108652427792549,0.08735372871160507
1702059420724855800,20.064855712890626,-1.0332785844802856,-0.05696318298578262,0.18387043476104736
1702059420741851000,20.081850830078125,-1.098793864250183,-0.17409659922122955,0.29657506942749023
1702059420758849800,20.098849853515624,-1.2860240936279297,-0.16569720208644867,0.3723223805427551
1702059420775838000,20.115837890625,-1.3771957159042358,-0.13148874044418335,0.3715587854385376
1702059420792831500,20.13283154296875,-1.2959506511688232,-0.11056660860776901,0.2557998299598694
1702059420809822000,20.149822021484376,-1.120632290840149,-0.17058411240577698,0.09865473955869675
1702059420826816800,20.166816650390626,-0.9957103729248047,-0.23518311977386475,-0.006261368747800589
1702059420843819800,20.18381982421875,-1.0270172357559204,-0.2834414839744568,0.009468411095440388
1702059420860807200,20.20080712890625,-1.1609493494033813,-0.19547687470912933,0.11056660860776901
1702059420877802000,20.217802001953125,-1.2663236856460571,-0.06230825558304787,0.18784105777740479
1702059420894794800,20.234794677734374,-1.2800681591033936,-0.05665775015950203,0.21868975460529327
1702059420911788800,20.251788818359376,-1.2064588069915771,-0.1417207419872284,0.20372356474399567
1702059420928782600,20.268782470703126,-1.0778716802597046,-0.17088955640792847,0.166460782289505
1702059420945777700,20.285777587890625,-0.9920451641082764,-0.10491610318422318,0.14446963369846344
1702059420962770200,20.302770263671874,-0.984867513179779,-0.016035212203860283,0.1518000066280365
1702059420979764000,20.319763916015624,-0.9960157871246338,0.032681290060281754,0.1644754707813263
1702059420996755500,20.33675537109375,-0.9599747061729431,0.039248090237379074,0.14248432219028473
1702059421013753000,20.353753173828125,-0.8881980776786804,0.01114829070866108,0.11560624837875366
1702059421030745900,20.370745849609374,-0.8310821652412415,-0.02321287989616394,0.12110403180122375
1702059421047728000,20.38772802734375,-0.8440630435943604,-0.05451972410082817,0.13607023656368256
1702059421064733700,20.404733642578126,-0.8663596510887146,-0.06872233748435974,0.13240504264831543
1702059421081728800,20.421728759765625,-0.8684976696968079,-0.058337632566690445,0.13377949595451355
1702059421098721500,20.438721435546874,-0.8651378750801086,-0.02687807008624077,0.17012597620487213
1702059421115715600,20.455715576171876,-0.8300131559371948,-0.012064588256180286,0.20433442294597626
1702059421132709400,20.47270947265625,-0.779464066028595,-0.015577063895761967,0.20784689486026764
1702059421149704200,20.4897041015625,-0.7771732807159424,-0.05925392732024193,0.17241671681404114
1702059421166697200,20.506697265625,-0.7973318696022034,-0.10583240538835526,0.14706580340862274
1702059421183691300,20.523691162109376,-0.8104654550552368,-0.11438451707363129,0.13759739696979523
1702059421200682000,20.540681884765625,-0.8147414922714233,-0.11530081182718277,0.14706580340862274
1702059421217683000,20.557682861328125,-0.8084801435470581,-0.11194105446338654,0.16004669666290283
1702059421234662100,20.574662109375,-0.759305477142334,-0.06643159687519073,0.16554448008537292
1702059421251666700,20.591666748046876,-0.6994407176971436,-0.04612032696604729,0.16737708449363708
1702059421268660500,20.608660400390626,-0.665232241153717,-0.06185010448098183,0.15577064454555511
1702059421285655600,20.625655517578124,-0.6585127115249634,-0.06979135423898697,0.12980885803699493
1702059421302648300,20.6426484375,-0.5693264007568359,-0.04108068719506264,0.07208210229873657
1702059421319636200,20.65963623046875,-0.4358523488044739,0.007941247895359993,0.03787364438176155
1702059421336641300,20.676641357421875,-0.32788193225860596,0.02428189292550087,0.04535674303770065
1702059421353631000,20.693630859375,-0.28725937008857727,0.010842857882380486,0.07070764899253845
1702059421370624000,20.7106240234375,-0.3029891550540924,0.032681290060281754,0.10018189996480942
1702059421387617800,20.72761767578125,-0.30604347586631775,0.07299839705228806,0.0959058403968811
1702059421404609300,20.744609375,-0.25106561183929443,0.08338310569524765,0.047189339995384216
1702059421421609200,20.761609130859377,-0.16081027686595917,0.08338310569524765,-0.01771509274840355
1702059421438595000,20.778594970703125,-0.12140946835279465,0.08277224004268646,-0.039248090237379074
1702059421455590700,20.795590576171875,-0.14874568581581116,0.06734789162874222,-0.01664607785642147
1702059421472590000,20.812590087890626,-0.21380282938480377,0.07666359096765518,0.009773843921720982
1702059421489582300,20.829582275390624,-0.2548835277557373,0.12018773704767227,0.020311269909143448
1702059421506575400,20.846575439453126,-0.23777928948402405,0.14324790239334106,0.01970040425658226
