time,seconds_elapsed,z,y,x
1702060442720888300,0.062888427734375,0.5691736936569214,-1.5774067640304565,0.5502368807792664
1702060442737876500,0.07987646484375,0.6133087277412415,-3.088229179382324,0.3637702465057373
1702060442754876700,0.096876708984375,0.5177083015441895,-4.540408611297607,0.19165897369384766
1702060442771875600,0.11387548828125,0.5923865437507629,-5.780923366546631,0.18967366218566895
1702060442788864800,0.13086474609375,0.24785856902599335,-4.221842288970947,0.0074830991216003895
1702060442805862700,0.147862548828125,0.1843285858631134,-1.6161967515945435,0.05009094998240471
1702060442822852400,0.164852294921875,0.3323107063770294,1.5796974897384644,-0.016951510682702065
1702060442839848400,0.181848388671875,0.4482223689556122,3.983604907989502,0.08002334833145142
1702060442856844800,0.1988447265625,0.3436116874217987,4.460079669952393,0.5535966157913208
1702060442873834200,0.215834228515625,0.23228150606155396,2.939330816268921,1.3130548000335693
1702060442890832100,0.23283203125,0.6801984310150146,0.5433646440505981,2.3351850509643555
1702060442907825200,0.2498251953125,1.1406381130218506,-1.4776830673217773,2.5450172424316406
1702060442924813800,0.266813720703125,0.8964447379112244,-2.923142910003662,1.550681471824646
1702060442941813800,0.283813720703125,1.0542006492614746,-1.7006487846374512,1.1239920854568481
1702060442958797300,0.30079736328125,0.9008735418319702,-1.177748203277588,0.8165740966796875
1702060442975803000,0.317802978515625,0.3943135142326355,-1.3185526132583618,0.9306532144546509
1702060442992793300,0.33479345703125,-0.23350323736667633,-2.0752620697021484,1.357953429222107
1702060443009789400,0.35178955078125,-0.547182559967041,-3.4600934982299805,1.8017470836639404
1702060443026783200,0.368783203125,-0.9271407127380371,-4.843245029449463,2.1930062770843506
1702060443043777800,0.38577783203125,-1.376279354095459,-6.115524768829346,2.577087640762329
1702060443060771000,0.40277099609375,-1.6279559135437012,-6.434854507446289,3.232088088989258
1702060443077766000,0.419765869140625,-1.8568776845932007,-5.64531135559082,3.596163749694824
1702060443094755800,0.436755859375,-2.4388794898986816,-4.620890140533447,3.063030958175659
1702060443111758000,0.453758056640625,-2.289522886276245,-4.232838153839111,2.6474900245666504
1702060443128738800,0.47073876953125,-1.858099341392517,-3.671452760696411,2.28937029838562
1702060443145741600,0.487741455078125,-1.724014401435852,-3.0892982482910156,1.824654459953308
1702060443162737200,0.504737060546875,-1.5349516868591309,-2.054797887802124,1.6142114400863647
1702060443179730700,0.521730712890625,-1.4202617406845093,-1.2090550661087036,1.4729487895965576
1702060443196726800,0.538726806640625,-1.2292135953903198,-1.0196868181228638,1.2211196422576904
1702060443213716500,0.555716552734375,-0.9363036751747131,-1.3197743892669678,0.7913759350776672
1702060443230715000,0.57271484375,-0.8953757286071777,-2.3237314224243164,1.1621711254119873
1702060443247704600,0.58970458984375,-1.063821792602539,-2.059837579727173,0.9867000579833984
1702060443264701700,0.60670166015625,-0.7866417169570923,-0.9111055135726929,0.9173668622970581
1702060443281697500,0.623697509765625,-0.6024658679962158,-0.697760820388794,0.9285151958465576
1702060443298689800,0.640689697265625,-0.5004513263702393,-0.9338602423667908,0.4358523488044739
1702060443315683800,0.657683837890625,-0.26190847158432007,-0.6540839672088623,-0.14477506279945374
1702060443332676900,0.6746767578125,-0.06322455406188965,-0.3799581825733185,-0.266642689704895
1702060443349681200,0.69168115234375,0.05803219974040985,-0.24190263450145721,-0.2649627923965454
1702060443366665200,0.708665283203125,-0.08964447677135468,-0.1918116807937622,-0.3214678466320038
1702060443383659500,0.725659423828125,-0.2252565622329712,-0.304669052362442,-0.4996877610683441
1702060443400655600,0.742655517578125,-0.2684752643108368,-0.3874412775039673,-0.37079519033432007
1702060443417648000,0.759648193359375,-0.23655757308006287,-0.2863430976867676,0.09666942805051804
1702060443434640400,0.776640380859375,-0.23197607696056366,-0.361174076795578,0.44455718994140625
1702060443451637500,0.793637451171875,-0.3179553747177124,-0.4297437071800232,0.5022839307785034
1702060443468631800,0.8106318359375,-0.4639521539211273,-0.4415028691291809,0.34437528252601624
1702060443485626600,0.827626708984375,-0.49266281723976135,0.48166725039482117,-0.057879481464624405
1702060443502616800,0.844616943359375,-0.318566232919693,-0.26939156651496887,-0.27458393573760986
1702060443519612700,0.86161279296875,-0.32559117674827576,-0.1215621829032898,-0.13118331134319305
1702060443536608800,0.87860888671875,-0.38759398460388184,0.1134682223200798,-0.0806342139840126
1702060443553598500,0.895598388671875,-0.4889976382255554,0.06719517707824707,-0.12140946835279465
1702060443570595600,0.912595703125,-0.5477933883666992,0.0656680166721344,-0.18860463798046112
1702060443587590700,0.929590576171875,-0.5739079117774963,0.17104226350784302,-0.24984388053417206
1702060443604581600,0.94658154296875,-0.5331326723098755,0.2561052441596985,-0.30711251497268677
1702060443621578200,0.963578125,-0.6053674817085266,0.007177666760981083,-0.2935207486152649
1702060443638571800,0.98057177734375,-0.7339546084403992,-0.01970040425658226,-0.2015855312347412
1702060443655567400,0.9975673828125,-0.8717046976089478,0.07635815441608429,-0.08292495459318161
1702060443672558000,1.01455810546875,-0.9853256344795227,0.010842857882380486,-0.03634648025035858
1702060443689553700,1.0315537109375,-1.1119275093078613,-0.053297992795705795,0.006719517521560192
1702060443706550000,1.048550048828125,-1.231046199798584,-0.1088867336511612,-0.00045814894838258624
1702060443723549700,1.0655498046875,-1.3720033168792725,-0.08017606288194656,0.039706241339445114
1702060443740536600,1.08253662109375,-1.51158607006073,-0.012675453908741474,0.12950342893600464
1702060443757531600,1.09953173828125,-1.6375770568847656,-0.04398229718208313,0.182648703455925
1702060443774522400,1.1165224609375,-1.785559058189392,-0.1736384481191635,0.18875735998153687
1702060443791519000,1.13351904296875,-1.9234619140625,-0.2834414839744568,0.24892759323120117
1702060443808513000,1.150512939453125,-2.0833559036254883,-0.3016147017478943,0.32268956303596497
1702060443825508600,1.167508544921875,-2.2435553073883057,-0.26801711320877075,0.3413209617137909
1702060443842498600,1.18449853515625,-2.336406946182251,-0.2064724564552307,0.31230485439300537
1702060443859495200,1.2014951171875,-2.4017693996429443,-0.1976149082183838,0.2915354371070862
1702060443876491000,1.218490966796875,-2.4775166511535645,-0.26710084080696106,0.24526239931583405
1702060443893480700,1.235480712890625,-2.484083414077759,-0.3254384696483612,0.2330450862646103
1702060443910477600,1.2524775390625,-2.4295637607574463,-0.26374107599258423,0.32681289315223694
1702060443927470600,1.269470703125,-2.3657283782958984,-0.19608774781227112,0.38576140999794006
1702060443944466000,1.2864658203125,-2.3150265216827393,-0.17272214591503143,0.342695415019989
1702060443961451500,1.303451416015625,-2.2937989234924316,-0.13561208546161652,0.30711251497268677
1702060443978454000,1.3204541015625,-2.323273181915283,-0.11545353382825851,0.3695734739303589
1702060443995449000,1.337448974609375,-2.345264434814453,-0.19226983189582825,0.4308127164840698
1702060444012433700,1.35443359375,-2.2937989234924316,-0.2591595947742462,0.4524984359741211
1702060444029434000,1.37143408203125,-2.1841487884521484,-0.24358251690864563,0.4662429094314575
1702060444046433800,1.388433837890625,-2.0838141441345215,-0.21624629199504852,0.4996877610683441
1702060444063421700,1.405421630859375,-1.9675970077514648,-0.17959438264369965,0.5057964324951172
1702060444080415200,1.422415283203125,-1.8463401794433594,-0.17073683440685272,0.4190535545349121
1702060444097417200,1.439417236328125,-1.7566957473754883,-0.17730364203453064,0.3061962127685547
1702060444114404400,1.456404296875,-1.728137731552124,-0.20525072515010834,0.2353358417749405
1702060444131401200,1.473401123046875,-1.7212655544281006,-0.2612976133823395,0.22311852872371674
1702060444148395000,1.49039501953125,-1.711338996887207,-0.2727513313293457,0.23075434565544128
1702060444165379300,1.50737939453125,-1.6430747509002686,-0.22098049521446228,0.2330450862646103
1702060444182380800,1.524380859375,-1.4669928550720215,-0.17241671681404114,0.21594086289405823
1702060444199377000,1.541376953125,-1.330464482307434,-0.1840231567621231,0.166460782289505
1702060444216362800,1.55836279296875,-1.314734697341919,-0.23808473348617554,0.18768835067749023
1702060444233360100,1.575360107421875,-1.3657419681549072,-0.2616030275821686,0.3179553747177124
1702060444250362000,1.592362060546875,-1.4379768371582031,-0.29107728600502014,0.42928555607795715
1702060444267355000,1.60935498046875,-1.4946345090866089,-0.3248275816440582,0.46211954951286316
1702060444284345600,1.626345703125,-1.4912748336791992,-0.32131510972976685,0.4222606122493744
1702060444301340000,1.64333984375,-1.468672752380371,-0.3052799105644226,0.32299500703811646
1702060444318338800,1.6603388671875,-1.4114041328430176,-0.2561052441596985,0.25182920694351196
1702060444335331600,1.67733154296875,-1.338405728340149,-0.2145664244890213,0.23289237916469574
1702060444352322000,1.694322021484375,-1.2971723079681396,-0.22143864631652832,0.2324342280626297
1702060444369318100,1.711318115234375,-1.2822061777114868,-0.25076019763946533,0.2246456891298294
1702060444386314500,1.728314453125,-1.2701416015625,-0.29397889971733093,0.21090123057365417
1702060444403303700,1.7453037109375,-1.1607966423034668,-0.2577851414680481,0.1765400618314743
1702060444420300800,1.76230078125,-1.0816895961761475,-0.21090123057365417,0.03527746722102165
1702060444437295900,1.7792958984375,-1.1059715747833252,-0.1966986060142517,-0.0555887371301651
1702060444454286600,1.79628662109375,-1.1707231998443604,-0.22968533635139465,0.008246680721640587
1702060444471273200,1.813273193359375,-1.216843605041504,-0.26572638750076294,0.0933096632361412
1702060444488277200,1.83027734375,-1.200197458267212,-0.27488934993743896,0.15500704944133759
1702060444505272600,1.8472724609375,-1.0934487581253052,-0.24159720540046692,0.16920967400074005
1702060444522263000,1.864262939453125,-0.9150761365890503,-0.20066922903060913,0.13179416954517365
1702060444539259100,1.881259033203125,-0.749531626701355,-0.1417207419872284,0.022449297830462456
1702060444556269300,1.898269287109375,-0.6632469296455383,-0.08445212244987488,-0.05253441259264946
1702060444573242400,1.915242431640625,-0.59803706407547,-0.06948592513799667,-0.032070424407720566
1702060444590244400,1.932244384765625,-0.6085745096206665,-0.07223481684923172,0.027947084978222847
1702060444607237000,1.949237060546875,-0.6682865619659424,-0.04245513305068016,0.08292495459318161
1702060444624223500,1.966223388671875,-0.6817256212234497,-0.001679879380390048,0.1258382350206375
1702060444641230300,1.983230224609375,-0.6429356932640076,0.01771509274840355,0.1417207419872284
1702060444658227700,2.000227783203125,-0.5537493228912354,-0.01863138936460018,0.12751811742782593
1702060444675203600,2.01720361328125,-0.46013423800468445,-0.07681630551815033,0.06261368840932846
1702060444692201200,2.034201171875,-0.42531493306159973,-0.11499538272619247,-0.0012217304902151227
1702060444709199400,2.051199462890625,-0.4251621961593628,-0.14569136500358582,-0.005345070734620094
1702060444726196200,2.0681962890625,-0.43539419770240784,-0.1463022232055664,0.04184427112340927
1702060444743189500,2.085189453125,-0.44425174593925476,-0.1365283876657486,0.08399397134780884
1702060444760188400,2.1021884765625,-0.44318273663520813,-0.13316862285137177,0.07299839705228806
1702060444777179000,2.119178955078125,-0.41599923372268677,-0.15485434234142303,0.0012217304902151227
1702060444794161700,2.13616162109375,-0.3660610020160675,-0.12690725922584534,-0.010079276748001575
1702060444811165400,2.15316552734375,-0.3623957931995392,-0.08811730891466141,0.021380282938480377
1702060444828159500,2.170159423828125,-0.3738495409488678,-0.06688974797725677,0.02367102913558483
1702060444845154800,2.18715478515625,-0.3625485301017761,-0.06475171446800232,0.004886921960860491
1702060444862142700,2.204142822265625,-0.3349068760871887,-0.060475658625364304,-0.02428189292550087
1702060444879144000,2.22114404296875,-0.27977627515792847,-0.05115996301174164,0.007635815534740686
1702060444896137500,2.238137451171875,-0.21181751787662506,-0.041691552847623825,0.014202617108821869
1702060444913127000,2.255126953125,-0.19074267148971558,-0.03848451003432274,0.001832595793530345
1702060444930124300,2.272124267578125,-0.22296582162380219,-0.04993823543190956,-0.01618792861700058
1702060444947119400,2.289119384765625,-0.25564709305763245,-0.05757404863834381,-0.03329215571284294
1702060444964109800,2.30610986328125,-0.25366178154945374,-0.03787364438176155,-0.008704829961061478
1702060444981106700,2.323106689453125,-0.23090706765651703,-0.01664607785642147,0.03222314268350601
1702060444998098700,2.3400986328125,-0.17989981174468994,0.015271631069481373,0.030237829312682152
1702060445015096000,2.357095947265625,-0.10125091671943665,0.02977968007326126,0.00931569468230009
1702060445032087300,2.37408740234375,-0.024587325751781464,0.03145955875515938,-0.02382374368607998
1702060445049082400,2.391082275390625,-0.02977968007326126,-0.01542434748262167,-0.03680463135242462
1702060445066078500,2.408078369140625,-0.09178250283002853,-0.08765916526317596,-0.053297992795705795
1702060445083068200,2.425068115234375,-0.13820825517177582,-0.10461067408323288,-0.03878994286060333
1702060445100062200,2.442062255859375,-0.1443169116973877,-0.07498370856046677,0.019547687843441963
1702060445117066800,2.459066650390625,-0.194713294506073,-0.06765332818031311,0.06918048858642578
1702060445134047700,2.4760478515625,-0.2571742534637451,-0.08185594528913498,0.07376197725534439
1702060445151048400,2.49304833984375,-0.29168814420700073,-0.07208210229873657,0.030085112899541855
1702060445168040700,2.510040771484375,-0.244804248213768,-0.05955936014652252,0.013286318629980087
1702060445185037000,2.527037109375,-0.14004085958003998,-0.06169738993048668,-0.014355333521962166
1702060445202027500,2.544027587890625,-0.03420845419168472,-0.07269296050071716,-0.07009678333997726
1702060445219023600,2.561023681640625,0.05742133408784866,-0.05650503560900688,-0.05207626149058342
1702060445236019700,2.578019775390625,0.07101308554410934,-0.01038470957428217,0.025503624230623245
1702060445253009200,2.595009033203125,0.0012217304902151227,-0.04352414980530739,0.05619960278272629
1702060445270006300,2.61200634765625,-0.08399397134780884,-0.1362229436635971,0.04153883829712868
1702060445286998800,2.628998779296875,-0.07483099400997162,-0.20799961686134338,-0.02367102913558483
1702060445303994400,2.645994384765625,0.01038470957428217,-0.1992947906255722,-0.09453139454126358
1702060445320989000,2.662989013671875,0.0757472887635231,-0.1408044397830963,-0.13973543047904968
1702060445337971500,2.679971435546875,0.09208793938159943,-0.05955936014652252,-0.1036943718791008
1702060445354979300,2.696979248046875,0.08750644326210022,-0.01114829070866108,-0.008857546374201775
1702060445371970600,2.713970458984375,0.05054909735918045,-0.009773843921720982,0.028099801391363144
1702060445388961000,2.7309609375,0.004886921960860491,-0.054825156927108765,-0.001527163083665073
1702060445405961000,2.7479609375,-0.024892758578062057,-0.05925392732024193,-0.046731192618608475
1702060445422952000,2.764951904296875,-0.018478672951459885,-0.024587325751781464,-0.056810468435287476
1702060445439949000,2.781948974609375,-0.024892758578062057,-0.0022907445672899485,-0.03344487398862839
1702060445456941000,2.798941162109375,-0.029168816283345222,0.00931569468230009,0.02871066704392433
1702060445473932000,2.81593212890625,-0.05314527451992035,-0.007788531947880983,0.08460483700037003
1702060445490929200,2.83292919921875,-0.03298672288656235,-0.024129176512360573,0.08384125679731369
1702060445507923500,2.84992333984375,0.024129176512360573,-0.027488935738801956,0.026114489883184433
1702060445524929300,2.86692919921875,0.08124507963657379,0.0064140851609408855,0.007024950347840786
1702060445541910000,2.883909912109375,0.09560041129589081,0.003054326167330146,0.029626963660120964
1702060445558904300,2.900904296875,0.09728029370307922,-0.009010262787342072,0.0507018156349659
1702060445575899600,2.917899658203125,0.1420261710882187,-0.0913243517279625,0.016798794269561768
1702060445592891400,2.934891357421875,0.21700987219810486,-0.15424346923828125,-0.04566217586398125
1702060445609886200,2.95188623046875,0.289244681596756,-0.15225815773010254,-0.07238753139972687
1702060445626882600,2.968882568359375,0.34773504734039307,-0.07864890247583389,-0.03695734590291977
1702060445643876000,2.9858759765625,0.4075998365879059,-0.029626963660120964,-0.0012217304902151227
1702060445660872700,3.002872802734375,0.4518875777721405,-0.06169738993048668,-0.0024434609804302454
1702060445677866500,3.019866455078125,0.5305364727973938,-0.12064588814973831,-0.031001411378383636
1702060445694856200,3.036856201171875,0.6817256212234497,-0.1319468915462494,-0.05009094998240471
1702060445711841300,3.05384130859375,0.8788823485374451,-0.06414084881544113,-0.06627888232469559
1702060445728851200,3.070851318359375,1.0876455307006836,0.022143865004181862,-0.08307767659425735
1702060445745840400,3.08784033203125,1.2489140033721924,0.0503963828086853,-0.13439035415649414
1702060445762829800,3.104829833984375,1.3193162679672241,0.015118914656341076,-0.17577648162841797
1702060445779832300,3.121832275390625,1.3794864416122437,-0.052381694316864014,-0.18356500566005707
1702060445796824600,3.138824462890625,1.4546228647232056,-0.10018189996480942,-0.16768251359462738
1702060445813815300,3.155815185546875,1.5667166709899902,-0.08979719132184982,-0.152105450630188
1702060445830812200,3.172812255859375,1.7215709686279297,-0.03191770985722542,-0.10033461451530457
1702060445847807000,3.189806884765625,1.8573358058929443,-0.04612032696604729,-0.09560041129589081
1702060445864800500,3.206800537109375,1.94713294506073,-0.0555887371301651,-0.1313360333442688
1702060445881793500,3.22379345703125,2.0473148822784424,0.00733038317412138,-0.05757404863834381
1702060445898790400,3.240790283203125,2.1345160007476807,0.08888089656829834,0.059864792972803116
1702060445915783200,3.257783203125,2.1708624362945557,0.08552113175392151,0.11392636597156525
1702060445932774400,3.2747744140625,2.1792616844177246,0.06459899991750717,0.07406741380691528
1702060445949774000,3.291774169921875,2.2127065658569336,0.0884227454662323,-0.03145955875515938
1702060445966765000,3.30876513671875,2.2682952880859375,0.10277807712554932,-0.18249599635601044
1702060445983760000,3.325759765625,2.3654229640960693,0.10064005106687546,-0.2791654169559479
1702060446000753200,3.342753173828125,2.5031731128692627,0.05711590126156807,-0.2945897579193115
1702060446017748000,3.359748046875,2.641228675842285,-0.0009162978967651725,-0.23900102078914642
1702060446034741500,3.376741455078125,2.713157892227173,0.031001411378383636,-0.09056077152490616
1702060446051736000,3.393736083984375,2.6893341541290283,0.10705413669347763,0.026419922709465027
1702060446068729900,3.410729736328125,2.613434314727783,0.17989981174468994,0.018325956538319588
1702060446085735000,3.42773486328125,2.607630968093872,0.2591595947742462,-0.08292495459318161
1702060446102718000,3.444718017578125,2.696664571762085,0.22479841113090515,-0.2324342280626297
1702060446119710000,3.4617099609375,2.810896396636963,0.11316278576850891,-0.31123584508895874
1702060446136708900,3.478708984375,2.8964176177978516,0.021838432177901268,-0.3052799105644226
1702060446153698000,3.495697998046875,3.0692923069000244,0.2165517359972,-0.16172657907009125
1702060446170697200,3.512697265625,3.162602186203003,0.4294382631778717,-0.0910189226269722
1702060446187689000,3.52968896484375,3.2291862964630127,0.5114469528198242,-0.1612684279680252
1702060446204682800,3.546682861328125,3.3318116664886475,0.521984338760376,-0.2565633952617645
1702060446221677000,3.563677001953125,3.400534152984619,0.40485092997550964,-0.32818734645843506
1702060446238670800,3.5806708984375,3.3622024059295654,0.2695443034172058,-0.41722095012664795
1702060446255665400,3.59766552734375,3.212998390197754,0.3361285924911499,-0.38117989897727966
1702060446272659200,3.6146591796875,3.037527322769165,0.46792277693748474,-0.2148718535900116
1702060446289653800,3.63165380859375,2.9941558837890625,0.49296826124191284,-0.1495092660188675
1702060446306647600,3.6486474609375,3.120757818222046,0.4492913782596588,-0.24388794600963593
1702060446323641900,3.665641845703125,3.269198179244995,0.35262197256088257,-0.3956879675388336
1702060446340625400,3.68262548828125,3.257744312286377,0.38408151268959045,-0.37308594584465027
1702060446357620000,3.699619873046875,3.042414426803589,0.451582133769989,-0.2926044464111328
1702060446374624300,3.716624267578125,2.7731754779815674,0.37308594584465027,-0.22159136831760406
1702060446391621400,3.733621337890625,2.665968656539917,0.2611449062824249,-0.156686931848526
1702060446408609500,3.750609619140625,2.7046058177948,0.23105977475643158,-0.10384709388017654
1702060446425609000,3.76760888671875,2.7620272636413574,0.32009339332580566,-0.20051652193069458
1702060446442600200,3.78460009765625,2.683378219604492,0.47907108068466187,-0.18524488806724548
1702060446459584300,3.801584228515625,2.4805710315704346,0.36422839760780334,-0.1621847152709961
1702060446476588300,3.81858837890625,2.239279270172119,0.16065755486488342,-0.19654589891433716
1702060446493582800,3.835582763671875,2.1183278560638428,0.05757404863834381,-0.3263547718524933
1702060446510574000,3.852573974609375,2.040595293045044,0.1440114825963974,-0.3692680299282074
1702060446527573800,3.86957373046875,1.9310977458953857,0.25854870676994324,-0.29336804151535034
1702060446544564700,3.886564697265625,1.7256942987442017,0.24373523890972137,-0.2611449062824249
1702060446561559300,3.903559326171875,1.4824172258377075,0.1469130963087082,-0.2919935882091522
1702060446578552000,3.920552001953125,1.350928544998169,0.016951510682702065,-0.3127630054950714
1702060446595549000,3.937548828125,1.2681562900543213,-0.06780604273080826,-0.31871894001960754
1702060446612539600,3.95453955078125,1.22279953956604,-0.0832303911447525,-0.32009339332580566
1702060446629531400,3.971531494140625,1.1563678979873657,0.046273041516542435,-0.17348572611808777
1702060446646534000,3.988533935546875,1.0474811792373657,0.17638733983039856,-0.009926560334861279
1702060446663524400,4.0055244140625,0.831845760345459,0.18448130786418915,0.04596760869026184
1702060446680517600,4.022517578125,0.6067419052124023,0.13576480746269226,0.06979135423898697
1702060446697512700,4.0395126953125,0.48197266459465027,0.08567385375499725,0.05757404863834381
1702060446714506000,4.056506103515625,0.4309654235839844,0.04703662544488907,0.03390302136540413
1702060446731500500,4.07350048828125,0.4199698567390442,0.07635815441608429,0.055283304303884506
1702060446748494300,4.090494384765625,0.41493022441864014,0.14935655891895294,0.1394299864768982
1702060446765478700,4.107478759765625,0.3643811047077179,0.15546520054340363,0.20891591906547546
1702060446782482200,4.124482177734375,0.24984388053417206,0.08384125679731369,0.22571471333503723
1702060446799476700,4.141476806640625,0.11209376901388168,-0.009162978269159794,0.15851953625679016
1702060446816470500,4.158470458984375,0.0003054326225537807,-0.04306599870324135,0.0403171069920063
1702060446833463600,4.175463623046875,-0.052228979766368866,-0.041233405470848083,-0.06963863968849182
1702060446850458600,4.192458740234375,-0.07101308554410934,-0.010995574295520782,-0.07864890247583389
1702060446867453400,4.209453369140625,-0.058184914290905,0.005955935921519995,0.005192354787141085
1702060446884447000,4.226447021484375,-0.09804387390613556,-0.03130684420466423,0.058184914290905
1702060446901441500,4.243441650390625,-0.16462817788124084,-0.07483099400997162,0.07681630551815033
1702060446918435300,4.260435302734375,-0.21762074530124664,-0.09697485715150833,0.01466076634824276
1702060446935430000,4.277429931640625,-0.25244006514549255,-0.06918048858642578,-0.0679587572813034
1702060446952419000,4.294419189453125,-0.25564709305763245,-0.02015855349600315,-0.09575312584638596
1702060446969422300,4.31142236328125,-0.2557998299598694,-0.0003054326225537807,-0.06505715101957321
1702060446986417700,4.328417724609375,-0.2542726695537567,-0.01878410577774048,-0.011759156361222267
1702060447003406300,4.34540625,-0.251218318939209,-0.03497203439474106,0.02626720629632473
1702060447020399900,4.36239990234375,-0.27840182185173035,-0.060475658625364304,-0.0009162978967651725
1702060447037392000,4.379391845703125,-0.32421672344207764,-0.06918048858642578,-0.0529925599694252
1702060447054390500,4.396390625,-0.3865249752998352,-0.08552113175392151,-0.06948592513799667
1702060447071382500,4.413382568359375,-0.4541783034801483,-0.08643743395805359,-0.007941247895359993
1702060447088376300,4.430376220703125,-0.5146539807319641,-0.05910121276974678,0.0328340083360672
1702060447105360100,4.447360107421875,-0.6177374720573425,-0.03237585723400116,0.04398229718208313
1702060447122364400,4.464364501953125,-0.7672467231750488,-0.08017606288194656,0.015577063895761967
1702060447139359700,4.48135986328125,-0.9379835724830627,-0.10537425428628922,0.030237829312682152
1702060447156341500,4.498341552734375,-1.1166616678237915,-0.13775011897087097,0.05696318298578262
1702060447173354000,4.51535400390625,-1.291369080543518,-0.11575896292924881,0.11270463466644287
1702060447190341000,4.532341064453125,-1.4501941204071045,-0.07742717117071152,0.1365283876657486
1702060447207325200,4.5493251953125,-1.6126842498779297,-0.03237585723400116,0.13026700913906097
1702060447224313000,4.56631298828125,-1.8037323951721191,-0.03588833287358284,0.10186178237199783
1702060447241323800,4.58332373046875,-2.0564777851104736,-0.05772676691412926,0.10674870014190674
1702060447258317600,4.600317626953125,-2.3208298683166504,-0.07070764899253845,0.14446963369846344
1702060447275313400,4.6173134765625,-2.5468499660491943,-0.08811730891466141,0.17867808043956757
1702060447292303000,4.63430322265625,-2.704758644104004,-0.08552113175392151,0.23411411046981812
1702060447309303000,4.651302978515625,-2.802649736404419,-0.025961773470044136,0.3446807265281677
1702060447326296300,4.66829638671875,-2.914438009262085,0.0009162978967651725,0.4245513379573822
1702060447343285800,4.68528564453125,-3.0466904640197754,-0.05604688450694084,0.40485092997550964
1702060447360282000,4.7022822265625,-3.1804699897766113,-0.14569136500358582,0.290313720703125
1702060447377276700,4.719276611328125,-3.313791275024414,-0.15302173793315887,0.2269364446401596
1702060447394270500,4.7362705078125,-3.4524576663970947,-0.09789115190505981,0.3576616048812866
1702060447411264800,4.7532646484375,-3.528357744216919,-0.12064588814973831,0.4834998548030853
1702060447428258300,4.77025830078125,-3.489567756652832,-0.20204368233680725,0.48579058051109314
1702060447445253000,4.787253173828125,-3.355329990386963,-0.23579397797584534,0.4486805200576782
1702060447462244000,4.804244140625,-3.246290683746338,-0.2545780837535858,0.39446622133255005
1702060447479243800,4.821243896484375,-3.1977267265319824,-0.2672535479068756,0.36331209540367126
1702060447496235000,4.838235107421875,-3.1641292572021484,-0.24434609711170197,0.36224308609962463
1702060447513229600,4.8552294921875,-3.1470251083374023,-0.20754146575927734,0.3481931984424591
1702060447530212600,4.872212646484375,-3.0912835597991943,-0.1963931769132614,0.33918291330337524
1702060447547218000,4.889218017578125,-2.9553661346435547,-0.22479841113090515,0.3171917796134949
1702060447564211500,4.90621142578125,-2.7930285930633545,-0.2718350291252136,0.2275473028421402
1702060447581205800,4.923205810546875,-2.660012722015381,-0.30222558975219727,0.1459967941045761
1702060447598199800,4.94019970703125,-2.534479856491089,-0.25182920694351196,0.19257527589797974
1702060447615194000,4.957194091796875,-2.3794727325439453,-0.11759155988693237,0.3246748745441437
1702060447632188000,4.97418798828125,-2.2317962646484375,0.005497787147760391,0.403323769569397
1702060447649189000,4.991189208984375,-2.082897663116455,0.059406645596027374,0.3568980097770691
1702060447666176000,5.008176025390625,-1.934457540512085,0.026114489883184433,0.24892759323120117
1702060447683168000,5.02516796875,-1.8138116598129272,-0.09422596544027328,0.17562375962734222
1702060447700162300,5.042162353515625,-1.7556266784667969,-0.22021691501140594,0.17623461782932281
1702060447717163500,5.05916357421875,-1.7342463731765747,-0.21960605680942535,0.2519819140434265
1702060447734152400,5.07615234375,-1.7050776481628418,-0.09025534242391586,0.2721404731273651
1702060447751147000,5.09314697265625,-1.6157386302947998,0.022449297830462456,0.17516560852527618
1702060447768140500,5.110140625,-1.4538593292236328,0.031001411378383636,0.04260785132646561
1702060447785125400,5.12712548828125,-1.2791517972946167,0.013591751456260681,-0.0032070425804704428
1702060447802129000,5.14412890625,-1.193172574043274,-0.06414084881544113,0.023060163483023643
1702060447819123500,5.16112353515625,-1.1447614431381226,-0.14492778480052948,0.08949175477027893
1702060447836114400,5.178114501953125,-1.0841331481933594,-0.19028452038764954,0.13530665636062622
1702060447853104000,5.195104248046875,-0.8193230032920837,-0.16920967400074005,0.08643743395805359
1702060447870105000,5.21210498046875,-0.42760565876960754,-0.04260785132646561,0.014966198243200779
1702060447887100000,5.229099853515625,-0.3000875413417816,0.03191770985722542,-0.03039054572582245
1702060447904085000,5.2460849609375,-0.5189300179481506,-0.09758572280406952,-0.010842857882380486
1702060447921088000,5.263087890625,-0.8994990587234497,-0.2509129047393799,0.11728613078594208
1702060447938081800,5.280081787109375,-1.1977540254592896,-0.3306308090686798,0.24144448339939117
1702060447955076400,5.297076416015625,-1.3393220901489258,-0.2808452844619751,0.23777928948402405
1702060447972070000,5.31406982421875,-1.3420709371566772,-0.14508049190044403,0.17088955640792847
1702060447989064400,5.331064453125,-1.2263119220733643,-0.06902777403593063,0.12049316614866257
1702060448006058200,5.348058349609375,-1.098488450050354,-0.09254608303308487,0.09010262042284012
1702060448023052800,5.365052734375,-0.941343367099762,-0.11789698898792267,0.06383541971445084
1702060448040046300,5.38204638671875,-0.7883216142654419,-0.13545936346054077,0.020616702735424042
1702060448057041200,5.399041259765625,-0.6713408827781677,-0.10170906037092209,0.01970040425658226
1702060448074034700,5.41603466796875,-0.5958990454673767,-0.06154467165470123,0.024434609338641167
1702060448091032600,5.433032470703125,-0.5940664410591125,-0.01038470957428217,0.016035212203860283
1702060448108023000,5.45002294921875,-0.6269004344940186,0.04108068719506264,0.00931569468230009
1702060448125017300,5.467017333984375,-0.6856962442398071,0.03756821155548096,0.0032070425804704428
1702060448142011000,5.484010986328125,-0.7281513810157776,0.012064588256180286,0.03527746722102165
1702060448159007200,5.50100732421875,-0.7336491346359253,-0.008246680721640587,0.07483099400997162
1702060448175997700,5.517997802734375,-0.717613935470581,-0.0074830991216003895,0.09758572280406952
1702060448192993800,5.534993896484375,-0.6386595964431763,0.012675453908741474,0.10155634582042694
1702060448209987600,5.551987548828125,-0.5343543887138367,0.05406157299876213,0.09025534242391586
1702060448226982100,5.568982177734375,-0.4717406928539276,0.05314527451992035,0.07498370856046677
1702060448243975700,5.5859755859375,-0.46593746542930603,-0.005497787147760391,0.044287730008363724
1702060448260970200,5.60297021484375,-0.4966334402561188,-0.046273041516542435,0.027488935738801956
1702060448277963800,5.6199638671875,-0.5138903856277466,-0.052839845418930054,0.010537425056099892
1702060448294958600,5.63695849609375,-0.5036584138870239,-0.012828170321881771,0.025656340643763542
1702060448311952400,5.653952392578125,-0.4538728892803192,0.021838432177901268,0.03848451003432274
1702060448328947000,5.670947021484375,-0.37568211555480957,0.03634648025035858,0.03848451003432274
1702060448345940500,5.6879404296875,-0.3228422701358795,-0.008246680721640587,-0.008704829961061478
1702060448362917400,5.70491748046875,-0.32559117674827576,-0.03405573591589928,-0.04932736977934837
1702060448379928600,5.721928466796875,-0.33246341347694397,0.007635815534740686,-0.05345070734620094
1702060448396923100,5.738923095703125,-0.35659259557724,0.005345070734620094,-0.05696318298578262
1702060448413917000,5.7559169921875,-0.3859141170978546,-0.034666601568460464,-0.05467243865132332
1702060448430911500,5.772911376953125,-0.35613444447517395,-0.04993823543190956,-0.03237585723400116
1702060448447907600,5.789907470703125,-0.28328874707221985,-0.061391957104206085,-0.01771509274840355
1702060448464895700,5.806895751953125,-0.18768835067749023,-0.06979135423898697,-0.019853120669722557
1702060448481903900,5.82390380859375,-0.1258382350206375,-0.03833179548382759,-0.035124752670526505
1702060448498888000,5.840887939453125,-0.13958270847797394,-0.03741549700498581,-0.06001751124858856
1702060448515881500,5.857881591796875,-0.2171625941991806,-0.03680463135242462,-0.04505131021142006
1702060448532876000,5.8748759765625,-0.2580905556678772,-0.03680463135242462,-0.029626963660120964
1702060448549867300,5.8918671875,-0.2295326143503189,-0.01664607785642147,-0.025045474991202354
1702060448566867000,5.908866943359375,-0.144622340798378,-0.006872233934700489,-0.05253441259264946
1702060448583858000,5.92585791015625,-0.0907134860754013,0.00931569468230009,-0.06398813426494598
1702060448600852500,5.9428525390625,-0.0913243517279625,0.013439035043120384,-0.05925392732024193
1702060448617846000,5.959845947265625,-0.14385876059532166,-0.00015271631127689034,-0.04398229718208313
1702060448634840600,5.976840576171875,-0.206777885556221,0.01771509274840355,-0.01466076634824276
1702060448651834400,5.99383447265625,-0.20815233886241913,0.036651913076639175,-0.004734205547720194
1702060448668829000,6.010828857421875,-0.1621847152709961,0.027641652151942253,-0.004123340360820293
1702060448685822500,6.027822509765625,-0.11316278576850891,0.022602014243602753,-0.00931569468230009
1702060448702817300,6.0448173828125,-0.1108720451593399,0.02474004216492176,-0.022602014243602753
1702060448719810800,6.061810791015625,-0.16065755486488342,0.028405234217643738,-0.015882495790719986
1702060448736805400,6.078805419921875,-0.20143280923366547,0.03130684420466423,-0.00855211354792118
1702060448753808000,6.095807861328125,-0.18524488806724548,0.016798794269561768,-0.029168816283345222
1702060448770791000,6.112791015625,-0.11392636597156525,-0.009468411095440388,-0.04108068719506264
1702060448787789800,6.129789794921875,-0.05513058975338936,-0.010995574295520782,-0.024587325751781464
1702060448804781800,6.14678173828125,-0.03848451003432274,0.03298672288656235,0.031154127791523933
1702060448821772800,6.163772705078125,-0.0455094613134861,0.035124752670526505,0.04764748737215996
1702060448838772500,6.1807724609375,-0.059406645596027374,0.014966198243200779,0.01114829070866108
1702060448855763700,6.197763671875,-0.051312681287527084,-0.01618792861700058,-0.039248090237379074
1702060448872758300,6.21475830078125,-0.01664607785642147,-0.03329215571284294,-0.06261368840932846
1702060448889752000,6.231751953125,0.007941247895359993,-0.02733621932566166,-0.030085112899541855
1702060448906746600,6.24874658203125,-0.010690141469240189,-0.02428189292550087,0.014966198243200779
1702060448923740000,6.265739990234375,-0.05421429127454758,-0.03527746722102165,0.035582900047302246
1702060448940734700,6.282734619140625,-0.07620543986558914,-0.051312681287527084,0.003817907767370343
1702060448957728300,6.299728271484375,-0.0858265683054924,-0.034666601568460464,-0.03344487398862839
1702060448974722800,6.316722900390625,-0.09117163717746735,-0.01710422709584236,-0.035124752670526505
1702060448991714000,6.333714111328125,-0.10399980843067169,-0.024587325751781464,-0.009010262787342072
1702060449008713700,6.350713623046875,-0.1235474944114685,-0.05971207842230797,0.016035212203860283
1702060449025704700,6.36770458984375,-0.12629638612270355,-0.08674286305904388,0.014813481830060482
1702060449042699300,6.38469921875,-0.10919216275215149,-0.06200282275676727,-0.00045814894838258624
1702060449059693000,6.401693115234375,-0.09040805697441101,-0.003817907767370343,0.0024434609804302454
1702060449076687600,6.4186875,-0.07192938029766083,0.01970040425658226,0.01970040425658226
1702060449093681200,6.43568115234375,-0.06994406878948212,-0.005803219974040985,0.022602014243602753
1702060449110675700,6.45267578125,-0.08002334833145142,-0.03649919852614403,0.011453723534941673
1702060449127669500,6.46966943359375,-0.06994406878948212,-0.032528575509786606,-0.0009162978967651725
1702060449144664000,6.4866640625,-0.040622539818286896,-0.020463986322283745,-0.01618792861700058
1702060449161657600,6.50365771484375,0.009926560334861279,0.005803219974040985,-0.0003054326225537807
1702060449178652200,6.520652099609375,0.0403171069920063,0.01191187184303999,0.015118914656341076
1702060449195646000,6.53764599609375,0.047800205647945404,-0.002138028386980295,0.008704829961061478
1702060449212640500,6.554640625,0.038026362657547,-0.010537425056099892,-0.0025961773935705423
1702060449229634000,6.571634033203125,0.017562376335263252,-0.016951510682702065,-0.03756821155548096
1702060449246625000,6.588625,-0.0010690141934901476,-0.012675453908741474,-0.042760565876960754
1702060449263626000,6.6056259765625,-0.005345070734620094,-0.01114829070866108,-0.02275473065674305
1702060449280617000,6.622616943359375,-0.014049900695681572,-0.0022907445672899485,0.012217304669320583
1702060449297610500,6.639610595703125,-0.010842857882380486,0.015577063895761967,0.03405573591589928
1702060449314605000,6.65660498046875,0.0029016099870204926,0.02428189292550087,0.02122756652534008
1702060449331598600,6.6735986328125,0.02474004216492176,0.022602014243602753,-0.013439035043120384
1702060449348592600,6.690592529296875,0.04535674303770065,-0.00015271631127689034,-0.026419922709465027
1702060449365587700,6.707587646484375,0.05406157299876213,-0.016493361443281174,-0.014202617108821869
1702060449382581500,6.72458154296875,0.08124507963657379,-0.00015271631127689034,0.018325956538319588
1702060449399583200,6.741583251953125,0.1235474944114685,0.017562376335263252,0.02733621932566166
1702060449416569900,6.75856982421875,0.17012597620487213,0.03145955875515938,0.011759156361222267
1702060449433563400,6.7755634765625,0.20234911143779755,0.010995574295520782,-0.016493361443281174
1702060449450547500,6.79254736328125,0.2428189367055893,-0.008857546374201775,-0.014813481830060482
1702060449467552300,6.80955224609375,0.2993239760398865,-0.028405234217643738,-0.014813481830060482
1702060449484546300,6.82654638671875,0.37858372926712036,-0.023518312722444534,-0.015577063895761967
1702060449501539800,6.843539794921875,0.4954117238521576,-0.006108652334660292,-0.008399397134780884
1702060449518534400,6.860534423828125,0.6470590233802795,-0.0039706239476799965,0.021532999351620674
1702060449535528000,6.87752783203125,0.827722430229187,0.003359758760780096,0.044745877385139465
1702060449552522500,6.8945224609375,1.0166324377059937,0.02275473065674305,0.04505131021142006
1702060449569515000,6.911514892578125,1.1858421564102173,0.05345070734620094,0.005955935921519995
1702060449586509600,6.928509521484375,1.3324497938156128,0.058184914290905,-0.006108652334660292
1702060449603507000,6.9455068359375,1.4506522417068481,0.0455094613134861,0.013897184282541275
1702060449620488400,6.962488525390625,1.5969544649124146,0.05360342562198639,0.07528914511203766
1702060449637490700,6.97949072265625,1.757459282875061,0.015882495790719986,0.08811730891466141
1702060449654489300,6.9964892578125,1.8579466342926025,-0.07254024595022202,0.024587325751781464
1702060449671482400,7.013482421875,1.9075794219970703,-0.08552113175392151,0.005345070734620094
1702060449688475400,7.030475341796875,1.9721784591674805,-0.06688974797725677,0.04917465150356293
1702060449705459200,7.047459228515625,2.071749448776245,-0.009162978269159794,0.12568552792072296
1702060449722463700,7.064463623046875,2.155590772628784,-0.005039638374000788,0.14996741712093353
1702060449739457300,7.081457275390625,2.166586399078369,0.04917465150356293,0.16523905098438263
1702060449756451800,7.098451904296875,2.166433572769165,0.13561208546161652,0.1518000066280365
1702060449773445600,7.115445556640625,2.2227859497070312,0.14324790239334106,0.03940080851316452
1702060449790440200,7.132440185546875,2.375044107437134,0.03039054572582245,-0.17073683440685272
1702060449807433700,7.149433837890625,2.557692766189575,-0.13209961354732513,-0.37110063433647156
1702060449824424400,7.166424560546875,2.6200010776519775,-0.11010845750570297,-0.35842517018318176
1702060449841422000,7.183422119140625,2.6122124195098877,0.13301590085029602,-0.12522737681865692
1702060449858416600,7.200416748046875,2.584876298904419,0.26603180170059204,0.004581489134579897
1702060449875410000,7.217409912109375,2.624429702758789,0.19822576642036438,-0.09697485715150833
1702060449892404700,7.23440478515625,2.7760770320892334,0.06765332818031311,-0.235030397772789
1702060449909398500,7.2513984375,2.992934226989746,-0.02015855349600315,-0.3822489380836487
1702060449926393000,7.26839306640625,3.1696269512176514,0.02382374368607998,-0.43279802799224854
1702060449943383800,7.2853837890625,3.1726813316345215,0.15164729952812195,-0.35842517018318176
1702060449960384000,7.302384033203125,3.076164722442627,0.30925053358078003,-0.2002110779285431
1702060449977374700,7.319374755859375,3.0324878692626953,0.40683624148368835,-0.0907134860754013
1702060449994369300,7.336369384765625,3.1523702144622803,0.3706424832344055,-0.12049316614866257
1702060450011363000,7.353363037109375,3.3678529262542725,0.2548835277557373,-0.31902438402175903
1702060450028354800,7.370354736328125,3.4414620399475098,0.11621711403131485,-0.6058256030082703
1702060450045354000,7.38735400390625,3.2614095211029053,0.22311852872371674,-0.6479753255844116
1702060450062346000,7.404345947265625,2.9611692428588867,0.45005497336387634,-0.3425426781177521
1702060450079339300,7.42133935546875,2.7704265117645264,0.4888449013233185,-0.07406741380691528
1702060450096334000,7.438333984375,2.8764116764068604,0.35521814227104187,0.010537425056099892
1702060450113325000,7.455324951171875,3.1051807403564453,0.18600846827030182,-0.04092797264456749
1702060450130324700,7.47232470703125,3.148399591445923,0.14813482761383057,-0.1466076523065567
1702060450147316000,7.48931591796875,2.9306259155273438,0.2802344262599945,-0.1915062516927719
1702060450164310500,7.506310546875,2.6338982582092285,0.3897320330142975,-0.1437060534954071
1702060450181304000,7.523303955078125,2.476447820663452,0.27091872692108154,-0.11362093687057495
1702060450198299000,7.540298828125,2.592817544937134,0.2047925740480423,-0.08475755155086517
1702060450215292200,7.557292236328125,2.7490463256835938,0.18081611394882202,0.009773843921720982
1702060450232287000,7.574286865234375,2.7068965435028076,0.22800545394420624,0.09529497474431992
1702060450249280500,7.591280517578125,2.4827091693878174,0.30283644795417786,0.06643159687519073
1702060450266275000,7.608275146484375,2.2572999000549316,0.3153591752052307,-0.07452555745840073
1702060450283276800,7.62527685546875,2.018451452255249,0.2742784917354584,-0.20357084274291992
1702060450300260900,7.6422607421875,1.8755090236663818,0.2791654169559479,-0.15195272862911224
1702060450317259500,7.659259521484375,1.793500304222107,0.24526239931583405,-0.023060163483023643
1702060450334241500,7.676241455078125,1.7282904386520386,0.20876319706439972,0.10735956579446793
1702060450351245000,7.6932451171875,1.5790866613388062,0.18707747757434845,0.0832303911447525
1702060450368239900,7.710239990234375,1.373377799987793,0.18738290667533875,-0.03084869496524334
1702060450385233400,7.7272333984375,1.1552989482879639,0.16279558837413788,-0.12370020896196365
1702060450402228000,7.74422802734375,0.926835298538208,0.07880161702632904,-0.22082778811454773
1702060450419221500,7.761221435546875,0.73685622215271,0.029016099870204926,-0.2583959996700287
1702060450436216000,7.778216064453125,0.6256787180900574,0.05115996301174164,-0.22403483092784882
1702060450453209600,7.795209716796875,0.5807801485061646,0.06276640295982361,-0.15790866315364838
1702060450470204400,7.812204345703125,0.5338962078094482,0.04092797264456749,-0.11652254313230515
1702060450487198000,7.829197998046875,0.48227810859680176,0.006719517521560192,-0.09529497474431992
1702060450504192500,7.846192626953125,0.38637226819992065,-0.017562376335263252,-0.11621711403131485
1702060450521186300,7.863186279296875,0.27519479393959045,-0.005650503560900688,-0.12538009881973267
1702060450538170400,7.88017041015625,0.17791450023651123,0.012675453908741474,-0.07987063378095627
1702060450555171800,7.897171875,0.12232576310634613,-0.0006108652451075613,-0.001832595793530345
1702060450572171800,7.914171875,0.10812314599752426,-0.013286318629980087,0.07208210229873657
1702060450589162500,7.93116259765625,0.10415252298116684,-0.02382374368607998,0.07757988572120667
1702060450606155000,7.948155029296875,0.06368270516395569,-0.019089538604021072,0.035582900047302246
1702060450623153200,7.965153076171875,-0.012980886735022068,-0.01114829070866108,-0.009010262787342072
1702060450640145700,7.982145751953125,-0.09865473955869675,-0.008857546374201775,-0.024892758578062057
1702060450657139200,7.99913916015625,-0.16844609379768372,-0.037110064178705215,0.0029016099870204926
1702060450674133800,8.0161337890625,-0.21120665967464447,-0.0734565481543541,0.05253441259264946
1702060450691117000,8.033116943359374,-0.242513507604599,-0.07864890247583389,0.08674286305904388
1702060450708122000,8.0501220703125,-0.2938261926174164,-0.07284568250179291,0.07131851464509964
1702060450725118200,8.0671181640625,-0.36071592569351196,-0.05772676691412926,0.021380282938480377
1702060450742107400,8.084107421875,-0.4369213581085205,-0.05009094998240471,-0.035124752670526505
1702060450759114000,8.101114013671875,-0.5395467281341553,-0.04886921867728233,-0.031001411378383636
1702060450776094200,8.11809423828125,-0.6311765313148499,-0.05253441259264946,0.029626963660120964
1702060450793088800,8.1350888671875,-0.6947064995765686,-0.048258353024721146,0.1059851199388504
1702060450810086700,8.152086669921875,-0.7582364678382874,-0.0328340083360672,0.19135354459285736
1702060450827080400,8.16908056640625,-0.8651378750801086,-0.03833179548382759,0.22861631214618683
1702060450844074800,8.18607470703125,-1.013272762298584,-0.06750060617923737,0.19792033731937408
1702060450861068500,8.203068603515625,-1.1808024644851685,-0.09789115190505981,0.1036943718791008
1702060450878062800,8.220062744140625,-1.3267992734909058,-0.09437867999076843,0.029016099870204926
1702060450895056600,8.237056640625,-1.4836390018463135,-0.09208793938159943,0.006872233934700489
1702060450912051700,8.2540517578125,-1.6610952615737915,-0.10247264802455902,0.06200282275676727
1702060450929044700,8.271044677734375,-1.8446602821350098,-0.13316862285137177,0.12324206531047821
1702060450946039600,8.28803955078125,-2.0109684467315674,-0.10873401165008545,0.19578230381011963
1702060450963033000,8.305033203125,-2.1668918132781982,-0.07590000331401825,0.21594086289405823
1702060450980027600,8.322027587890625,-2.32586932182312,-0.08811730891466141,0.20525072515010834
1702060450997021200,8.339021240234375,-2.479501962661743,-0.1342376321554184,0.17180584371089935
1702060451014015700,8.356015625,-2.615266799926758,-0.17470745742321014,0.14706580340862274
1702060451031009300,8.37300927734375,-2.733163833618164,-0.17256943881511688,0.15943582355976105
1702060451048004000,8.390004150390626,-2.8483119010925293,-0.13286319375038147,0.22159136831760406
1702060451064998000,8.406997802734375,-2.948493719100952,-0.12110403180122375,0.24694228172302246
1702060451081992200,8.4239921875,-2.9886581897735596,-0.1837177276611328,0.18112154304981232
1702060451098986000,8.440986083984376,-2.994919538497925,-0.24465152621269226,0.1420261710882187
1702060451115980500,8.45798046875,-3.020728588104248,-0.2538145184516907,0.16844609379768372
1702060451132974000,8.47497412109375,-3.0463850498199463,-0.19883663952350616,0.21884247660636902
1702060451149968600,8.49196875,-3.034778594970703,-0.16081027686595917,0.2220495194196701
1702060451166959900,8.5089599609375,-2.9744555950164795,-0.14767667651176453,0.22372940182685852
1702060451183959600,8.52595947265625,-2.858849287033081,-0.19746218621730804,0.18616119027137756
1702060451200950500,8.542950439453126,-2.7519478797912598,-0.27870726585388184,0.16310101747512817
1702060451217945300,8.5599453125,-2.6751315593719482,-0.3043636083602905,0.19593502581119537
1702060451234938600,8.576938720703126,-2.6369526386260986,-0.2483167201280594,0.2356412708759308
1702060451251933400,8.593933349609374,-2.615572214126587,-0.14905111491680145,0.23518311977386475
1702060451268923000,8.6109228515625,-2.6061038970947266,-0.05345070734620094,0.19013181328773499
1702060451285921500,8.627921630859374,-2.5506677627563477,0.012675453908741474,0.16142113506793976
1702060451302915000,8.6449150390625,-2.450944185256958,-0.036651913076639175,0.14645494520664215
1702060451319910000,8.661909912109374,-2.3148739337921143,-0.1898263692855835,0.1518000066280365
1702060451336903400,8.6789033203125,-2.1766655445098877,-0.3043636083602905,0.16325373947620392
1702060451353898000,8.69589794921875,-2.070833206176758,-0.25473082065582275,0.19868391752243042
1702060451370891800,8.712891845703124,-1.980577826499939,-0.12370020896196365,0.2177734673023224
1702060451387883500,8.729883544921876,-1.8970420360565186,-0.04138612002134323,0.18112154304981232
1702060451404882400,8.74688232421875,-1.823127269744873,-0.07406741380691528,0.0679587572813034
1702060451421874400,8.76387451171875,-1.7088955640792847,-0.17699819803237915,-0.0328340083360672
1702060451438879200,8.780879150390625,-1.5552629232406616,-0.235030397772789,-0.003359758760780096
1702060451455862500,8.797862548828125,-1.4735597372055054,-0.2791654169559479,0.08368854224681854
1702060451472856300,8.814856201171875,-1.446223497390747,-0.2747366428375244,0.17699819803237915
1702060451489851000,8.831850830078125,-1.4190399646759033,-0.17318029701709747,0.2765692472457886
1702060451506844700,8.8488447265625,-1.3979650735855103,-0.11224649101495743,0.3049744665622711
1702060451523839000,8.8658388671875,-1.3886494636535645,-0.18249599635601044,0.2506074607372284
1702060451540832800,8.882832763671875,-1.3662000894546509,-0.30634891986846924,0.1921171247959137
1702060451557827300,8.899827392578125,-1.3190107345581055,-0.3295617997646332,0.1518000066280365
1702060451574804500,8.916804443359375,-1.2512047290802002,-0.22540926933288574,0.09392052888870239
1702060451591815400,8.9338154296875,-1.1201741695404053,-0.05146539583802223,0.007635815534740686
1702060451608809200,8.950809326171875,-1.0238101482391357,0.01114829070866108,-0.03390302136540413
1702060451625785300,8.967785400390625,-0.9917397499084473,-0.06169738993048668,-0.08338310569524765
1702060451642797300,8.98479736328125,-1.0057896375656128,-0.13118331134319305,-0.10094548016786575
1702060451659793200,9.001793212890625,-1.0590876340866089,-0.10919216275215149,-0.09544769674539566
1702060451676785700,9.01878564453125,-1.1282681226730347,-0.0656680166721344,-0.09269879758358002
1702060451693780200,9.0357802734375,-1.2176071405410767,-0.061391957104206085,-0.09636399149894714
1702060451710773800,9.052773681640625,-1.2223412990570068,-0.052839845418930054,-0.06017022579908371
1702060451727768300,9.069768310546875,-1.0888673067092896,-0.07788532227277756,-0.02474004216492176
1702060451744762000,9.08676220703125,-0.8297077417373657,-0.10735956579446793,0.006261368747800589
1702060451761756700,9.103756591796875,-0.6210972666740417,-0.08949175477027893,0.033139441162347794
1702060451778746000,9.12074609375,-0.5852088928222656,-0.04764748737215996,0.05146539583802223
1702060451795744800,9.137744873046875,-0.6918048858642578,-0.03833179548382759,0.023365596309304237
1702060451812729600,9.1547294921875,-0.7793113589286804,-0.0022907445672899485,0.006872233934700489
1702060451829733600,9.171733642578126,-0.7657195925712585,0.03741549700498581,0.005039638374000788
1702060451846717000,9.188717041015625,-0.694553792476654,0.048258353024721146,0.010842857882380486
1702060451863718700,9.20571875,-0.6265950202941895,0.04230241850018501,0.020463986322283745
1702060451880717300,9.22271728515625,-0.5820018649101257,0.01924225501716137,0.023060163483023643
1702060451897709300,9.239709228515625,-0.5639813542366028,0.010231993161141872,0.048258353024721146
1702060451914702800,9.256702880859375,-0.5655084848403931,0.03039054572582245,0.07498370856046677
1702060451931697700,9.27369775390625,-0.5462662577629089,0.061391957104206085,0.09162978827953339
1702060451948691200,9.290691162109376,-0.4873177409172058,0.08231408894062042,0.09865473955869675
1702060451965685800,9.307685791015626,-0.42531493306159973,0.06963863968849182,0.0988074541091919
1702060451982679800,9.3246796875,-0.38866302371025085,0.05314527451992035,0.11239920556545258
1702060451999673900,9.341673828125,-0.3680463135242462,0.04306599870324135,0.11178833991289139
1702060452016667600,9.358667724609376,-0.342695415019989,0.07147123664617538,0.10002918541431427
1702060452033662200,9.375662109375,-0.32330042123794556,0.09117163717746735,0.09285151958465576
1702060452050662700,9.39266259765625,-0.3341432809829712,0.08246681094169617,0.09514226019382477
1702060452067650300,9.409650390625,-0.34116822481155396,0.049785517156124115,0.07925976812839508
1702060452084644000,9.42664404296875,-0.3075706362724304,0.02367102913558483,0.055894169956445694
1702060452101638700,9.443638671875,-0.23884831368923187,0.02229658141732216,0.021380282938480377
1702060452118633200,9.46063330078125,-0.18478673696517944,0.031001411378383636,0.01572977937757969
1702060452135627000,9.477626953125,-0.1443169116973877,0.015882495790719986,0.04108068719506264
1702060452152620300,9.494620361328124,-0.1540907621383667,-0.014049900695681572,0.06902777403593063
1702060452169615000,9.511614990234374,-0.20234911143779755,-0.00931569468230009,0.05742133408784866
1702060452186609700,9.528609619140624,-0.2145664244890213,0.06108652427792549,0.01191187184303999
1702060452203600600,9.5456005859375,-0.20586158335208893,0.004734205547720194,-0.04596760869026184
1702060452220599600,9.562599609375,-0.17043140530586243,-0.043676864355802536,-0.0731511116027832
1702060452237591300,9.57959130859375,-0.15729780495166779,-0.09697485715150833,-0.07040221989154816
1702060452254585000,9.596585205078124,-0.19898934662342072,-0.08750644326210022,-0.03649919852614403
1702060452271579600,9.61357958984375,-0.22770002484321594,-0.020922135561704636,0.01924225501716137
1702060452288574500,9.630574462890625,-0.2018909603357315,0.04749477282166481,0.05665775015950203
1702060452305554400,9.647554443359375,-0.14446963369846344,0.04214970022439957,0.014049900695681572
1702060452322564600,9.664564697265625,-0.09575312584638596,0.008704829961061478,-0.03420845419168472
1702060452339556000,9.68155615234375,-0.10980302840471268,-0.038179077208042145,-0.06322455406188965
1702060452356549600,9.698549560546875,-0.2002110779285431,-0.034666601568460464,-0.03039054572582245
1702060452373544400,9.71554443359375,-0.2620611786842346,0.009621127508580685,0.027488935738801956
1702060452390538000,9.7325380859375,-0.2382374405860901,0.06017022579908371,0.05849034711718559
1702060452407532500,9.749532470703125,-0.14782938361167908,0.0754418596625328,0.06429356336593628
1702060452424526000,9.766526123046875,-0.08246681094169617,0.0503963828086853,0.036193765699863434
1702060452441534000,9.783533935546876,-0.09605856239795685,0.005192354787141085,0.0064140851609408855
1702060452458500400,9.800500244140625,-0.18188512325286865,-0.016035212203860283,-0.03375030308961868
1702060452475509200,9.81750927734375,-0.265573650598526,-0.025045474991202354,-0.08429940044879913
1702060452492502800,9.834502685546875,-0.26633724570274353,0.017409659922122955,-0.06963863968849182
1702060452509497000,9.8514970703125,-0.2154827117919922,0.02733621932566166,-0.021380282938480377
1702060452526488300,9.86848828125,-0.14049901068210602,0.027183502912521362,0.00855211354792118
1702060452543488000,9.885488037109376,-0.08475755155086517,0.025045474991202354,-0.0024434609804302454
1702060452560483300,9.9024833984375,-0.08155050873756409,0.01237002108246088,-0.043676864355802536
1702060452577471200,9.91947119140625,-0.09728029370307922,0.004886921960860491,-0.055283304303884506
1702060452594469600,9.9364697265625,-0.11331550031900406,-0.01664607785642147,-0.03726277872920036
1702060452611462000,9.9534619140625,-0.09285151958465576,-0.01572977937757969,-0.016951510682702065
1702060452628452900,9.970452880859375,-0.06994406878948212,0.005039638374000788,0.016340645030140877
1702060452645452500,9.98745263671875,-0.06918048858642578,0.020922135561704636,0.0403171069920063
1702060452662443500,10.004443603515625,-0.05955936014652252,0.023060163483023643,0.027488935738801956
1702060452679435500,10.021435546875,-0.05803219974040985,-0.003359758760780096,-0.02122756652534008
1702060452696431900,10.038431884765625,-0.09239336848258972,-0.03222314268350601,-0.044135015457868576
1702060452713429000,10.055428955078124,-0.14477506279945374,-0.02687807008624077,-0.03497203439474106
1702060452730420200,10.072420166015625,-0.2021963894367218,-0.014966198243200779,-0.01924225501716137
1702060452747414500,10.08941455078125,-0.23609942197799683,-0.006872233934700489,0.00015271631127689034
1702060452764408300,10.106408203125,-0.2528982162475586,-0.0032070425804704428,0.01618792861700058
1702060452781403000,10.12340283203125,-0.2330450862646103,-0.0027488935738801956,0.03222314268350601
1702060452798396400,10.140396484375,-0.18814650177955627,-0.013744467869400978,0.04352414980530739
1702060452815391000,10.157390869140626,-0.13179416954517365,-0.029474247246980667,0.012980886735022068
1702060452832374000,10.1743740234375,-0.09575312584638596,-0.04352414980530739,-0.03680463135242462
1702060452849378600,10.191378662109376,-0.09605856239795685,-0.044287730008363724,-0.044135015457868576
1702060452866374000,10.208373779296876,-0.1362229436635971,-0.021991148591041565,-0.001832595793530345
1702060452883366000,10.225365966796875,-0.16661348938941956,-0.01771509274840355,0.02367102913558483
1702060452900361200,10.242361328125,-0.14996741712093353,-0.022143865004181862,0.012675453908741474
1702060452917355500,10.25935546875,-0.09056077152490616,-0.03405573591589928,-0.01618792861700058
1702060452934349300,10.276349365234376,-0.047800205647945404,-0.03527746722102165,-0.03237585723400116
1702060452951337200,10.293337158203125,-0.0503963828086853,-0.014202617108821869,-0.019853120669722557
1702060452968337400,10.31033740234375,-0.0731511116027832,0.005497787147760391,0.006108652334660292
1702060452985332000,10.32733203125,-0.08643743395805359,0.009926560334861279,0.017409659922122955
1702060453002325500,10.344325439453126,-0.09224065393209457,0.004886921960860491,0.006872233934700489
1702060453019320300,10.3613203125,-0.11102475970983505,-0.006261368747800589,0.001832595793530345
1702060453036313900,10.37831396484375,-0.16798794269561768,-0.018325956538319588,-0.008399397134780884
1702060453053306000,10.39530615234375,-0.19456058740615845,-0.010842857882380486,-0.008704829961061478
1702060453070304800,10.4123046875,-0.18738290667533875,0.00427605677396059,-0.007024950347840786
1702060453087296800,10.429296875,-0.1713477075099945,0.008246680721640587,-0.00015271631127689034
1702060453104283100,10.446283203125,-0.15241087973117828,0.02382374368607998,0.026572637259960175
1702060453121278700,10.46327880859375,-0.1411098688840866,0.03634648025035858,0.03756821155548096
1702060453138278400,10.4802783203125,-0.12140946835279465,0.029168816283345222,0.010231993161141872
1702060453155262700,10.4972626953125,-0.09269879758358002,0.014508049935102463,-0.03130684420466423
1702060453172264200,10.51426416015625,-0.09178250283002853,0.003054326167330146,-0.055283304303884506
1702060453189264000,10.531263916015625,-0.07987063378095627,0.0024434609804302454,-0.03894266113638878
1702060453206255000,10.548255126953125,-0.05742133408784866,0.011759156361222267,-0.005345070734620094
1702060453223239200,10.5652392578125,-0.03955352306365967,0.010842857882380486,0.013897184282541275
1702060453240240400,10.582240478515626,-0.010079276748001575,0.0032070425804704428,0.006108652334660292
1702060453257231000,10.599231201171875,0.015118914656341076,-0.0029016099870204926,-0.004581489134579897
1702060453274234000,10.616234130859375,0.014508049935102463,-0.009162978269159794,-0.001679879380390048
1702060453291226000,10.63322607421875,0.005955935921519995,-0.027947084978222847,0.004886921960860491
1702060453308209000,10.650208984375,0.01618792861700058,-0.03375030308961868,-0.0003054326225537807
1702060453325214000,10.6672138671875,0.07330382615327835,-0.005345070734620094,0.004581489134579897
1702060453342206200,10.684206298828125,0.144622340798378,0.009926560334861279,0.004734205547720194
1702060453359204000,10.7012041015625,0.19837848842144012,0.014202617108821869,0.009773843921720982
1702060453376185300,10.718185302734375,0.21288654208183289,-0.007941247895359993,-0.0024434609804302454
1702060453393190700,10.735190673828125,0.1788308024406433,-0.016951510682702065,-0.023976460099220276
1702060453410184200,10.75218408203125,0.16142113506793976,-0.013439035043120384,-0.021991148591041565
1702060453427174400,10.76917431640625,0.2025018334388733,-0.0039706239476799965,-0.00366519158706069
1702060453444178400,10.786178466796875,0.30085113644599915,-0.02229658141732216,-0.001832595793530345
1702060453461165300,10.803165283203125,0.42012256383895874,-0.009773843921720982,0.004123340360820293
1702060453478160600,10.82016064453125,0.5537493228912354,0.01710422709584236,0.015118914656341076
1702060453495155200,10.8371552734375,0.7014260292053223,0.060322944074869156,0.038026362657547
1702060453512148700,10.854148681640625,0.8672759532928467,0.07376197725534439,0.053297992795705795
1702060453529132800,10.8711328125,1.0242682695388794,0.06780604273080826,0.033139441162347794
1702060453546135300,10.88813525390625,1.151481032371521,0.10201449692249298,0.05757404863834381
1702060453563131100,10.905131103515625,1.2122620344161987,0.11514809727668762,0.10262536257505417
1702060453580127500,10.92212744140625,1.2246321439743042,0.12660181522369385,0.12797626852989197
1702060453597109200,10.939109130859375,1.325730323791504,0.09453139454126358,0.0936150997877121
1702060453614100000,10.956099853515624,1.5925257205963135,0.04612032696604729,0.05665775015950203
1702060453631110700,10.973110595703124,1.8472565412521362,0.02580905705690384,0.06398813426494598
1702060453648101600,10.9901015625,1.9494236707687378,0.038179077208042145,0.07941248267889023
1702060453665094700,11.0070947265625,1.9217820167541504,0.09346238523721695,0.13209961354732513
1702060453682081000,11.0240810546875,1.8834502696990967,0.058337632566690445,0.11178833991289139
1702060453699084500,11.04108447265625,1.9048305749893188,0.010690141469240189,0.05910121276974678
1702060453716077800,11.058077880859376,2.0259346961975098,0.018478672951459885,0.08338310569524765
1702060453733072600,11.07507275390625,2.1335995197296143,0.058795779943466187,0.13454307615756989
1702060453750069500,11.092069580078125,2.216371774673462,0.07208210229873657,0.1310305893421173
1702060453767060700,11.109060791015626,2.322356939315796,0.04001167416572571,-0.0022907445672899485
1702060453784054300,11.12605419921875,2.459343433380127,0.03191770985722542,-0.15836681425571442
1702060453801049900,11.1430498046875,2.6264150142669678,0.06215553730726242,-0.2324342280626297
1702060453818041900,11.160041748046876,2.7765352725982666,0.19776763021945953,-0.1771509200334549
1702060453835037400,11.177037353515624,2.9014573097229004,0.33948835730552673,-0.14126259088516235
1702060453852030700,11.19403076171875,2.975830078125,0.4118759036064148,-0.21395555138587952
1702060453869025300,11.211025390625,3.0330986976623535,0.34406983852386475,-0.42989641427993774
1702060453886019000,11.22801904296875,3.0046935081481934,0.10567969083786011,-0.7541131377220154
1702060453903013600,11.245013671875,2.8765645027160645,-0.17959438264369965,-0.9665415287017822
1702060453920007200,11.262007080078124,2.760958194732666,-0.11392636597156525,-0.7432702779769897
1702060453937003300,11.279003173828125,2.7733283042907715,0.22082778811454773,-0.15821409225463867
1702060453953994000,11.295993896484376,2.84189772605896,0.23548854887485504,0.06994406878948212
1702060453970989800,11.31298974609375,2.9549078941345215,0.056810468435287476,-0.14446963369846344
1702060453987984000,11.32998388671875,3.0584495067596436,0,-0.4115704596042633
1702060454004968200,11.34696826171875,3.118314266204834,0.04749477282166481,-0.5247332453727722
1702060454021971700,11.3639716796875,3.070361375808716,0.07406741380691528,-0.5433646440505981
1702060454038966300,11.38096630859375,2.9831604957580566,0.10903944820165634,-0.3703370690345764
1702060454055960000,11.3979599609375,2.9324586391448975,0.14676037430763245,-0.1696678251028061
1702060454072954600,11.41495458984375,2.9138271808624268,0.19486601650714874,-0.02076941914856434
1702060454089948200,11.4319482421875,2.9297096729278564,0.25671613216400146,0.10690141469240189
1702060454106943000,11.44894287109375,2.964376211166382,0.25671613216400146,0.1540907621383667
1702060454123936500,11.4659365234375,3.014620065689087,0.26404649019241333,0.12828169763088226
1702060454140931000,11.48293115234375,3.034167766571045,0.26404649019241333,0.05971207842230797
1702060454157924600,11.499924560546875,2.936887264251709,0.2223549485206604,-0.08048149943351746
1702060454174916900,11.516916748046874,2.7867672443389893,0.17180584371089935,-0.1492038369178772
1702060454191909400,11.533909423828124,2.6201536655426025,0.22815817594528198,-0.08475755155086517
1702060454208907500,11.550907470703125,2.5554020404815674,0.35903605818748474,0.03695734590291977
1702060454225901000,11.567901123046875,2.5787675380706787,0.4222606122493744,0.02825251780450344
1702060454242895600,11.5848955078125,2.595871925354004,0.37659841775894165,-0.12339477986097336
1702060454259889200,11.60188916015625,2.500729560852051,0.28878653049468994,-0.3168863356113434
1702060454276884200,11.61888427734375,2.2789855003356934,0.2577851414680481,-0.3727805018424988
1702060454293877200,11.635877197265625,2.0636556148529053,0.3197879493236542,-0.27351492643356323
1702060454310872000,11.6528720703125,1.9448422193527222,0.36911532282829285,-0.11285735666751862
1702060454327865900,11.669865966796875,1.93598473072052,0.3039054572582245,-0.020616702735424042
1702060454344860400,11.6868603515625,1.9627100229263306,0.18799377977848053,-0.022449297830462456
1702060454361853700,11.703853759765625,1.9491182565689087,0.13240504264831543,-0.09834930300712585
1702060454378848500,11.7208486328125,1.8396207094192505,0.14584407210350037,-0.2177734673023224
1702060454395831600,11.73783154296875,1.6184874773025513,0.20799961686134338,-0.26679539680480957
1702060454412832800,11.754832763671875,1.3420709371566772,0.3098613917827606,-0.1391245573759079
1702060454429830100,11.771830078125,1.1357512474060059,0.30085113644599915,-0.004428773187100887
1702060454446824700,11.78882470703125,1.0453431606292725,0.2093740701675415,0.03176499158143997
1702060454463818500,11.805818603515625,1.0311405658721924,0.1339322030544281,-0.020311269909143448
1702060454480813000,11.82281298828125,0.9783006906509399,0.13729196786880493,-0.08002334833145142
1702060454497806600,11.839806640625,0.8773552179336548,0.1560760736465454,-0.128434419631958
1702060454514801200,11.85680126953125,0.726471483707428,0.14553864300251007,-0.1342376321554184
1702060454531795000,11.873794921875,0.5781839489936829,0.10262536257505417,-0.08506298810243607
1702060454548789500,11.89078955078125,0.48976120352745056,0.03451388701796532,-0.058795779943466187
1702060454565783000,11.907782958984376,0.44623705744743347,-0.0006108652451075613,-0.021380282938480377
1702060454582777900,11.92477783203125,0.4103487432003021,0.001527163083665073,0.021380282938480377
1702060454599771100,11.941771240234376,0.37690386176109314,0.03649919852614403,0.06169738993048668
1702060454616765700,11.958765625,0.35705074667930603,0.0887281745672226,0.09056077152490616
1702060454633759500,11.975759521484376,0.36300668120384216,0.11927144229412079,0.09453139454126358
1702060454650752300,11.992752197265625,0.3651446998119354,0.08811730891466141,0.10919216275215149
1702060454667749600,12.00974951171875,0.2996293902397156,0.015118914656341076,0.1488984078168869
1702060454684742100,12.0267421875,0.19303341209888458,-0.02733621932566166,0.17837265133857727
1702060454701732400,12.043732421875,0.08399397134780884,-0.0027488935738801956,0.14538592100143433
1702060454718734000,12.060734130859375,0.0012217304902151227,0.03527746722102165,0.10002918541431427
1702060454735724000,12.07772412109375,-0.08567385375499725,0.044135015457868576,0.07513642311096191
1702060454752718600,12.094718505859374,-0.15806138515472412,-0.001679879380390048,0.05268712714314461
1702060454769712000,12.111712158203124,-0.19532416760921478,-0.05497787147760391,0.03726277872920036
1702060454786699300,12.12869921875,-0.19624045491218567,-0.07941248267889023,0.042760565876960754
1702060454803687700,12.145687744140625,-0.2018909603357315,-0.07437284290790558,0.029626963660120964
1702060454820695000,12.162695068359374,-0.20693060755729675,-0.048258353024721146,0.02168571576476097
1702060454837691400,12.17969140625,-0.2151772826910019,-0.017562376335263252,0.013439035043120384
1702060454854683100,12.19668310546875,-0.2194533348083496,-0.007941247895359993,0.006108652334660292
1702060454871677000,12.213677001953124,-0.20433442294597626,-0.016951510682702065,0.005192354787141085
1702060454888671500,12.23067138671875,-0.17592918872833252,-0.046731192618608475,0.0074830991216003895
1702060454905665300,12.247665283203125,-0.14996741712093353,-0.06673702597618103,0.02535090781748295
1702060454922659600,12.26465966796875,-0.12660181522369385,-0.06383541971445084,0.03390302136540413
1702060454939653000,12.281653076171875,-0.11484266817569733,-0.028405234217643738,0.03756821155548096
1702060454956648000,12.29864794921875,-0.12278391420841217,-0.0009162978967651725,0.027183502912521362
1702060454973641500,12.315641357421875,-0.14416420459747314,0.0010690141934901476,0.019547687843441963
1702060454990636000,12.332635986328125,-0.1417207419872284,-0.019547687843441963,0.0009162978967651725
1702060455007629800,12.3496298828125,-0.11591167747974396,-0.04138612002134323,-0.01878410577774048
1702060455024624000,12.3666240234375,-0.1062905490398407,-0.04489859566092491,-0.016798794269561768
1702060455041618400,12.383618408203125,-0.10919216275215149,-0.02076941914856434,0.02428189292550087
1702060455058612000,12.400612060546875,-0.12476922571659088,-0.003512475173920393,0.036041051149368286
1702060455075588000,12.417588134765625,-0.13347405195236206,0.013286318629980087,0.03191770985722542
1702060455092600800,12.434600830078125,-0.13225232064723969,0.015118914656341076,0.019394971430301666
1702060455109594400,12.451594482421875,-0.13500121235847473,-0.003359758760780096,0.005192354787141085
1702060455126587100,12.468587158203125,-0.13408492505550385,-0.031001411378383636,-0.01542434748262167
1702060455143580000,12.485579833984374,-0.14416420459747314,-0.06490442901849747,-0.01863138936460018
1702060455160579800,12.502579833984376,-0.17073683440685272,-0.06704246252775192,0.006261368747800589
1702060455177569000,12.519569091796875,-0.22052235901355743,-0.038026362657547,0.024892758578062057
1702060455194565400,12.5365654296875,-0.29046642780303955,-0.03436116874217987,0.011301007121801376
1702060455211559000,12.553558837890625,-0.3651446998119354,-0.04703662544488907,-0.0006108652451075613
1702060455228553500,12.570553466796875,-0.4473060667514801,-0.05314527451992035,-0.004123340360820293
1702060455245547000,12.587547119140625,-0.5119050741195679,-0.06108652427792549,0.008704829961061478
1702060455262539300,12.604539306640625,-0.5755877494812012,-0.07254024595022202,0.02474004216492176
1702060455279537700,12.62153759765625,-0.6572909951210022,-0.07009678333997726,0.06643159687519073
1702060455296530000,12.638530029296875,-0.7855727076530457,-0.07223481684923172,0.10201449692249298
1702060455313521200,12.655521240234375,-0.9996809959411621,-0.08139779418706894,0.09926560521125793
1702060455330520800,12.672520751953124,-1.2460123300552368,-0.09117163717746735,0.07498370856046677
1702060455347498800,12.689498779296875,-1.4578299522399902,-0.1264491081237793,0.05772676691412926
1702060455364503600,12.706503662109375,-1.616654872894287,-0.16249015927314758,0.0806342139840126
1702060455381503000,12.7235029296875,-1.718058466911316,-0.14217889308929443,0.1569923609495163
1702060455398494500,12.740494384765626,-1.8083138465881348,-0.11163562536239624,0.21914790570735931
1702060455415488000,12.757488037109376,-1.9327776432037354,-0.08307767659425735,0.24419337511062622
1702060455432482800,12.77448291015625,-2.120924234390259,-0.0734565481543541,0.2174680233001709
1702060455449476400,12.791476318359376,-2.3353378772735596,-0.09193521738052368,0.1794416606426239
1702060455466471000,12.808470947265626,-2.503936529159546,-0.11178833991289139,0.2096794992685318
1702060455483464400,12.82546435546875,-2.610227108001709,-0.12553280591964722,0.2857322096824646
1702060455500460300,12.842460205078124,-2.6846001148223877,-0.15027284622192383,0.33399057388305664
1702060455517451500,12.859451416015625,-2.7461447715759277,-0.20906862616539001,0.28649580478668213
1702060455534444800,12.87644482421875,-2.817005157470703,-0.1950187236070633,0.25106561183929443
1702060455551433200,12.89343310546875,-2.9016098976135254,-0.14355333149433136,0.26572638750076294
1702060455568419000,12.910419189453124,-2.9891164302825928,-0.14187344908714294,0.31383201479911804
1702060455585424000,12.927423828125,-3.0360002517700195,-0.18906278908252716,0.379652738571167
1702060455602423300,12.94442333984375,-3.0045406818389893,-0.28787025809288025,0.40424007177352905
1702060455619417000,12.9614169921875,-2.8985555171966553,-0.3481931984424591,0.35063666105270386
1702060455636412000,12.978411865234374,-2.7733283042907715,-0.26832255721092224,0.299018532037735
1702060455653405400,12.995405517578124,-2.727360486984253,-0.10995574295520782,0.32391130924224854
1702060455670402600,13.012402587890625,-2.735607385635376,-0.06688974797725677,0.34605515003204346
1702060455687391000,13.029390869140625,-2.750115394592285,-0.1417207419872284,0.38209620118141174
1702060455704377900,13.0463779296875,-2.727360486984253,-0.2561052441596985,0.39736783504486084
1702060455721373400,13.06337353515625,-2.6287059783935547,-0.3390302062034607,0.3602577745914459
1702060455738376700,13.080376708984375,-2.5389087200164795,-0.35750889778137207,0.33689218759536743
1702060455755370000,13.097369873046874,-2.498897075653076,-0.3130684494972229,0.3527746796607971
1702060455772364500,13.114364501953125,-2.486985206604004,-0.25213462114334106,0.4095851480960846
1702060455789358300,13.1313583984375,-2.459038019180298,-0.2373211532831192,0.46792277693748474
1702060455806353000,13.148352783203125,-2.3860397338867188,-0.26908615231513977,0.4769330322742462
1702060455823343400,13.16534326171875,-2.2456934452056885,-0.27809640765190125,0.380721777677536
1702060455840341200,13.18234130859375,-2.0957260131835938,-0.19853121042251587,0.2509129047393799
1702060455857334500,13.19933447265625,-2.0007364749908447,-0.11209376901388168,0.1569923609495163
1702060455874329300,13.216329345703125,-1.9726365804672241,-0.12431107461452484,0.11850785464048386
1702060455891325700,13.23332568359375,-1.9501873254776,-0.22052235901355743,0.1508837193250656
1702060455908315000,13.25031494140625,-1.9251418113708496,-0.3197879493236542,0.19196440279483795
1702060455925311200,13.267311279296875,-1.855197787284851,-0.32650747895240784,0.16401731967926025
1702060455942295300,13.28429541015625,-1.7250834703445435,-0.2151772826910019,0.1215621829032898
1702060455959287600,13.30128759765625,-1.5958853960037231,-0.10216721147298813,0.11056660860776901
1702060455976295400,13.31829541015625,-1.5460999011993408,-0.09285151958465576,0.11071932315826416
1702060455993277000,13.33527685546875,-1.5341880321502686,-0.17852537333965302,0.11331550031900406
1702060456010279400,13.352279541015625,-1.510058879852295,-0.2871066629886627,0.14966198801994324
1702060456027278300,13.3692783203125,-1.468367338180542,-0.34208452701568604,0.10399980843067169
1702060456044270300,13.386270263671875,-1.388802170753479,-0.2713768780231476,0.016493361443281174
1702060456061267000,13.403266845703126,-1.274570345878601,-0.14004085958003998,-0.0429132841527462
1702060456078258400,13.420258544921875,-1.19912850856781,-0.10201449692249298,-0.12049316614866257
1702060456095252000,13.437251953125,-1.1794281005859375,-0.16004669666290283,-0.1872301995754242
1702060456112246500,13.45424658203125,-1.1537717580795288,-0.18646661937236786,-0.14844025671482086
1702060456129237800,13.47123779296875,-1.0939068794250488,-0.16340644657611847,-0.03726277872920036
1702060456146237400,13.488237548828126,-1.0447323322296143,-0.1716531366109848,0.03481931984424591
1702060456163229200,13.505229248046875,-1.0393872261047363,-0.17088955640792847,0.10018189996480942
1702060456180223200,13.52222314453125,-1.056491494178772,-0.11774427443742752,0.18524488806724548
1702060456197216500,13.539216552734375,-1.1065824031829834,-0.09560041129589081,0.21670444309711456
1702060456214211000,13.556211181640625,-1.1545352935791016,-0.11148291081190109,0.20631973445415497
1702060456231204900,13.573204833984375,-1.144303321838379,-0.07651086896657944,0.19303341209888458
1702060456248199400,13.590199462890626,-1.0948232412338257,-0.04902193695306778,0.17730364203453064
1702060456265193000,13.60719287109375,-0.982729434967041,-0.05207626149058342,0.1472185254096985
1702060456282185200,13.624185302734375,-0.8327620625495911,-0.09040805697441101,0.0780380368232727
1702060456299183600,13.64118359375,-0.7266241908073425,-0.12996158003807068,0.007635815534740686
1702060456316176000,13.65817578125,-0.688903272151947,-0.15012013912200928,-0.0936150997877121
1702060456333169400,13.67516943359375,-0.6337726712226868,-0.051312681287527084,-0.09712757170200348
1702060456350159600,13.69215966796875,-0.6256787180900574,0.02535090781748295,-0.03833179548382759
1702060456367147000,13.70914697265625,-0.6892086863517761,0.041233405470848083,0.021838432177901268
1702060456384152300,13.72615234375,-0.764345109462738,0.02015855349600315,0.05345070734620094
1702060456401143000,13.74314306640625,-0.7988590002059937,0.002138028386980295,0.05543602257966995
1702060456418143000,13.76014306640625,-0.7898487448692322,0.011453723534941673,0.0403171069920063
1702060456435134500,13.777134521484374,-0.6911939978599548,0.06001751124858856,0.06704246252775192
1702060456452128500,13.79412841796875,-0.5642867684364319,0.08597928285598755,0.10018189996480942
1702060456469121500,13.81112158203125,-0.4888449013233185,0.0858265683054924,0.1033889427781105
1702060456486116900,13.828116943359374,-0.4821254014968872,0.07513642311096191,0.09804387390613556
1702060456503110400,13.8451103515625,-0.513126790523529,0.06902777403593063,0.10919216275215149
1702060456520105000,13.86210498046875,-0.5297728776931763,0.07651086896657944,0.1134682223200798
1702060456537098800,13.8790986328125,-0.4964807331562042,0.0659734457731247,0.08811730891466141
1702060456554093000,13.896093017578124,-0.4060726761817932,0.04856378585100174,0.045204028487205505
1702060456571086800,13.9130869140625,-0.33735033869743347,0.029016099870204926,0.009621127508580685
1702060456588081400,13.930081298828124,-0.3367394804954529,0.01771509274840355,-0.003512475173920393
1702060456605075200,13.9470751953125,-0.38957929611206055,-0.011453723534941673,-0.013897184282541275
1702060456622067000,13.96406689453125,-0.44806966185569763,-0.03436116874217987,0.0010690141934901476
1702060456639065900,13.98106591796875,-0.4518875777721405,-0.034666601568460464,0.026114489883184433
1702060456656048400,13.99804833984375,-0.42409318685531616,0,0.045204028487205505
1702060456673050600,14.015050537109374,-0.3972151279449463,0.017562376335263252,0.030237829312682152
1702060456690047000,14.032046875,-0.3790418803691864,-0.01924225501716137,-0.0019853119738399982
1702060456707039700,14.049039794921875,-0.37598755955696106,-0.06627888232469559,-0.020616702735424042
1702060456724034000,14.066033935546875,-0.35353827476501465,-0.04749477282166481,0.016035212203860283
1702060456741027800,14.08302783203125,-0.3222314119338989,-0.0027488935738801956,0.05314527451992035
1702060456758022400,14.1000224609375,-0.2964223623275757,0.016951510682702065,0.05314527451992035
1702060456775016200,14.11701611328125,-0.2715296149253845,0.010079276748001575,0.020005837082862854
1702060456792010500,14.134010498046875,-0.24984388053417206,-0.01817324012517929,-0.032681290060281754
1702060456809004000,14.151004150390625,-0.2278527319431305,-0.02367102913558483,-0.05268712714314461
1702060456825998800,14.167998779296875,-0.24602597951889038,-0.03222314268350601,-0.037110064178705215
1702060456842989600,14.184989501953124,-0.24495697021484375,-0.011759156361222267,0.004886921960860491
1702060456859989500,14.201989501953125,-0.2064724564552307,0.005650503560900688,0.029474247246980667
1702060456876980500,14.21898046875,-0.14813482761383057,0.016493361443281174,0.0429132841527462
1702060456893975000,14.23597509765625,-0.1463022232055664,-0.007941247895359993,0.023518312722444534
1702060456910968600,14.252968505859375,-0.13607023656368256,-0.04306599870324135,-0.020005837082862854
1702060456927963400,14.26996337890625,-0.11255192011594772,-0.034666601568460464,-0.04230241850018501
1702060456944957000,14.28695703125,-0.11392636597156525,0.003054326167330146,-0.017867809161543846
1702060456961951700,14.30395166015625,-0.1466076523065567,0.021074850112199783,0.016951510682702065
1702060456978945000,14.320945068359375,-0.17058411240577698,-0.0025961773935705423,0.019089538604021072
1702060456995939600,14.337939697265625,-0.1635591685771942,-0.014355333521962166,0.002138028386980295
1702060457012933400,14.354933349609375,-0.12202033400535583,-0.01924225501716137,-0.008399397134780884
1702060457029927700,14.371927734375,-0.0806342139840126,-0.016340645030140877,-0.023365596309304237
1702060457046921500,14.38892138671875,-0.06123924255371094,-0.020311269909143448,-0.03848451003432274
1702060457063914200,14.405914306640625,-0.06276640295982361,-0.015882495790719986,-0.015271631069481373
1702060457080908800,14.42290869140625,-0.09560041129589081,0.007024950347840786,0.036193765699863434
1702060457097907000,14.439906982421874,-0.12003502249717712,0.03985895588994026,0.06673702597618103
1702060457114899200,14.456899169921876,-0.11255192011594772,0.032070424407720566,0.035582900047302246
1702060457131891000,14.473890869140625,-0.07483099400997162,0.005803219974040985,-0.022907447069883347
1702060457148875800,14.490875732421875,-0.06108652427792549,-0.021991148591041565,-0.0731511116027832
1702060457165870300,14.507870361328125,-0.060475658625364304,-0.023060163483023643,-0.03955352306365967
1702060457182874400,14.524874267578125,-0.07192938029766083,0.006261368747800589,0.034666601568460464
1702060457199868700,14.54186865234375,-0.07467827945947647,0.037110064178705215,0.06872233748435974
1702060457216862700,14.55886279296875,-0.026572637259960175,0.05543602257966995,0.06673702597618103
1702060457233857000,14.57585693359375,-0.005650503560900688,0.038179077208042145,0.023518312722444534
1702060457250850600,14.5928505859375,-0.02367102913558483,-0.003512475173920393,-0.031154127791523933
1702060457267845400,14.609845458984376,-0.03451388701796532,-0.024892758578062057,-0.05192354694008827
1702060457284838000,14.626837890625,-0.04505131021142006,-0.01817324012517929,-0.025961773470044136
1702060457301834200,14.643834228515624,-0.046273041516542435,-0.013439035043120384,0.011759156361222267
1702060457318827000,14.660826904296876,-0.035582900047302246,-0.012064588256180286,0.04184427112340927
1702060457335821800,14.67782177734375,-0.036193765699863434,-0.01878410577774048,0.03527746722102165
1702060457352815000,14.694815185546876,-0.04841107130050659,-0.017562376335263252,0.015271631069481373
1702060457369809700,14.7118095703125,-0.04398229718208313,-0.016340645030140877,-0.01924225501716137
1702060457386803500,14.728803466796874,-0.027183502912521362,-0.014966198243200779,-0.03756821155548096
1702060457403798300,14.74579833984375,-0.02474004216492176,-0.030543262138962746,-0.030085112899541855
1702060457420791600,14.76279150390625,-0.022449297830462456,-0.036651913076639175,-0.01618792861700058
1702060457437786000,14.7797861328125,-0.03756821155548096,-0.023976460099220276,-0.00427605677396059
1702060457454777300,14.79677734375,-0.055741455405950546,-0.005955935921519995,0.012522737495601177
1702060457471768800,14.813768798828125,-0.04734205827116966,0.00015271631127689034,0.011301007121801376
1702060457488767700,14.830767822265624,0.002138028386980295,-0.0032070425804704428,-0.011301007121801376
1702060457505762800,14.8477626953125,0.021991148591041565,-0.012828170321881771,-0.031001411378383636
1702060457522756000,14.864756103515624,0.016035212203860283,-0.03191770985722542,-0.047189339995384216
1702060457539749400,14.881749267578124,-0.023060163483023643,-0.04245513305068016,-0.047800205647945404
1702060457556744000,14.898743896484374,-0.060933809727430344,-0.04306599870324135,-0.033597588539123535
1702060457573739300,14.9157392578125,-0.05161811411380768,-0.021074850112199783,-0.01038470957428217
1702060457590732500,14.932732666015625,-0.012064588256180286,-0.0064140851609408855,0.001527163083665073
1702060457607716900,14.949716796875,0.003512475173920393,0.005345070734620094,0.012217304669320583
1702060457624720600,14.966720703125,-0.0032070425804704428,-0.0007635815418325365,0.020311269909143448
1702060457641715200,14.983715087890625,-0.006108652334660292,-0.01572977937757969,0.012675453908741474
1702060457658709000,15.000708984375,-0.005803219974040985,-0.03878994286060333,-0.00015271631127689034
1702060457675703600,15.01770361328125,-0.01191187184303999,-0.05864306539297104,-0.01542434748262167
1702060457692697000,15.034697021484375,-0.0064140851609408855,-0.03176499158143997,0.001527163083665073
1702060457709689600,15.051689697265624,0.00855211354792118,0.021838432177901268,0.033597588539123535
1702060457726687700,15.068687744140625,0.016493361443281174,0.05497787147760391,0.05360342562198639
1702060457743678200,15.08567822265625,0.021380282938480377,0.04199698567390442,0.045204028487205505
1702060457760675000,15.102675048828125,0.01924225501716137,0.00427605677396059,0.014966198243200779
1702060457777657600,15.11965771484375,0.004886921960860491,-0.023060163483023643,-0.020463986322283745
1702060457794662000,15.136661865234375,-0.006872233934700489,-0.004123340360820293,-0.02168571576476097
1702060457811656400,15.153656494140625,-0.020922135561704636,0.01618792861700058,0.0006108652451075613
1702060457828650000,15.17064990234375,-0.019547687843441963,0.022602014243602753,0.031001411378383636
1702060457845642200,15.187642333984375,-0.012828170321881771,0.005345070734620094,0.052381694316864014
1702060457862644200,15.204644287109375,-0.006872233934700489,-0.02015855349600315,0.05406157299876213
1702060457879629300,15.22162939453125,-0.017562376335263252,-0.04092797264456749,0.033597588539123535
1702060457896608800,15.23860888671875,-0.018020525574684143,-0.036041051149368286,0.007788531947880983
1702060457913613800,15.25561376953125,-0.01191187184303999,-0.026114489883184433,-0.014202617108821869
1702060457930614300,15.2726142578125,-0.009468411095440388,-0.020005837082862854,0.00809396430850029
1702060457947608800,15.28960888671875,0.013439035043120384,-0.028557950630784035,0.039248090237379074
1702060457964603000,15.306602783203125,0.04841107130050659,-0.02535090781748295,0.05009094998240471
1702060457981597200,15.32359716796875,0.07192938029766083,-0.008399397134780884,0.03741549700498581
1702060457998590700,15.3405908203125,0.0507018156349659,-0.0025961773935705423,0.003359758760780096
1702060458015585500,15.35758544921875,0.02779436856508255,-0.01160643994808197,-0.02825251780450344
1702060458032578800,15.374578857421875,0.020616702735424042,-0.016035212203860283,-0.032681290060281754
1702060458049573600,15.39157373046875,0.03344487398862839,-0.01038470957428217,-0.00366519158706069
1702060458066564600,15.408564697265625,0.048105638474226,-0.003512475173920393,0.011301007121801376
1702060458083567000,15.425567138671875,0.05406157299876213,0.02076941914856434,0.014813481830060482
1702060458100552700,15.442552734375,0.06185010448098183,0.036651913076639175,0.006719517521560192
1702060458117550000,15.459550048828126,0.07330382615327835,0.03222314268350601,0.0009162978967651725
1702060458134539500,15.47653955078125,0.07192938029766083,0.011453723534941673,-0.007177666760981083
1702060458151542300,15.493542236328125,0.07406741380691528,0.0027488935738801956,-0.01618792861700058
1702060458168524500,15.510524658203124,0.10934487730264664,0.012522737495601177,-0.0074830991216003895
1702060458185526500,15.527526611328126,0.14416420459747314,0.023518312722444534,0.0025961773935705423
1702060458202520000,15.54452001953125,0.16600263118743896,0.03375030308961868,0.0064140851609408855
1702060458219514600,15.5615146484375,0.1635591685771942,0.023365596309304237,0.00427605677396059
1702060458236505900,15.578505859375,0.1592831164598465,0.004886921960860491,-0.00045814894838258624
1702060458253505500,15.595505615234375,0.18906278908252716,0.00855211354792118,0.004581489134579897
1702060458270496300,15.612496337890626,0.26679539680480957,-0.005497787147760391,0.0013744467869400978
1702060458287481000,15.629481201171876,0.40194934606552124,-0.029932396486401558,0.00366519158706069
1702060458304476400,15.646476318359374,0.513737678527832,-0.03176499158143997,-0.0022907445672899485
1702060458321479000,15.66347900390625,0.5751296281814575,-0.014813481830060482,0.0013744467869400978
1702060458338473000,15.680472900390624,0.5978843569755554,0.009926560334861279,0.044287730008363724
1702060458355467300,15.69746728515625,0.6252205967903137,-0.00015271631127689034,0.0555887371301651
1702060458372450600,15.714450439453126,0.7348709106445312,0.02382374368607998,0.04948008432984352
1702060458389453300,15.731453369140626,0.9137017130851746,0.0328340083360672,0.029474247246980667
1702060458406451500,15.748451416015625,1.1369729042053223,0.05009094998240471,0.014813481830060482
1702060458423443700,15.765443603515624,1.3770430088043213,0.05390885844826698,0.00733038317412138
1702060458440437200,15.782437255859374,1.5274685621261597,0.020311269909143448,-0.027947084978222847
1702060458457431800,15.799431884765625,1.5528194904327393,0.025503624230623245,-0.04489859566092491
1702060458474425300,15.81642529296875,1.4957035779953003,0.10476338863372803,-0.008246680721640587
1702060458491420200,15.833420166015625,1.441794753074646,0.1889100819826126,0.04612032696604729
1702060458508414000,15.8504140625,1.483791708946228,0.1319468915462494,0.0010690141934901476
1702060458525408300,15.867408203125,1.584431767463684,-0.027030786499381065,-0.15775595605373383
1702060458542401800,15.88440185546875,1.6760615110397339,-0.12232576310634613,-0.2548835277557373
1702060458559396400,15.901396240234375,1.6995798349380493,-0.09040805697441101,-0.2321287989616394
1702060458576390000,15.918389892578125,1.6418530941009521,0.029168816283345222,-0.033597588539123535
1702060458593384700,15.935384765625,1.640325903892517,0.18325957655906677,0.20952677726745605
1702060458610378500,15.95237841796875,1.7342463731765747,0.17867808043956757,0.26374107599258423
1702060458627372000,15.9693720703125,1.8875735998153687,0.09010262042284012,0.07727445662021637
1702060458644368600,15.98636865234375,2.0784690380096436,0.03039054572582245,-0.17592918872833252
1702060458661368600,16.00336865234375,2.246762275695801,-0.01114829070866108,-0.3937026560306549
1702060458678354700,16.020354736328127,2.3518311977386475,-0.060933809727430344,-0.4818199574947357
1702060458695350500,16.0373505859375,2.3858869075775146,-0.06261368840932846,-0.4505131244659424
1702060458712331800,16.054331787109376,2.4384212493896484,0.07590000331401825,-0.2616030275821686
1702060458729329400,16.071329345703123,2.5615108013153076,0.2255619913339615,-0.1134682223200798
1702060458746331000,16.088330810546875,2.6338982582092285,0.2848159074783325,-0.08827003091573715
1702060458763325400,16.105325439453125,2.6447410583496094,0.2597704529762268,-0.1693623960018158
1702060458780316700,16.122316650390626,2.6558892726898193,0.18448130786418915,-0.29107728600502014
1702060458797316600,16.139316650390626,2.7658450603485107,0.20143280923366547,-0.3952298164367676
1702060458814304800,16.1563046875,2.906802177429199,0.28619036078453064,-0.4789183437824249
1702060458831304400,16.173304443359374,2.955824136734009,0.3975205719470978,-0.4277583956718445
1702060458848295700,16.190295654296875,2.948035717010498,0.48777589201927185,-0.29993483424186707
1702060458865290200,16.207290283203125,2.9634599685668945,0.47189339995384216,-0.24724771082401276
1702060458882283800,16.22428369140625,3.028669834136963,0.40362921357154846,-0.34987306594848633
1702060458899278300,16.2412783203125,3.023019313812256,0.4645630121231079,-0.4411974251270294
1702060458916272000,16.258272216796875,2.917034149169922,0.6641632318496704,-0.27641651034355164
1702060458933266400,16.275266357421874,2.7059803009033203,0.718224823474884,-0.0065668015740811825
1702060458950249700,16.292249755859373,2.5499043464660645,0.6154467463493347,0.10002918541431427
1702060458967252200,16.309252197265625,2.685516357421875,0.4688390791416168,0.026114489883184433
1702060458984251000,16.3262509765625,3.0659327507019043,0.4082106947898865,-0.18784105777740479
1702060459001240300,16.343240234375,3.2959234714508057,0.483957976102829,-0.40286561846733093
1702060459018238000,16.360238037109376,3.2209396362304688,0.5482515692710876,-0.39874228835105896
1702060459035232300,16.377232177734374,3.0104966163635254,0.5746715068817139,-0.2981022298336029
1702060459052224500,16.394224609375,2.846937417984009,0.4541783034801483,-0.23671028017997742
1702060459069209000,16.411208984375,2.7959301471710205,0.3142901659011841,-0.24266621470451355
1702060459086212900,16.428212890625,2.855794906616211,0.25244006514549255,-0.2791654169559479
1702060459103207700,16.445207763671874,2.8988609313964844,0.2353358417749405,-0.260992169380188
1702060459120201200,16.462201171875,2.8440358638763428,0.3173444867134094,-0.16859880089759827
1702060459137195500,16.479195556640626,2.6807820796966553,0.39965859055519104,-0.11270463466644287
1702060459154188300,16.496188232421876,2.467132091522217,0.3646865487098694,-0.0913243517279625
1702060459171185000,16.513184814453126,2.2624921798706055,0.2145664244890213,-0.15332718193531036
1702060459188167200,16.530167236328126,2.0957260131835938,0.07238753139972687,-0.3110831379890442
1702060459205172000,16.547171875,1.9117027521133423,0.06704246252775192,-0.40943244099617004
1702060459222165500,16.56416552734375,1.7348573207855225,0.1615738570690155,-0.41233405470848083
1702060459239160000,16.58116015625,1.6174184083938599,0.20128010213375092,-0.38698312640190125
1702060459256153900,16.59815380859375,1.5063936710357666,0.17669276893138885,-0.294895201921463
1702060459273148400,16.6151484375,1.3161091804504395,0.15302173793315887,-0.14706580340862274
1702060459290142000,16.632141845703124,1.0897835493087769,0.14095716178417206,-0.04734205827116966
1702060459307136800,16.64913671875,0.8852964639663696,0.1391245573759079,-0.024892758578062057
1702060459324130000,16.666130126953124,0.726471483707428,0.11178833991289139,-0.06154467165470123
1702060459341124600,16.68312451171875,0.5984952449798584,0.09208793938159943,-0.09117163717746735
1702060459358118400,16.700118408203124,0.5163338780403137,0.08567385375499725,-0.055894169956445694
1702060459375110400,16.7171103515625,0.4297437071800232,0.08827003091573715,-0.006108652334660292
1702060459392109000,16.734109130859373,0.34208452701568604,0.08491026610136032,0.04948008432984352
1702060459409101000,16.75110107421875,0.22082778811454773,0.03848451003432274,0.0705549344420433
1702060459426094800,16.7680947265625,0.13820825517177582,-0.007941247895359993,0.041233405470848083
1702060459443089200,16.785089111328126,0.0884227454662323,-0.020922135561704636,-0.04046982154250145
1702060459460083000,16.8020830078125,0.07422012835741043,0.02474004216492176,-0.09498954564332962
1702060459477077500,16.819077392578127,0.09712757170200348,0.058795779943466187,-0.09987647086381912
1702060459494071000,16.836071044921876,0.10705413669347763,0.03894266113638878,-0.06582073122262955
1702060459511065600,16.853065673828127,0.09178250283002853,-0.007788531947880983,-0.015271631069481373
1702060459528058000,16.87005810546875,0.05390885844826698,-0.03344487398862839,0.016493361443281174
1702060459545055000,16.887054931640623,0.008399397134780884,-0.030543262138962746,0.004734205547720194
1702060459562047500,16.904047607421877,-0.020005837082862854,0.0003054326225537807,-0.03726277872920036
1702060459579042000,16.9210419921875,-0.033139441162347794,0.019547687843441963,-0.062460970133543015
1702060459596035600,16.93803564453125,-0.03894266113638878,0.010690141469240189,-0.04703662544488907
1702060459613030100,16.955030029296875,-0.04001167416572571,-0.020463986322283745,-0.005497787147760391
1702060459630028800,16.97202880859375,-0.049785517156124115,-0.04596760869026184,0.0429132841527462
1702060459647018500,16.9890185546875,-0.08124507963657379,-0.06352998316287994,0.06750060617923737
1702060459664012300,17.00601220703125,-0.10781771689653397,-0.06719517707824707,0.07131851464509964
1702060459681006600,17.023006591796875,-0.12446379661560059,-0.06765332818031311,0.05360342562198639
1702060459698000100,17.040000244140625,-0.11942415684461594,-0.0708603709936142,0.031612277030944824
1702060459714994700,17.05699462890625,-0.10949759185314178,-0.06673702597618103,0.03298672288656235
1702060459731988500,17.073988525390625,-0.12492194026708603,-0.06918048858642578,0.04764748737215996
1702060459748982800,17.090982666015623,-0.15485434234142303,-0.08231408894062042,0.06169738993048668
1702060459765976600,17.1079765625,-0.20341812074184418,-0.09697485715150833,0.050243668258190155
1702060459782971400,17.124971435546875,-0.25503623485565186,-0.1085812970995903,0.021074850112199783
1702060459799966500,17.141966552734374,-0.3061962127685547,-0.10033461451530457,0.027183502912521362
1702060459816958000,17.1589580078125,-0.351400226354599,-0.0913243517279625,0.03573561832308769
1702060459833952800,17.175952880859374,-0.4103487432003021,-0.08124507963657379,0.04001167416572571
1702060459850947600,17.192947509765624,-0.5174028873443604,-0.06475171446800232,0.04902193695306778
1702060459867941000,17.209941162109374,-0.6583600044250488,-0.06352998316287994,0.039095375686883926
1702060459884935700,17.226935791015624,-0.813825249671936,-0.05253441259264946,0.016951510682702065
1702060459901926700,17.2439267578125,-1.0041097402572632,-0.09498954564332962,-0.026114489883184433
1702060459918926600,17.260926513671876,-1.2046263217926025,-0.12217304855585098,0.006719517521560192
1702060459935917600,17.27791748046875,-1.3820825815200806,-0.13698652386665344,0.07590000331401825
1702060459952912000,17.294911865234376,-1.5210545063018799,-0.11636982858181,0.14508049190044403
1702060459969905700,17.31190576171875,-1.650099754333496,-0.11759155988693237,0.19333885610103607
1702060459986900200,17.328900146484376,-1.7809776067733765,-0.14492778480052948,0.2203696370124817
1702060460003893800,17.345893798828126,-1.9167424440383911,-0.19394971430301666,0.23640485107898712
1702060460020888600,17.362888671875,-2.0845775604248047,-0.22159136831760406,0.2692388594150543
1702060460037880800,17.379880859375,-2.261575937271118,-0.22678372263908386,0.30634891986846924
1702060460054867000,17.396866943359374,-2.400547742843628,-0.2174680233001709,0.3378084897994995
1702060460071870500,17.413870361328126,-2.4963009357452393,-0.18646661937236786,0.37461310625076294
1702060460088863200,17.43086328125,-2.5642595291137695,-0.16004669666290283,0.4098905920982361
1702060460105860000,17.447860107421874,-2.638479709625244,-0.17791450023651123,0.4112650156021118
1702060460122842400,17.46484228515625,-2.6922359466552734,-0.2649627923965454,0.33200526237487793
1702060460139849000,17.481848876953126,-2.7085764408111572,-0.3065016269683838,0.2811507284641266
1702060460156841200,17.49884130859375,-2.71880841255188,-0.2379320114850998,0.2877175211906433
1702060460173834800,17.515834716796874,-2.7123944759368896,-0.10064005106687546,0.3194825351238251
1702060460190825000,17.532824951171875,-2.6789495944976807,-0.0007635815418325365,0.32650747895240784
1702060460207827500,17.549827392578123,-2.5806002616882324,0.03191770985722542,0.3043636083602905
1702060460224817400,17.5668173828125,-2.4072673320770264,-0.008246680721640587,0.2632829248905182
1702060460241811200,17.583811279296874,-2.2710442543029785,-0.0907134860754013,0.22510384023189545
1702060460258803200,17.60080322265625,-2.2015583515167236,-0.1336267739534378,0.2587014436721802
1702060460275799300,17.61779931640625,-2.1757493019104004,-0.06963863968849182,0.40973785519599915
1702060460292796400,17.63479638671875,-2.1568124294281006,0.01542434748262167,0.5193881988525391
1702060460309787400,17.651787353515626,-2.1529946327209473,0.027488935738801956,0.4466952085494995
1702060460326779600,17.668779541015624,-2.0987801551818848,-0.10247264802455902,0.2532036304473877
1702060460343778300,17.6857783203125,-1.9897408485412598,-0.28359419107437134,0.11270463466644287
1702060460360770300,17.702770263671876,-1.9523253440856934,-0.3530801236629486,0.14355333149433136
1702060460377764000,17.71976416015625,-1.9469802379608154,-0.28038713335990906,0.2977968156337738
1702060460394758400,17.73675830078125,-1.9269744157791138,-0.14324790239334106,0.4309654235839844
1702060460411752200,17.753752197265626,-1.8823812007904053,-0.0682641938328743,0.46502116322517395
1702060460428747000,17.7707470703125,-1.8283196687698364,-0.06872233748435974,0.42119157314300537
1702060460445740300,17.787740234375,-1.7273741960525513,-0.1872301995754242,0.31871894001960754
1702060460462736100,17.804736083984373,-1.631773829460144,-0.33200526237487793,0.2509129047393799
1702060460479728400,17.821728271484375,-1.5954272747039795,-0.36911532282829285,0.2854267954826355
1702060460496723000,17.838722900390625,-1.6152803897857666,-0.2730567753314972,0.3929390609264374
1702060460513704400,17.855704345703124,-1.6720908880233765,-0.1690569519996643,0.4453207552433014
1702060460530711000,17.8727109375,-1.7641788721084595,-0.16019940376281738,0.399200439453125
1702060460547704800,17.889704833984375,-1.7989981174468994,-0.2249511331319809,0.313373863697052
1702060460564689700,17.906689697265627,-1.7266106605529785,-0.2710714638233185,0.22388210892677307
1702060460581690400,17.9236904296875,-1.6339118480682373,-0.20922134816646576,0.1837177276611328
1702060460598690300,17.940690185546874,-1.5505287647247314,-0.08200865983963013,0.20784689486026764
1702060460615681000,17.957680908203123,-1.5076154470443726,-0.049785517156124115,0.24587325751781464
1702060460632675600,17.974675537109373,-1.5508341789245605,-0.11530081182718277,0.3017674386501312
1702060460649669400,17.99166943359375,-1.6111570596694946,-0.1693623960018158,0.3439171314239502
1702060460666664000,18.008663818359373,-1.6114624738693237,-0.194713294506073,0.2935207486152649
1702060460683647500,18.0256474609375,-1.54945969581604,-0.18845193088054657,0.1992947906255722
1702060460700652800,18.04265283203125,-1.423621416091919,-0.1745547503232956,0.10705413669347763
1702060460717645000,18.05964501953125,-1.3339769840240479,-0.17608191072940826,0.06169738993048668
1702060460734640000,18.07664013671875,-1.3213015794754028,-0.18875735998153687,0.0708603709936142
1702060460751631400,18.09363134765625,-1.3335188627243042,-0.24098633229732513,0.06750060617923737
1702060460768631300,18.11063134765625,-1.3574953079223633,-0.299476683139801,0.07773260027170181
1702060460785622000,18.1276220703125,-1.3666582107543945,-0.35873061418533325,0.08246681094169617
1702060460802616800,18.144616943359374,-1.3266465663909912,-0.35521814227104187,0.07590000331401825
1702060460819610000,18.161610107421875,-1.2079859972000122,-0.3202461004257202,0.017562376335263252
1702060460836605000,18.17860498046875,-1.0589349269866943,-0.2499966025352478,-0.004428773187100887
1702060460853598500,18.195598388671876,-0.9740246534347534,-0.19364428520202637,0.03298672288656235
1702060460870593000,18.212593017578126,-0.9665415287017822,-0.17348572611808777,0.0861319974064827
1702060460887586600,18.229586669921876,-1.0143417119979858,-0.18631389737129211,0.09514226019382477
1702060460904571000,18.24657080078125,-1.0334312915802002,-0.1595885455608368,0.09498954564332962
1702060460921575000,18.263574951171876,-1.0529789924621582,-0.1417207419872284,0.047800205647945404
1702060460938569200,18.2805693359375,-1.0459539890289307,-0.0988074541091919,0.011759156361222267
1702060460955563000,18.29756298828125,-0.9503536224365234,-0.04642575979232788,0.03481931984424591
1702060460972556300,18.314556396484374,-0.8095491528511047,-0.007177666760981083,0.06994406878948212
1702060460989552000,18.33155224609375,-0.6626361012458801,0.021838432177901268,0.07208210229873657
1702060461006546000,18.3485458984375,-0.5580254197120667,0.008399397134780884,0.0455094613134861
1702060461023539200,18.365539306640624,-0.4888449013233185,-0.03405573591589928,0.00855211354792118
1702060461040535000,18.38253515625,-0.47601673007011414,-0.06490442901849747,-0.0009162978967651725
1702060461057527600,18.399527587890624,-0.5587889552116394,-0.06383541971445084,0.04886921867728233
1702060461074522000,18.416522216796874,-0.6563746929168701,-0.04382958263158798,0.10659598559141159
1702060461091515600,18.433515625,-0.6948592066764832,-0.02168571576476097,0.12049316614866257
1702060461108510500,18.450510498046874,-0.6349944472312927,-0.01664607785642147,0.06750060617923737
1702060461125504000,18.46750390625,-0.48288896679878235,0.010690141469240189,0.014813481830060482
1702060461142498300,18.484498291015626,-0.37827831506729126,0.040164388716220856,0.003359758760780096
1702060461159492000,18.5014921875,-0.39813143014907837,0.06673702597618103,0.02535090781748295
1702060461176485000,18.518485107421874,-0.48090365529060364,0.08139779418706894,0.04688390716910362
1702060461193481500,18.5354814453125,-0.5346598029136658,0.06368270516395569,0.032528575509786606
1702060461210458400,18.552458251953126,-0.5071708559989929,0.04001167416572571,0.001527163083665073
1702060461227468300,18.56946826171875,-0.3891211748123169,0.020005837082862854,-0.029932396486401558
1702060461244462800,18.586462890625,-0.25595253705978394,0.01618792861700058,-0.021380282938480377
1702060461261456600,18.60345654296875,-0.2249511331319809,-0.031154127791523933,-0.03527746722102165
1702060461278459000,18.620458984375,-0.289702832698822,-0.04245513305068016,-0.04077525436878204
1702060461295444700,18.63744482421875,-0.3572034537792206,-0.03084869496524334,-0.007635815534740686
1702060461312439600,18.654439453125,-0.3666718602180481,-0.03878994286060333,0.03695734590291977
1702060461329432800,18.671432861328125,-0.33460143208503723,-0.055283304303884506,0.04046982154250145
1702060461346416600,18.688416748046876,-0.27519479393959045,-0.07620543986558914,0.036651913076639175
1702060461363421400,18.70542138671875,-0.22708915174007416,-0.09315694868564606,0.03084869496524334
1702060461380407600,18.722407470703125,-0.17241671681404114,-0.07040221989154816,0.03588833287358284
1702060461397409500,18.739409423828125,-0.15042556822299957,-0.06261368840932846,0.02733621932566166
1702060461414404000,18.756404052734375,-0.13866640627384186,-0.04138612002134323,0.02535090781748295
1702060461431397600,18.773397705078125,-0.10674870014190674,-0.013133603148162365,0.01114829070866108
1702060461448392000,18.790391845703127,-0.08888089656829834,-0.015577063895761967,-0.025656340643763542
1702060461465385700,18.8073857421875,-0.09193521738052368,-0.0354301854968071,-0.06185010448098183
1702060461482380300,18.82438037109375,-0.11835514008998871,-0.03955352306365967,-0.04734205827116966
1702060461499373800,18.841373779296877,-0.1699732542037964,-0.020311269909143448,0.008857546374201775
1702060461516368400,18.858368408203123,-0.1872301995754242,0.017867809161543846,0.06062837690114975
1702060461533362200,18.875362060546873,-0.13439035415649414,0.03848451003432274,0.06108652427792549
1702060461550356500,18.8923564453125,-0.06627888232469559,0.03680463135242462,0.012217304669320583
1702060461567350300,18.909350341796873,-0.058948494493961334,0.016340645030140877,-0.03420845419168472
1702060461584344600,18.926344482421875,-0.07009678333997726,-0.0010690141934901476,-0.042760565876960754
1702060461601335800,18.943335693359376,-0.0734565481543541,-0.009621127508580685,-0.03145955875515938
1702060461618333400,18.96033349609375,-0.052839845418930054,0.012064588256180286,0.00045814894838258624
1702060461635329000,18.9773291015625,-0.022143865004181862,0.048716504126787186,0.03329215571284294
1702060461652321000,18.994321044921875,-0.019547687843441963,0.05207626149058342,0.05115996301174164
1702060461669314800,19.011314697265625,-0.038637228310108185,0.011759156361222267,0.039095375686883926
1702060461686309400,19.028309326171875,-0.06230825558304787,-0.018936822190880775,0.009621127508580685
1702060461703303000,19.045302978515625,-0.06582073122262955,-0.020311269909143448,-0.012217304669320583
1702060461720297500,19.06229736328125,-0.03848451003432274,-0.014508049935102463,-0.0022907445672899485
1702060461737291000,19.079291015625,-0.01572977937757969,-0.02367102913558483,0.008857546374201775
1702060461754285600,19.09628564453125,-0.017409659922122955,-0.031001411378383636,0.013591751456260681
1702060461771279400,19.113279296875,-0.011759156361222267,-0.012064588256180286,0.029626963660120964
1702060461788274000,19.13027392578125,-0.012064588256180286,-0.004123340360820293,0.019089538604021072
1702060461805256700,19.147256591796875,-0.03329215571284294,0.0013744467869400978,-0.010231993161141872
1702060461822269700,19.164269775390625,-0.06429356336593628,-0.019394971430301666,-0.04398229718208313
1702060461839255600,19.181255615234374,-0.09117163717746735,-0.0403171069920063,-0.04948008432984352
1702060461856250000,19.19825,-0.08124507963657379,-0.03436116874217987,-0.01924225501716137
1702060461873244000,19.215243896484374,-0.03878994286060333,-0.003054326167330146,0.02580905705690384
1702060461890238200,19.23223828125,0.007941247895359993,0.0328340083360672,0.04535674303770065
1702060461907242000,19.249241943359376,0.030085112899541855,0.05604688450694084,0.030543262138962746
1702060461924226300,19.266226318359376,0.014813481830060482,0.035124752670526505,0.006108652334660292
1702060461941222000,19.283221923828126,-0.0039706239476799965,-0.01618792861700058,-0.01466076634824276
1702060461958213000,19.300213134765624,0.0032070425804704428,-0.023518312722444534,-0.02321287989616394
1702060461975206000,19.317205810546874,0.035124752670526505,0.0022907445672899485,-0.01771509274840355
1702060461992205300,19.334205322265625,0.06169738993048668,0.039706241339445114,-0.008246680721640587
1702060462009196300,19.3511962890625,0.06215553730726242,0.03130684420466423,-0.01618792861700058
1702060462026191000,19.368191162109376,0.045204028487205505,-0.007024950347840786,-0.021074850112199783
1702060462043180500,19.3851806640625,-0.0003054326225537807,-0.01572977937757969,-0.0032070425804704428
1702060462060183300,19.402183349609373,-0.039248090237379074,-0.009010262787342072,0.02275473065674305
1702060462077173000,19.419173095703126,-0.04505131021142006,0.01817324012517929,0.026114489883184433
1702060462094167600,19.43616748046875,-0.011759156361222267,0.014355333521962166,0.013133603148162365
1702060462111160800,19.453160888671874,-0.013439035043120384,-0.005955935921519995,0.010231993161141872
1702060462128155600,19.47015576171875,-0.02871066704392433,0.001832595793530345,0.0328340083360672
1702060462145149200,19.487149169921874,-0.03451388701796532,0.015577063895761967,0.028405234217643738
1702060462162143700,19.504143798828125,-0.034666601568460464,0.005345070734620094,-0.013744467869400978
1702060462179137300,19.52113720703125,-0.031001411378383636,-0.0009162978967651725,-0.0429132841527462
1702060462196131800,19.5381318359375,-0.036041051149368286,-0.01114829070866108,-0.025961773470044136
1702060462213139000,19.555138916015625,-0.0555887371301651,-0.016340645030140877,0.006719517521560192
1702060462230120200,19.5721201171875,-0.043218716979026794,-0.014049900695681572,0.01466076634824276
1702060462247113700,19.58911376953125,-0.010690141469240189,-0.038026362657547,-0.02367102913558483
1702060462264105700,19.606105712890624,0.013286318629980087,-0.04566217586398125,-0.05207626149058342
1702060462281104600,19.623104736328123,-0.0022907445672899485,-0.035582900047302246,-0.03176499158143997
1702060462298084900,19.6400849609375,-0.010231993161141872,-0.018325956538319588,0.014049900695681572
1702060462315087400,19.65708740234375,0.0032070425804704428,-0.007788531947880983,0.02382374368607998
1702060462332087300,19.67408740234375,0.04489859566092491,-0.0064140851609408855,-0.00855211354792118
1702060462349067800,19.69106787109375,0.07880161702632904,-0.011301007121801376,-0.043218716979026794
1702060462366072800,19.70807275390625,0.09010262042284012,-0.005497787147760391,-0.03344487398862839
1702060462383066400,19.72506640625,0.08903361111879349,-0.0007635815418325365,-0.009621127508580685
1702060462400059400,19.742059326171876,0.07238753139972687,-0.005192354787141085,-0.0007635815418325365
1702060462417056000,19.759055908203123,0.03985895588994026,-0.006261368747800589,-0.011453723534941673
1702060462434049300,19.77604931640625,0.036041051149368286,0.0003054326225537807,-0.014508049935102463
1702060462451040300,19.793040283203126,0.07956519722938538,0.007177666760981083,0.025656340643763542
1702060462468040000,19.8100400390625,0.14248432219028473,0.012217304669320583,0.06017022579908371
1702060462485012500,19.827012451171875,0.2125810980796814,0.016035212203860283,0.04505131021142006
1702060462502025500,19.844025390625,0.2741257846355438,0.021074850112199783,-0.007024950347840786
1702060462519011800,19.86101171875,0.35521814227104187,0.03634648025035858,-0.04046982154250145
1702060462536016100,19.87801611328125,0.41462478041648865,0.0354301854968071,-0.034666601568460464
1702060462553007400,19.89500732421875,0.47250425815582275,0.014049900695681572,-0.032528575509786606
1702060462570002000,19.912001953125,0.5795583724975586,-0.036041051149368286,-0.036041051149368286
1702060462586995500,19.928995361328123,0.726471483707428,-0.0403171069920063,-0.056352317333221436
1702060462603979300,19.945979248046875,0.8955284357070923,0.017867809161543846,-0.08399397134780884
1702060462620983800,19.96298388671875,1.0338894128799438,0.06704246252775192,-0.12263119965791702
1702060462637977000,19.97997705078125,1.1759155988693237,0.055283304303884506,-0.1391245573759079
1702060462654972000,19.996971923828124,1.2625057697296143,-0.04382958263158798,-0.16203200817108154
1702060462671966500,20.013966552734374,1.3507757186889648,-0.12736541032791138,-0.1814269721508026
1702060462688960300,20.030960205078124,1.4692835807800293,-0.16264286637306213,-0.19608774781227112
1702060462705947000,20.04794677734375,1.5522085428237915,-0.1270599663257599,-0.18936823308467865
1702060462722948000,20.064947998046875,1.5609134435653687,-0.02626720629632473,-0.12828169763088226
1702060462739943000,20.08194287109375,1.5596916675567627,0.06017022579908371,-0.049785517156124115
1702060462756936200,20.098936279296876,1.6232216358184814,0.00855211354792118,-0.07406741380691528
1702060462773931000,20.115930908203126,1.7330247163772583,-0.10842858254909515,-0.20922134816646576
1702060462790924800,20.1329248046875,1.8339701890945435,-0.0933096632361412,-0.2295326143503189
1702060462807919400,20.14991943359375,1.880243182182312,-0.031612277030944824,-0.19196440279483795
1702060462824910000,20.16691015625,1.89979088306427,0.053297992795705795,-0.09040805697441101
1702060462841910000,20.183909912109375,1.9564486742019653,0.04581489413976669,-0.07024950534105301
1702060462858890500,20.200890380859374,2.0441079139709473,0.04902193695306778,-0.08200865983963013
1702060462875895300,20.217895263671874,2.182926893234253,0.14004085958003998,-0.03756821155548096
1702060462892886500,20.234886474609375,2.3545801639556885,0.21594086289405823,-0.06017022579908371
1702060462909886200,20.25188623046875,2.529745578765869,0.1950187236070633,-0.1976149082183838
1702060462926877200,20.268877197265624,2.6809349060058594,0.07101308554410934,-0.4014911949634552
1702060462943870500,20.285870361328126,2.715906858444214,-0.06627888232469559,-0.5636758804321289
1702060462960866800,20.30286669921875,2.7097983360290527,-0.01038470957428217,-0.4841107130050659
1702060462977859800,20.31985986328125,2.733469247817993,0.11636982858181,-0.2649627923965454
1702060462994843100,20.336843017578126,2.8744263648986816,0.14645494520664215,-0.14309518039226532
1702060463011848200,20.35384814453125,3.1199941635131836,0.10415252298116684,-0.17119498550891876
1702060463028841700,20.370841796875,3.330437421798706,0.09407325088977814,-0.2295326143503189
1702060463045836300,20.387836181640626,3.399923324584961,0.04734205827116966,-0.375071257352829
1702060463062829800,20.404829833984376,3.3538029193878174,-0.2292271852493286,-0.749531626701355
1702060463079824400,20.421824462890626,3.3967161178588867,-0.25213462114334106,-0.8730791807174683
1702060463096820000,20.438820068359377,3.606853723526001,-0.04153883829712868,-0.57436603307724
1702060463113810400,20.455810546875,3.729485034942627,0.12767083942890167,-0.23945917189121246
1702060463130799600,20.472799560546875,3.6722164154052734,0.242513507604599,-0.010079276748001575
1702060463147790600,20.48979052734375,3.459329843521118,0.34437528252601624,0.03756821155548096
1702060463164794600,20.506794677734376,3.191007375717163,0.2747366428375244,-0.18310685455799103
1702060463181783000,20.523782958984373,3.045926809310913,0.021838432177901268,-0.6047565937042236
1702060463198782700,20.54078271484375,3.006525993347168,0.08628471940755844,-0.675616979598999
1702060463215777000,20.557777099609375,2.970637798309326,0.18539759516716003,-0.5271766781806946
1702060463232770800,20.574770751953125,2.8321239948272705,0.1742493063211441,-0.36972618103027344
1702060463249765400,20.591765380859375,2.6253461837768555,0.09376781433820724,-0.2509129047393799
1702060463266765800,20.608765869140626,2.512183427810669,0.08720101416110992,-0.19349156320095062
1702060463283753500,20.62575341796875,2.4831671714782715,0.13973543047904968,-0.21365012228488922
1702060463300747300,20.642747314453125,2.461786985397339,0.2616030275821686,-0.06398813426494598
1702060463317741600,20.659741455078127,2.397951602935791,0.2638937830924988,0.048258353024721146
1702060463334733600,20.676733642578125,2.280359983444214,0.21319197118282318,0.018936822190880775
1702060463351731500,20.6937314453125,2.2012529373168945,0.19028452038764954,-0.10461067408323288
1702060463368723500,20.710723388671877,2.115731716156006,0.23060162365436554,-0.16310101747512817
