time,seconds_elapsed,z,y,x
1702059351832151000,0.066151123046875,-0.14553864300251007,-0.3904955983161926,0.5305364727973938
1702059351848809200,0.082809326171875,-0.12217304855585098,-0.4827362596988678,0.6640105247497559
1702059351865639000,0.099638916015625,-0.14278975129127502,-0.6130032539367676,0.7111998796463013
1702059351882640400,0.116640380859375,-0.20005837082862854,-0.9886853694915771,0.7147123217582703
1702059351899638300,0.13363818359375,-0.1537853181362152,-1.578475832939148,0.6429356932640076
1702059351916626400,0.15062646484375,0.07987063378095627,-1.6756033897399902,0.7481572031974792
1702059351933622500,0.16762255859375,0.3952298164367676,-1.0719157457351685,0.8292495608329773
1702059351950609000,0.18460888671875,0.43020185828208923,-0.9619600176811218,0.8930850028991699
1702059351967608000,0.201608154296875,0.057879481464624405,-1.0100656747817993,0.9404270648956299
1702059351984603000,0.218602783203125,-0.27779096364974976,-1.5567901134490967,0.8556694984436035
1702059352001600300,0.235600341796875,-0.2886338233947754,-2.5718953609466553,0.7061602473258972
1702059352018594300,0.25259423828125,-0.3703370690345764,-3.2652275562286377,0.8000807762145996
1702059352035588000,0.269588134765625,-0.5019785165786743,-3.392134666442871,0.9283624291419983
1702059352052574000,0.286573974609375,-0.8614727258682251,-3.271946907043457,1.19912850856781
1702059352069589200,0.30358935546875,-1.3222178220748901,-3.187800168991089,1.3952162265777588
1702059352086568400,0.320568359375,-1.563051462173462,-4.052937984466553,1.558011770248413
1702059352103562800,0.337562744140625,-1.548237919807434,-5.595373153686523,1.6410894393920898
1702059352120546800,0.354546875,-1.3849842548370361,-4.747644901275635,1.7925840616226196
1702059352137546000,0.3715458984375,-1.0265589952468872,-3.0552425384521484,2.094046115875244
1702059352154547200,0.388547119140625,-0.6769914031028748,-2.2734878063201904,2.2072088718414307
1702059352171537000,0.405536865234375,-0.5722280144691467,-2.5645649433135986,2.1591031551361084
1702059352188529200,0.422529052734375,-0.760832667350769,-2.9237537384033203,1.9375118017196655
1702059352205515800,0.439515869140625,-0.8190175890922546,-2.3469443321228027,1.5824464559555054
1702059352222529000,0.456529052734375,-0.7359399199485779,-1.190423607826233,1.0322095155715942
1702059352239513000,0.47351318359375,-0.5018258094787598,-0.025961773470044136,0.47830748558044434
1702059352256505900,0.490505859375,-0.3517056703567505,0.4479169547557831,0.1062905490398407
1702059352273502700,0.507502685546875,-0.4034765064716339,0.04734205827116966,-0.07788532227277756
1702059352290498000,0.524498046875,-0.5283984541893005,-0.5526803135871887,-0.07238753139972687
1702059352307486500,0.541486572265625,-0.43676865100860596,-0.46990808844566345,0.05604688450694084
1702059352324481800,0.558481689453125,-0.39187005162239075,0.058337632566690445,0.24098633229732513
1702059352341466600,0.575466552734375,-0.2474004179239273,0.8335255980491638,0.09422596544027328
1702059352358467800,0.5924677734375,-0.3078760802745819,-0.5167919993400574,0.8408560156822205
1702059352375464000,0.6094638671875,-0.44394633173942566,-1.638493299484253,0.493731826543808
1702059352392457500,0.62645751953125,-0.44486260414123535,-1.6022995710372925,0.44776421785354614
1702059352409449200,0.64344921875,-0.5638286471366882,-1.072068452835083,0.47678032517433167
1702059352426446600,0.660446533203125,-0.5119050741195679,-0.5908594131469727,0.637132465839386
1702059352443438800,0.67743896484375,-0.4283692538738251,-0.3627012372016907,0.7678576111793518
1702059352460434400,0.694434326171875,-0.33307427167892456,-0.005345070734620094,0.9161451458930969
1702059352477423900,0.711423828125,-0.3410155177116394,-0.0377209298312664,0.5962044596672058
1702059352494421500,0.72842138671875,-0.37308594584465027,-0.8284859657287598,0.08811730891466141
1702059352511415800,0.745415771484375,-0.3171917796134949,-1.0057896375656128,-0.06918048858642578
1702059352528405800,0.76240576171875,-0.3747658133506775,-0.7287622094154358,-0.01863138936460018
1702059352545403000,0.77940283203125,-0.4567744731903076,-0.4040873646736145,0.1036943718791008
1702059352562396700,0.796396728515625,-0.4625777006149292,-0.13866640627384186,0.2503020465373993
1702059352579388000,0.813387939453125,-0.44806966185569763,-0.06612616032361984,0.41890084743499756
1702059352596384500,0.830384521484375,-0.46639561653137207,-0.13255776464939117,0.4680754840373993
1702059352613377300,0.847377197265625,-0.49357911944389343,-0.20143280923366547,0.2981022298336029
1702059352630371300,0.864371337890625,-0.46379944682121277,-0.20601430535316467,0.05955936014652252
1702059352647365600,0.88136572265625,-0.37950003147125244,-0.14263702929019928,-0.016493361443281174
1702059352664359000,0.89835888671875,-0.2635883390903473,0.02535090781748295,0.050243668258190155
1702059352681355300,0.915355224609375,-0.2733621895313263,0.02321287989616394,0.07956519722938538
1702059352698344700,0.9323447265625,-0.3962988257408142,-0.01466076634824276,0.0832303911447525
1702059352715341600,0.949341552734375,-0.47280970215797424,-0.032528575509786606,0.05849034711718559
1702059352732331000,0.9663310546875,-0.4453207552433014,0.021532999351620674,0.08796459436416626
1702059352749325300,0.9833251953125,-0.35903605818748474,0.01863138936460018,0.11575896292924881
1702059352766324000,1.000323974609375,-0.33505958318710327,0.013439035043120384,0.06658431142568588
1702059352783316000,1.01731591796875,-0.3723223805427551,-0.009773843921720982,-0.0012217304902151227
1702059352800311600,1.0343115234375,-0.3854559659957886,-0.05604688450694084,-0.03940080851316452
1702059352817302800,1.051302734375,-0.39477166533470154,-0.08078692853450775,-0.08521570265293121
1702059352834298600,1.068298583984375,-0.39874228835105896,-0.06582073122262955,-0.05406157299876213
1702059352851292700,1.085292724609375,-0.41523563861846924,-0.003512475173920393,0.022907447069883347
1702059352868287000,1.102286865234375,-0.47739118337631226,0.06490442901849747,0.09193521738052368
1702059352885276400,1.1192763671875,-0.5189300179481506,0.0429132841527462,0.1241583600640297
1702059352902257400,1.13625732421875,-0.5716171264648438,-0.07208210229873657,0.08139779418706894
1702059352919264800,1.1532646484375,-0.6571382880210876,-0.16523905098438263,0.002138028386980295
1702059352936262100,1.17026220703125,-0.7389942407608032,-0.16859880089759827,0.0032070425804704428
1702059352953245700,1.18724560546875,-0.8058840036392212,-0.12782354652881622,0.06520986557006836
1702059352970251800,1.204251708984375,-0.8680394887924194,-0.10674870014190674,0.12660181522369385
1702059352987239700,1.22123974609375,-0.9738719463348389,-0.10231992602348328,0.15974126756191254
1702059353004236300,1.238236328125,-1.1044443845748901,-0.14416420459747314,0.12293662875890732
1702059353021232000,1.255232177734375,-1.2290608882904053,-0.2076941877603531,0.07696902006864548
1702059353038222800,1.272222900390625,-1.36482572555542,-0.21151208877563477,0.11010845750570297
1702059353055218000,1.289218017578125,-1.4897476434707642,-0.19792033731937408,0.14905111491680145
1702059353072213500,1.306213623046875,-1.6336064338684082,-0.182648703455925,0.1618792861700058
1702059353089200600,1.32320068359375,-1.8041905164718628,-0.12522737681865692,0.24617868661880493
1702059353106194000,1.34019384765625,-1.99752938747406,-0.078343465924263,0.3150537610054016
1702059353123199700,1.35719970703125,-2.2047653198242188,-0.08338310569524765,0.2974913716316223
1702059353140186600,1.3741865234375,-2.358856201171875,-0.13729196786880493,0.2652682363986969
1702059353157181200,1.39118115234375,-2.4602596759796143,-0.1638645976781845,0.2773328125476837
1702059353174176300,1.40817626953125,-2.5337162017822266,-0.16401731967926025,0.3208569586277008
1702059353191170600,1.425170654296875,-2.5767822265625,-0.17608191072940826,0.39553526043891907
1702059353208160800,1.442160888671875,-2.6206119060516357,-0.22663100063800812,0.4740314185619354
1702059353225156900,1.459156982421875,-2.6791021823883057,-0.27580565214157104,0.48059824109077454
1702059353242153500,1.476153564453125,-2.7456865310668945,-0.33429601788520813,0.446389764547348
1702059353259142000,1.493141845703125,-2.774397134780884,-0.299018532037735,0.4066835343837738
1702059353276139300,1.51013916015625,-2.6836836338043213,-0.18112154304981232,0.3643811047077179
1702059353293132300,1.52713232421875,-2.5143213272094727,-0.11438451707363129,0.29016098380088806
1702059353310128600,1.544128662109375,-2.3692407608032227,-0.15775595605373383,0.21624629199504852
1702059353327117300,1.561117431640625,-2.286621332168579,-0.22021691501140594,0.20463985204696655
1702059353344111900,1.57811181640625,-2.2259929180145264,-0.16722436249256134,0.2561052441596985
1702059353361111300,1.595111328125,-2.1473441123962402,-0.08048149943351746,0.39064833521842957
1702059353378093000,1.612093017578125,-2.073582172393799,-0.012064588256180286,0.47479501366615295
1702059353395094800,1.6290947265625,-1.9882136583328247,-0.018325956538319588,0.4086688458919525
1702059353412091400,1.64609130859375,-1.9016234874725342,-0.059864792972803116,0.3306308090686798
1702059353429080800,1.663080810546875,-1.8597792387008667,-0.03955352306365967,0.3397938013076782
1702059353446078700,1.68007861328125,-1.8474092483520508,-0.0354301854968071,0.3880521357059479
1702059353463071000,1.697071044921875,-1.8706220388412476,-0.07880161702632904,0.41370847821235657
1702059353480066300,1.71406640625,-1.9185750484466553,-0.13836097717285156,0.40591996908187866
1702059353497056300,1.73105615234375,-1.93598473072052,-0.1621847152709961,0.39416080713272095
1702059353514040600,1.74804052734375,-1.8777997493743896,-0.09529497474431992,0.32940909266471863
1702059353531048700,1.765048583984375,-1.6895005702972412,-0.07437284290790558,0.22113321721553802
1702059353548038000,1.782037841796875,-1.4911220073699951,-0.14737124741077423,0.1059851199388504
1702059353565032400,1.799032470703125,-1.3709343671798706,-0.16371189057826996,0.031001411378383636
1702059353582032400,1.816032470703125,-1.3179417848587036,-0.09407325088977814,0.0757472887635231
1702059353599019800,1.833019775390625,-1.3002266883850098,0.03039054572582245,0.21059578657150269
1702059353616014300,1.850014404296875,-1.3396275043487549,0.09972374886274338,0.365755558013916
1702059353633012000,1.867011962890625,-1.3730723857879639,0.14538592100143433,0.4184426963329315
1702059353649996000,1.88399609375,-1.3222178220748901,0.1108720451593399,0.33337971568107605
1702059353666995000,1.900994873046875,-1.1869112253189087,0.04245513305068016,0.2145664244890213
1702059353683991000,1.917990966796875,-1.0687087774276733,0.07590000331401825,0.20601430535316467
1702059353700987000,1.93498681640625,-1.0488556623458862,0.1459967941045761,0.27259862422943115
1702059353717977600,1.9519775390625,-1.1186469793319702,0.11285735666751862,0.2874121069908142
1702059353734971000,1.968970947265625,-1.1959214210510254,-0.0027488935738801956,0.19975294172763824
1702059353751970000,1.985969970703125,-1.221272349357605,-0.11316278576850891,0.060475658625364304
1702059353768962000,2.002962158203125,-1.1603385210037231,-0.07880161702632904,0.021074850112199783
1702059353785956000,2.0199560546875,-1.0580185651779175,0.04444044828414917,0.13072516024112701
1702059353802948600,2.036948486328125,-0.9808968901634216,0.10002918541431427,0.21868975460529327
1702059353819943400,2.053943359375,-0.9630290865898132,0.058795779943466187,0.21059578657150269
1702059353836934100,2.07093408203125,-0.9566149711608887,0.005803219974040985,0.17150041460990906
1702059353853931000,2.087930908203125,-0.9347765445709229,-0.01160643994808197,0.12507465481758118
1702059353870925600,2.104925537109375,-0.8648324608802795,-0.002138028386980295,0.11056660860776901
1702059353887915300,2.121915283203125,-0.7487680912017822,-0.023518312722444534,0.1411098688840866
1702059353904912000,2.138911865234375,-0.6655376553535461,0.01924225501716137,0.16050484776496887
1702059353921908200,2.155908203125,-0.6165157556533813,0.08216137439012527,0.17256943881511688
1702059353938890000,2.172889892578125,-0.5801692605018616,0.059406645596027374,0.17989981174468994
1702059353955891700,2.1898916015625,-0.5836817622184753,0.010079276748001575,0.14019356667995453
1702059353972889300,2.206889404296875,-0.5641340613365173,-0.047189339995384216,0.057879481464624405
1702059353989878500,2.22387841796875,-0.5025894045829773,-0.051312681287527084,0.039706241339445114
1702059354006872600,2.24087255859375,-0.4127921760082245,-0.010079276748001575,0.05925392732024193
1702059354023868700,2.25786865234375,-0.2981022298336029,0.019853120669722557,0.08765916526317596
1702059354040864500,2.274864501953125,-0.21807889640331268,0.014355333521962166,0.07528914511203766
1702059354057855000,2.29185498046875,-0.2073887437582016,-0.010231993161141872,0.05146539583802223
1702059354074851000,2.30885107421875,-0.21090123057365417,-0.02367102913558483,0.033597588539123535
1702059354091853300,2.325853271484375,-0.20082195103168488,-0.017867809161543846,0.04886921867728233
1702059354108843500,2.342843505859375,-0.18967366218566895,-0.01664607785642147,0.06765332818031311
1702059354125823700,2.35982373046875,-0.17333301901817322,-0.020922135561704636,0.058337632566690445
1702059354142821000,2.376821044921875,-0.13836097717285156,-0.03298672288656235,0.03481931984424591
1702059354159821800,2.39382177734375,-0.10155634582042694,-0.031154127791523933,0.03649919852614403
1702059354176812800,2.410812744140625,-0.06765332818031311,0.01038470957428217,0.05115996301174164
1702059354193810400,2.427810546875,-0.08032877743244171,0.04581489413976669,0.04001167416572571
1702059354210808300,2.444808349609375,-0.10842858254909515,0.025045474991202354,0.021532999351620674
1702059354227778600,2.461778564453125,-0.15821409225463867,0.027488935738801956,0.029016099870204926
1702059354244789000,2.4787890625,-0.1586722433567047,0.038637228310108185,0.03344487398862839
1702059354261785600,2.49578564453125,-0.0806342139840126,0.01237002108246088,0.018020525574684143
1702059354278774500,2.5127744140625,-0.0024434609804302454,-0.03848451003432274,-0.03405573591589928
1702059354295772200,2.529772216796875,0.012064588256180286,-0.08261952549219131,-0.059406645596027374
1702059354312764700,2.5467646484375,-0.01114829070866108,-0.08567385375499725,-0.051312681287527084
1702059354329761000,2.563760986328125,-0.024892758578062057,-0.052839845418930054,-0.005345070734620094
1702059354346750500,2.58075048828125,-0.01771509274840355,-0.02779436856508255,0.01542434748262167
1702059354363746300,2.597746337890625,-0.004123340360820293,-0.04352414980530739,0.012675453908741474
1702059354380731600,2.614731689453125,0.001832595793530345,-0.06322455406188965,-0.009010262787342072
1702059354397732600,2.631732666015625,0.0025961773935705423,-0.07559457421302795,-0.03130684420466423
1702059354414728000,2.64872802734375,0.0027488935738801956,-0.04260785132646561,-0.019853120669722557
1702059354431723500,2.6657236328125,0,-0.010079276748001575,0.0025961773935705423
1702059354448713200,2.682713134765625,-0.04153883829712868,-0.004123340360820293,0.02687807008624077
1702059354465711400,2.69971142578125,-0.11255192011594772,-0.015882495790719986,0.03039054572582245
1702059354482703400,2.716703369140625,-0.1518000066280365,-0.0012217304902151227,0.02672535367310047
1702059354499699200,2.73369921875,-0.14492778480052948,0.029932396486401558,0.029016099870204926
1702059354516688000,2.75068798828125,-0.03940080851316452,0.02687807008624077,0.018936822190880775
1702059354533688000,2.76768798828125,0.08277224004268646,-0.0019853119738399982,-0.03573561832308769
1702059354550680600,2.7846806640625,0.10980302840471268,0.007788531947880983,-0.05742133408784866
1702059354567670300,2.801670166015625,0.08689557760953903,0.053297992795705795,-0.005803219974040985
1702059354584664800,2.818664794921875,0.08994990587234497,0.04489859566092491,0.029168816283345222
1702059354601665300,2.835665283203125,0.08399397134780884,-0.00427605677396059,0.013591751456260681
1702059354618652000,2.85265185546875,0.08246681094169617,-0.017867809161543846,-0.004734205547720194
1702059354635649300,2.869649169921875,0.09987647086381912,0.012064588256180286,-0.02122756652534008
1702059354652640300,2.88664013671875,0.13545936346054077,0.04306599870324135,-0.05467243865132332
1702059354669640700,2.903640625,0.1618792861700058,0.07727445662021637,-0.05192354694008827
1702059354686627300,2.92062744140625,0.15515977144241333,0.08765916526317596,-0.024129176512360573
1702059354703623700,2.937623779296875,0.1316414624452591,0.05146539583802223,0.012675453908741474
1702059354720619500,2.95461962890625,0.10903944820165634,0.02474004216492176,0.016798794269561768
1702059354737610000,2.97160986328125,0.14477506279945374,0.05757404863834381,-0.0074830991216003895
1702059354754605300,2.988605224609375,0.24327708780765533,0.10018189996480942,-0.07422012835741043
1702059354771589000,3.005589111328125,0.4127921760082245,0.08246681094169617,-0.1085812970995903
1702059354788594400,3.022594482421875,0.5204572081565857,0.05711590126156807,-0.076052725315094
1702059354805573600,3.03957373046875,0.4938845634460449,0.05146539583802223,-0.012522737495601177
1702059354822581800,3.056581787109375,0.43188172578811646,0.07238753139972687,0.042760565876960754
1702059354839596800,3.0735966796875,0.4343251883983612,0.07864890247583389,0.023518312722444534
1702059354856570400,3.0905703125,0.5510004758834839,0.09285151958465576,-0.056810468435287476
1702059354873563600,3.107563720703125,0.769079327583313,0.09987647086381912,-0.13301590085029602
1702059354890566700,3.124566650390625,1.0097602605819702,0.08659014850854874,-0.1293507218360901
1702059354907551500,3.141551513671875,1.0965031385421753,0.08552113175392151,-0.05054909735918045
1702059354924545000,3.158544921875,1.0632109642028809,0.018478672951459885,0.0007635815418325365
1702059354941540000,3.1755400390625,1.0267117023468018,-0.005192354787141085,-0.0328340083360672
1702059354958532900,3.192532958984375,1.1242974996566772,0.05803219974040985,-0.04856378585100174
1702059354975524600,3.209524658203125,1.3226759433746338,0.16203200817108154,-0.04505131021142006
1702059354992522800,3.226522705078125,1.5193746089935303,0.13179416954517365,-0.1241583600640297
1702059355009515500,3.243515625,1.633148193359375,-0.009621127508580685,-0.26022860407829285
1702059355026508300,3.26050830078125,1.623374342918396,-0.045204028487205505,-0.2762638032436371
1702059355043495000,3.277494873046875,1.5925257205963135,0.17959438264369965,-0.18005253374576569
1702059355060494000,3.294494140625,1.6723963022232056,0.39538252353668213,-0.05100724846124649
1702059355077493800,3.31149365234375,1.8617645502090454,0.38408151268959045,-0.029168816283345222
1702059355094473500,3.328473388671875,1.9562959671020508,0.10155634582042694,-0.28695395588874817
1702059355111477800,3.345477783203125,2.0370829105377197,-0.12171489745378494,-0.566730260848999
1702059355128471600,3.362471435546875,2.155743360519409,-0.076052725315094,-0.5884159207344055
1702059355145466600,3.379466552734375,2.2957842350006104,0.20433442294597626,-0.4072943925857544
1702059355162459400,3.39645947265625,2.434145212173462,0.3058907687664032,-0.24953845143318176
1702059355179453200,3.413453125,2.4689645767211914,0.058948494493961334,-0.3790418803691864
1702059355196447200,3.430447265625,2.3828325271606445,-0.15256360173225403,-0.5729916095733643
1702059355213442000,3.447442138671875,2.3628268241882324,-0.10247264802455902,-0.5453499555587769
1702059355230435000,3.46443505859375,2.4275784492492676,0.0981965884566307,-0.4179845452308655
1702059355247418400,3.48141845703125,2.481792688369751,0.11026117950677872,-0.3758348524570465
1702059355264419600,3.498419677734375,2.411543369293213,0.009926560334861279,-0.4433354437351227
1702059355281420500,3.515420654296875,2.2826507091522217,0.02733621932566166,-0.489608496427536
1702059355298410200,3.53241015625,2.364659309387207,0.05711590126156807,-0.4671591818332672
1702059355315404300,3.549404296875,2.6088528633117676,0.08384125679731369,-0.38026362657546997
1702059355332398000,3.566398193359375,2.7931814193725586,-0.0607810914516449,-0.3436116874217987
1702059355349393200,3.58339306640625,2.7927231788635254,-0.15271630883216858,-0.3900374472141266
1702059355366386000,3.600385986328125,2.696817398071289,0.01038470957428217,-0.3675881624221802
1702059355383379700,3.617379638671875,2.6613872051239014,0.31154128909111023,-0.22418753802776337
1702059355400373800,3.634373779296875,2.7540860176086426,0.4573853611946106,-0.12202033400535583
1702059355417368800,3.651368896484375,2.8260152339935303,0.3220787048339844,-0.25824329257011414
1702059355434361900,3.66836181640625,2.833040237426758,0.1586722433567047,-0.3903428912162781
1702059355451355400,3.68535546875,2.796999216079712,0.17730364203453064,-0.3695734739303589
1702059355468351000,3.70235107421875,2.7371344566345215,0.4775438904762268,-0.1612684279680252
1702059355485346800,3.719346923828125,2.7510316371917725,0.7205155491828918,0.035582900047302246
1702059355502334200,3.736334228515625,2.7537806034088135,0.6747006773948669,-0.05390885844826698
1702059355519330800,3.753330810546875,2.7036895751953125,0.44593164324760437,-0.3032945990562439
1702059355536324900,3.770324951171875,2.6725354194641113,0.2626720666885376,-0.5720753073692322
1702059355553319700,3.787319580078125,2.629927635192871,0.2142609804868698,-0.5248859524726868
1702059355570314200,3.804314208984375,2.493246555328369,0.33399057388305664,-0.2837468981742859
1702059355587306500,3.821306396484375,2.2852468490600586,0.48716503381729126,-0.1287398487329483
1702059355604289500,3.83828955078125,2.0958786010742188,0.42210787534713745,-0.2174680233001709
1702059355621300500,3.855300537109375,1.9984456300735474,0.27320948243141174,-0.3588833212852478
1702059355638285600,3.87228564453125,1.9240728616714478,0.2255619913339615,-0.40301835536956787
1702059355655284700,3.88928466796875,1.8411478996276855,0.23197607696056366,-0.40133845806121826
1702059355672275500,3.906275390625,1.6986634731292725,0.26190847158432007,-0.3784310221672058
1702059355689270500,3.9232705078125,1.5166256427764893,0.3260493278503418,-0.3413209617137909
1702059355706262300,3.94026220703125,1.3877331018447876,0.35934147238731384,-0.35750889778137207
1702059355723259000,3.9572587890625,1.3112221956253052,0.3455969989299774,-0.33505958318710327
1702059355740257000,3.974257080078125,1.2173017263412476,0.2915354371070862,-0.3162754774093628
1702059355757246200,3.99124609375,1.1084150075912476,0.2565633952617645,-0.2736676335334778
1702059355774239200,4.0082392578125,0.9802860021591187,0.2611449062824249,-0.22876903414726257
1702059355791233000,4.02523291015625,0.8429940342903137,0.2793181240558624,-0.2154827117919922
1702059355808227000,4.04222705078125,0.7402159571647644,0.30024027824401855,-0.2025018334388733
1702059355825221600,4.0592216796875,0.6618725061416626,0.3078760802745819,-0.14767667651176453
1702059355842221000,4.076220947265625,0.5746715068817139,0.26939156651496887,-0.0861319974064827
1702059355859208400,4.09320849609375,0.47800204157829285,0.19257527589797974,-0.07681630551815033
1702059355876202500,4.110202392578125,0.41920626163482666,0.12919799983501434,-0.07528914511203766
1702059355893197300,4.127197265625,0.39416080713272095,0.10522153973579407,-0.06872233748435974
1702059355910187300,4.144187255859375,0.37797287106513977,0.08674286305904388,-0.06658431142568588
1702059355927187000,4.16118701171875,0.33108896017074585,0.08078692853450775,-0.051770828664302826
1702059355944178000,4.178177978515625,0.2626720666885376,0.08552113175392151,-0.02535090781748295
1702059355961172700,4.1951728515625,0.18616119027137756,0.07590000331401825,0.014355333521962166
1702059355978165500,4.21216552734375,0.1385136991739273,0.03940080851316452,0.03298672288656235
1702059355995159600,4.22915966796875,0.13271047174930573,0.02168571576476097,0.019853120669722557
1702059356012149200,4.246149169921875,0.15347988903522491,0.03497203439474106,0.012980886735022068
1702059356029148200,4.263148193359375,0.16111570596694946,0.04306599870324135,-0.0027488935738801956
1702059356046144500,4.28014453125,0.1537853181362152,0.03726277872920036,-0.017867809161543846
1702059356063131600,4.297131591796875,0.1388191282749176,0.01817324012517929,-0.02672535367310047
1702059356080128800,4.314128662109375,0.1287398487329483,-0.01038470957428217,-0.03634648025035858
1702059356097123800,4.331123779296875,0.10995574295520782,-0.038179077208042145,-0.04505131021142006
1702059356114116600,4.34811669921875,0.078343465924263,-0.03405573591589928,-0.032681290060281754
1702059356131110400,4.3651103515625,0.04917465150356293,-0.005955935921519995,-0.007024950347840786
1702059356148104400,4.3821044921875,0.021532999351620674,-0.0032070425804704428,-0.007024950347840786
1702059356165099300,4.399099365234375,0.02871066704392433,-0.02367102913558483,-0.0377209298312664
1702059356182092300,4.41609228515625,0.03084869496524334,-0.030237829312682152,-0.04886921867728233
1702059356199086300,4.43308642578125,0.002138028386980295,-0.027947084978222847,-0.02825251780450344
1702059356216080000,4.450079833984375,-0.030695978552103043,-0.03726277872920036,-0.01725694350898266
1702059356233064200,4.467064208984375,-0.031612277030944824,-0.05100724846124649,-0.019547687843441963
1702059356250067700,4.484067626953125,-0.021380282938480377,-0.05772676691412926,-0.024434609338641167
1702059356267061800,4.501061767578125,-0.009926560334861279,-0.05360342562198639,-0.012675453908741474
1702059356284045000,4.518045166015625,0.004734205547720194,-0.03588833287358284,0.004886921960860491
1702059356301050400,4.53505029296875,0.004123340360820293,-0.01572977937757969,0.013897184282541275
1702059356318043400,4.55204345703125,-0.01725694350898266,-0.016951510682702065,-0.0013744467869400978
1702059356335037200,4.569037109375,-0.05054909735918045,-0.025656340643763542,-0.02519819140434265
1702059356352031000,4.586031005859375,-0.08674286305904388,-0.021838432177901268,-0.031154127791523933
1702059356369024500,4.6030244140625,-0.11255192011594772,-0.020463986322283745,-0.025503624230623245
1702059356386031000,4.620031005859375,-0.12140946835279465,-0.02428189292550087,-0.020463986322283745
1702059356403014100,4.63701416015625,-0.1310305893421173,-0.023365596309304237,-0.00366519158706069
1702059356420005000,4.654005126953125,-0.15195272862911224,-0.021380282938480377,0.01878410577774048
1702059356437000400,4.67100048828125,-0.19792033731937408,-0.039706241339445114,0.021838432177901268
1702059356453996800,4.687996826171875,-0.26939156651496887,-0.06383541971445084,0.024434609338641167
1702059356470988000,4.704988037109375,-0.35185837745666504,-0.07162395119667053,0.04902193695306778
1702059356487982000,4.721982177734375,-0.413555771112442,-0.06780604273080826,0.07376197725534439
1702059356504977200,4.73897705078125,-0.46731191873550415,-0.06230825558304787,0.08674286305904388
1702059356521969700,4.7559697265625,-0.5485569834709167,-0.04703662544488907,0.08475755155086517
1702059356538963700,4.772963623046875,-0.7220427393913269,-0.05009094998240471,0.08628471940755844
1702059356555957800,4.789957763671875,-0.9590584635734558,-0.07147123664617538,0.10491610318422318
1702059356572956000,4.806955810546875,-1.1867583990097046,-0.08689557760953903,0.13530665636062622
1702059356589942000,4.82394189453125,-1.370781660079956,-0.09529497474431992,0.1598939746618271
1702059356606939100,4.840939208984375,-1.548237919807434,-0.1316414624452591,0.17256943881511688
1702059356623933200,4.85793310546875,-1.735010027885437,-0.17058411240577698,0.2148718535900116
1702059356640925400,4.874925537109375,-1.9210184812545776,-0.2194533348083496,0.2961169183254242
1702059356657923600,4.891923583984375,-2.1138992309570312,-0.23777928948402405,0.3930917978286743
1702059356674914600,4.90891455078125,-2.2817344665527344,-0.18096883594989777,0.48548516631126404
1702059356691909000,4.9259091796875,-2.446057081222534,-0.14584407210350037,0.5369505286216736
1702059356708903700,4.942903564453125,-2.6001479625701904,-0.17012597620487213,0.574976921081543
1702059356725896400,4.959896484375,-2.738203525543213,-0.21792617440223694,0.623235285282135
1702059356742890200,4.97689013671875,-2.8657214641571045,-0.24862214922904968,0.6638578176498413
1702059356759879200,4.993879150390625,-2.9688050746917725,-0.23716843128204346,0.6976081132888794
1702059356776879000,5.010879150390625,-3.0170633792877197,-0.23182335495948792,0.7032586336135864
1702059356793872000,5.027871826171875,-3.0361530780792236,-0.2382374405860901,0.684779942035675
1702059356810866000,5.044865966796875,-3.031571388244629,-0.24007004499435425,0.6618725061416626
1702059356827857200,5.061857177734375,-3.0476067066192627,-0.2356412708759308,0.6366742849349976
1702059356844831700,5.078831787109375,-3.0833423137664795,-0.22418753802776337,0.6304129362106323
1702059356861849900,5.095849853515625,-3.0802879333496094,-0.1820378452539444,0.6496551632881165
1702059356878830800,5.112830810546875,-3.008816719055176,-0.1469130963087082,0.6739370822906494
1702059356895835100,5.129835205078125,-2.89534854888916,-0.13057245314121246,0.6800457239151001
1702059356912830500,5.14683056640625,-2.763401746749878,-0.12828169763088226,0.7023423314094543
1702059356929823000,5.163822998046875,-2.643519401550293,-0.20066922903060913,0.693637490272522
1702059356946817000,5.180817138671875,-2.5532639026641846,-0.2451096773147583,0.6711881756782532
1702059356963810800,5.197810791015625,-2.504547595977783,-0.12293662875890732,0.7134906053543091
1702059356980805600,5.2148056640625,-2.4361305236816406,-0.016493361443281174,0.7122688889503479
1702059356997798400,5.23179833984375,-2.373058795928955,-0.030085112899541855,0.5971207618713379
1702059357014792400,5.24879248046875,-2.331519842147827,-0.13469578325748444,0.4294382631778717
1702059357031786200,5.2657861328125,-2.261117696762085,-0.20357084274291992,0.3625485301017761
1702059357048781300,5.28278125,-2.1925480365753174,-0.22586742043495178,0.42867469787597656
1702059357065772000,5.29977197265625,-2.1400136947631836,-0.22739458084106445,0.5042692422866821
1702059357082770200,5.316770263671875,-2.0427334308624268,-0.16722436249256134,0.4847215712070465
1702059357099762000,5.333761962890625,-1.8261816501617432,-0.11942415684461594,0.3139847218990326
1702059357116756700,5.3507568359375,-1.54945969581604,-0.09728029370307922,0.21135938167572021
1702059357133739300,5.3677392578125,-1.315040111541748,-0.2324342280626297,0.2845104932785034
1702059357150743600,5.38474365234375,-1.3587169647216797,-0.32818734645843506,0.3706424832344055
1702059357167737300,5.4017373046875,-1.623068928718567,-0.45142942667007446,0.3854559659957886
1702059357184732400,5.418732421875,-1.867567777633667,-0.4818199574947357,0.4369213581085205
1702059357201725200,5.43572509765625,-1.902539849281311,-0.38240164518356323,0.44058656692504883
1702059357218716400,5.45271630859375,-1.7458528280258179,-0.2243402600288391,0.3836233615875244
1702059357235715600,5.469715576171875,-1.4448490142822266,-0.2561052441596985,0.2548835277557373
1702059357252705300,5.486705322265625,-1.2789990901947021,-0.3321579694747925,0.19578230381011963
1702059357269695200,5.5036953125,-1.3423763513565063,-0.361174076795578,0.285121351480484
1702059357286694400,5.5206943359375,-1.5094480514526367,-0.3045163154602051,0.4389066696166992
1702059357303684400,5.537684326171875,-1.6507105827331543,-0.22907446324825287,0.5148066878318787
1702059357320687600,5.5546875,-1.6125315427780151,-0.166460782289505,0.4440990388393402
1702059357337681700,5.571681640625,-1.4384349584579468,-0.06811147183179855,0.3049744665622711
1702059357354670000,5.588670166015625,-1.2311989068984985,-0.04886921867728233,0.22388210892677307
1702059357371664100,5.6056640625,-1.1759155988693237,-0.05726861581206322,0.20906862616539001
1702059357388659000,5.622658935546875,-1.1827877759933472,-0.10247264802455902,0.242513507604599
1702059357405652000,5.63965185546875,-1.1684324741363525,-0.06536258012056351,0.29917123913764954
1702059357422645800,5.656645751953125,-1.0705413818359375,0.06902777403593063,0.2857322096824646
1702059357439639600,5.6736396484375,-0.9242390990257263,0.10277807712554932,0.2197587788105011
1702059357456634400,5.69063427734375,-0.8629998564720154,0.02535090781748295,0.1235474944114685
1702059357473627400,5.70762744140625,-0.9289733171463013,-0.06902777403593063,0.09239336848258972
1702059357490621200,5.72462109375,-0.9778425693511963,-0.0959058403968811,0.1264491081237793
1702059357507615200,5.741615234375,-0.9749409556388855,-0.07727445662021637,0.16920967400074005
1702059357524610000,5.758610107421875,-0.8918632864952087,-0.03955352306365967,0.17852537333965302
1702059357541602600,5.7756025390625,-0.7785477638244629,-0.04199698567390442,0.18631389737129211
1702059357558597000,5.79259716796875,-0.6861543655395508,-0.0835358202457428,0.17837265133857727
1702059357575590700,5.809590576171875,-0.6450737118721008,-0.13775011897087097,0.16203200817108154
1702059357592585500,5.82658544921875,-0.6624833345413208,-0.13515393435955048,0.11988230794668198
1702059357609578200,5.843578125,-0.6543893814086914,-0.08796459436416626,0.10720685124397278
1702059357626570000,5.860570068359375,-0.6319400668144226,-0.04932736977934837,0.15027284622192383
1702059357643568600,5.877568603515625,-0.6415612101554871,-0.04382958263158798,0.16722436249256134
1702059357660561200,5.89456103515625,-0.6145304441452026,-0.04489859566092491,0.17470745742321014
1702059357677554000,5.911553955078125,-0.5157229900360107,-0.03985895588994026,0.1417207419872284
1702059357694548000,5.9285478515625,-0.3805690407752991,-0.060322944074869156,0.0887281745672226
1702059357711541800,5.945541748046875,-0.30802878737449646,-0.07849618047475815,0.04612032696604729
1702059357728536600,5.96253662109375,-0.30314189195632935,-0.08048149943351746,0.059864792972803116
1702059357745529600,5.979529541015625,-0.32681289315223694,-0.03222314268350601,0.11026117950677872
1702059357762523400,5.9965234375,-0.2981022298336029,-0.033597588539123535,0.1033889427781105
1702059357779517200,6.01351708984375,-0.24694228172302246,-0.02382374368607998,0.05115996301174164
1702059357796512000,6.030511962890625,-0.13775011897087097,-0.013744467869400978,-0.007941247895359993
1702059357813505000,6.047505126953125,-0.0027488935738801956,-0.020463986322283745,-0.03329215571284294
1702059357830498800,6.064498779296875,-0.015118914656341076,0.003054326167330146,0.015882495790719986
1702059357847492900,6.081492919921875,-0.09453139454126358,0.007024950347840786,0.05955936014652252
1702059357864487700,6.09848779296875,-0.1612684279680252,0.02519819140434265,0.07269296050071716
1702059357881478000,6.115477783203125,-0.1508837193250656,-0.005192354787141085,0.024129176512360573
1702059357898466600,6.132466552734375,-0.11301007121801376,-0.026419922709465027,-0.025961773470044136
1702059357915468300,6.14946826171875,-0.08032877743244171,-0.03420845419168472,-0.042760565876960754
1702059357932463000,6.166463134765625,-0.05772676691412926,-0.0032070425804704428,-0.027947084978222847
1702059357949456100,6.1834560546875,-0.07177666574716568,0.012522737495601177,-0.01191187184303999
1702059357966449200,6.20044921875,-0.11239920556545258,0.0006108652451075613,-0.02275473065674305
1702059357983444000,6.21744384765625,-0.08460483700037003,-0.019547687843441963,-0.03497203439474106
1702059358000437500,6.2344375,-0.00366519158706069,-0.04260785132646561,-0.043676864355802536
1702059358017432800,6.251432861328125,0.04657847434282303,-0.07559457421302795,-0.036193765699863434
1702059358034425600,6.268425537109375,0.02871066704392433,-0.07620543986558914,-0.013897184282541275
1702059358051419400,6.28541943359375,-0.013439035043120384,-0.041233405470848083,-0.010231993161141872
1702059358068414200,6.302414306640625,-0.03222314268350601,-0.027183502912521362,-0.02871066704392433
1702059358085407200,6.3194072265625,-0.03375030308961868,-0.03298672288656235,-0.030543262138962746
1702059358102401000,6.336401123046875,-0.05726861581206322,-0.06154467165470123,-0.0328340083360672
1702059358119395000,6.35339501953125,-0.08643743395805359,-0.08643743395805359,-0.031612277030944824
1702059358136384800,6.370384765625,-0.11133018881082535,-0.08735372871160507,-0.02626720629632473
1702059358153383000,6.3873828125,-0.12507465481758118,-0.06017022579908371,-0.01710422709584236
1702059358170376700,6.404376708984375,-0.1359175145626068,-0.02428189292550087,0.005803219974040985
1702059358187369500,6.421369384765625,-0.1791362315416336,-0.018325956538319588,0.01771509274840355
1702059358204352800,6.438352783203125,-0.2422080636024475,-0.019394971430301666,0.02733621932566166
1702059358221355800,6.455355712890625,-0.23335053026676178,0.005192354787141085,0.03894266113638878
1702059358238346500,6.472346435546875,-0.14966198801994324,0.029016099870204926,0.03298672288656235
1702059358255348700,6.4893486328125,-0.06123924255371094,0.04245513305068016,0.009010262787342072
1702059358272341000,6.506341064453125,-0.018325956538319588,0.02977968007326126,0.0019853119738399982
1702059358289333800,6.523333740234375,-0.029626963660120964,0.022602014243602753,0.01970040425658226
1702059358306328000,6.540328125,-0.04092797264456749,0.009162978269159794,0.023518312722444534
1702059358323321600,6.557321533203125,-0.07177666574716568,-0.016798794269561768,0.02321287989616394
1702059358340316700,6.574316650390625,-0.098502017557621,-0.0328340083360672,0.009621127508580685
1702059358357312800,6.591312744140625,-0.07070764899253845,-0.02229658141732216,-0.01191187184303999
1702059358374297300,6.60829736328125,-0.008857546374201775,0.00427605677396059,-0.023060163483023643
1702059358391299600,6.625299560546875,0.013744467869400978,0.027947084978222847,-0.016798794269561768
1702059358408292000,6.6422919921875,-0.014966198243200779,0.05696318298578262,0.02733621932566166
1702059358425284900,6.659284912109375,-0.03481931984424591,-0.009010262787342072,-0.02977968007326126
1702059358442279000,6.67627880859375,-0.03527746722102165,-0.020311269909143448,-0.028405234217643738
1702059358459272700,6.693272705078125,-0.03039054572582245,-0.018325956538319588,-0.011301007121801376
1702059358476267500,6.710267578125,-0.0354301854968071,-0.012980886735022068,0.008399397134780884
1702059358493260500,6.727260498046875,-0.012064588256180286,0.006719517521560192,0.021532999351620674
1702059358510254300,6.74425439453125,0.05390885844826698,-0.023365596309304237,-0.0039706239476799965
1702059358527248100,6.761248046875,0.08750644326210022,-0.05421429127454758,-0.017562376335263252
1702059358544232700,6.778232666015625,0.07987063378095627,-0.05803219974040985,-0.012980886735022068
1702059358561236000,6.795236083984375,0.06673702597618103,-0.0429132841527462,-0.009621127508580685
1702059358578229800,6.812229736328125,0.06154467165470123,-0.0354301854968071,-0.002138028386980295
1702059358595223800,6.829223876953125,0.06352998316287994,-0.04764748737215996,0.0012217304902151227
1702059358612219000,6.846218994140625,0.061391957104206085,-0.048716504126787186,-0.003817907767370343
1702059358629211600,6.863211669921875,0.06429356336593628,-0.038637228310108185,-0.02825251780450344
1702059358646205400,6.880205322265625,0.10201449692249298,-0.034666601568460464,-0.06108652427792549
1702059358663199200,6.89719921875,0.1264491081237793,-0.035124752670526505,-0.06200282275676727
1702059358680194000,6.914194091796875,0.11194105446338654,-0.03497203439474106,-0.035582900047302246
1702059358697187000,6.93118701171875,0.08460483700037003,-0.03130684420466423,-0.0029016099870204926
1702059358714180900,6.948180908203125,0.0780380368232727,-0.021838432177901268,0.01114829070866108
1702059358731175000,6.9651748046875,0.07925976812839508,0.0019853119738399982,0.025961773470044136
1702059358748167200,6.982167236328125,0.09773843735456467,0.01664607785642147,0.019394971430301666
1702059358765165000,6.9991650390625,0.13011430203914642,0.008246680721640587,-0.012522737495601177
1702059358782156500,7.016156494140625,0.13744467496871948,0.023518312722444534,-0.016798794269561768
1702059358799150300,7.033150390625,0.12293662875890732,0.03390302136540413,-0.003359758760780096
1702059358816145200,7.050145263671875,0.11209376901388168,0.009162978269159794,-0.005345070734620094
1702059358833134300,7.06713427734375,0.10720685124397278,0.005955935921519995,-0.008399397134780884
1702059358850135800,7.0841357421875,0.16584990918636322,0.016951510682702065,-0.01114829070866108
1702059358867126000,7.1011259765625,0.24373523890972137,0.030085112899541855,-0.02932153269648552
1702059358884120800,7.118120849609375,0.2926044464111328,0.012217304669320583,-0.05543602257966995
1702059358901111000,7.135111083984375,0.25732699036598206,-0.02871066704392433,-0.07483099400997162
1702059358918110200,7.152110107421875,0.20005837082862854,-0.031612277030944824,-0.04245513305068016
1702059358935101700,7.169101806640625,0.16340644657611847,-0.006108652334660292,-0.004123340360820293
1702059358952096300,7.18609619140625,0.17638733983039856,0.014049900695681572,0.001832595793530345
1702059358969089000,7.203089111328125,0.18509216606616974,0.0013744467869400978,-0.010231993161141872
1702059358986083000,7.2200830078125,0.19058994948863983,0.005650503560900688,-0.038026362657547
1702059359003077000,7.2370771484375,0.2275473028421402,0.01817324012517929,-0.06490442901849747
1702059359020072000,7.254072021484375,0.24388794600963593,0.05100724846124649,-0.05619960278272629
1702059359037064700,7.271064697265625,0.2782491147518158,0.0685696229338646,-0.03176499158143997
1702059359054058800,7.288058837890625,0.32788193225860596,0.09117163717746735,-0.01878410577774048
1702059359071052500,7.305052490234375,0.4225660264492035,0.08277224004268646,-0.03894266113638878
1702059359088042500,7.32204248046875,0.5581781268119812,0.07147123664617538,-0.058795779943466187
1702059359105038800,7.339038818359375,0.6769914031028748,0.06108652427792549,-0.08231408894062042
1702059359122035700,7.35603564453125,0.7979426980018616,0.02886338345706463,-0.10155634582042694
1702059359139028200,7.3730283203125,0.8947648406028748,0.003512475173920393,-0.13866640627384186
1702059359156023000,7.39002294921875,0.9541715383529663,-0.05100724846124649,-0.22189679741859436
1702059359173015800,7.407015869140625,1.021824836730957,-0.06643159687519073,-0.27030786871910095
1702059359190009600,7.424009521484375,1.1157454252243042,-0.011453723534941673,-0.20891591906547546
1702059359207004000,7.44100390625,1.2356276512145996,0.07101308554410934,-0.1293507218360901
1702059359223998700,7.457998779296875,1.405295491218567,0.15454891324043274,-0.1336267739534378
1702059359240993000,7.474992919921875,1.6108516454696655,0.21639901399612427,-0.21395555138587952
1702059359257985300,7.4919853515625,1.837024450302124,0.20525072515010834,-0.299476683139801
1702059359274978600,7.508978515625,1.9886717796325684,0.16737708449363708,-0.32498031854629517
1702059359291974700,7.525974609375,2.06854248046875,0.1459967941045761,-0.35842517018318176
1702059359308973600,7.5429736328125,2.1145100593566895,0.13347405195236206,-0.40714168548583984
1702059359325961000,7.5599609375,2.1962132453918457,0.15729780495166779,-0.43127086758613586
1702059359342954800,7.576954833984375,2.319302558898926,0.1872301995754242,-0.4537201523780823
1702059359359949600,7.593949462890625,2.535243511199951,0.23777928948402405,-0.46670106053352356
1702059359376942600,7.610942626953125,2.755918502807617,0.2704605758190155,-0.4928155243396759
1702059359393936400,7.627936279296875,2.8990137577056885,0.22876903414726257,-0.5534439086914062
1702059359410927900,7.644927978515625,2.9607112407684326,0.16600263118743896,-0.6976081132888794
1702059359427927600,7.661927490234375,3.0634891986846924,0.15821409225463867,-0.7350236177444458
1702059359444918000,7.67891796875,3.224146842956543,0.19120082259178162,-0.697760820388794
1702059359461912000,7.695912109375,3.4020612239837646,0.25732699036598206,-0.6204863786697388
1702059359478905900,7.71290576171875,3.5388951301574707,0.23884831368923187,-0.6397286057472229
1702059359495894300,7.729894287109375,3.4855971336364746,0.19058994948863983,-0.7541131377220154
1702059359512893400,7.7468935546875,3.3844988346099854,0.2142609804868698,-0.7669413089752197
1702059359529887500,7.763887451171875,3.33868408203125,0.2649627923965454,-0.6910412907600403
1702059359546881300,7.78088134765625,3.333796977996826,0.35613444447517395,-0.6452264189720154
1702059359563876400,7.79787646484375,3.383735418319702,0.351400226354599,-0.6789767146110535
1702059359580869000,7.814869140625,3.4037411212921143,0.23273965716362,-0.8017606139183044
1702059359597863000,7.83186279296875,3.3573153018951416,0.24037547409534454,-0.8159632682800293
1702059359614854400,7.8488544921875,3.3706016540527344,0.38637226819992065,-0.6349944472312927
1702059359631854300,7.865854248046875,3.4549012184143066,0.5348125100135803,-0.38988474011421204
1702059359648844500,7.882844482421875,3.5416438579559326,0.5325217843055725,-0.26710084080696106
1702059359665838600,7.899838623046875,3.5517232418060303,0.43539419770240784,-0.35185837745666504
1702059359682829800,7.916829833984375,3.48712420463562,0.36392298340797424,-0.5371032953262329
1702059359699830000,7.933830078125,3.377932071685791,0.4488332271575928,-0.6198754906654358
1702059359716819000,7.95081884765625,3.4429893493652344,0.5787948369979858,-0.4683809280395508
1702059359733814500,7.967814453125,3.4692564010620117,0.6290385127067566,-0.19685132801532745
1702059359750807800,7.984807861328125,3.3437235355377197,0.5644394755363464,-0.2116648107767105
1702059359767803000,8.001802978515625,3.0575332641601562,0.541532039642334,-0.29657506942749023
1702059359784795600,8.018795654296875,2.9601001739501953,0.4291328489780426,-0.5149593949317932
1702059359801789700,8.035789794921875,2.8440358638763428,0.38759398460388184,-0.6603453159332275
1702059359818783500,8.052783447265625,2.7087292671203613,0.37308594584465027,-0.6415612101554871
1702059359835778300,8.0697783203125,2.506532907485962,0.34177911281585693,-0.6003278493881226
1702059359852771300,8.086771240234375,2.2927300930023193,0.2840523421764374,-0.6472117304801941
1702059359869765000,8.10376513671875,2.0311269760131836,0.2996293902397156,-0.68951416015625
1702059359886759000,8.120759033203125,1.873218297958374,0.2984076738357544,-0.6684392690658569
1702059359903754000,8.13775390625,1.7446311712265015,0.24404066801071167,-0.6294966340065002
1702059359920746800,8.154746826171875,1.6090190410614014,0.21960605680942535,-0.5630650520324707
1702059359937730000,8.17172998046875,1.439351201057434,0.2768746614456177,-0.44028112292289734
1702059359954734600,8.188734619140625,1.2183706760406494,0.3399465084075928,-0.36483925580978394
1702059359971729400,8.2057294921875,0.9906707406044006,0.370947927236557,-0.3094032406806946
1702059359988722400,8.222722412109375,0.8119926452636719,0.3478877544403076,-0.2220495194196701
1702059360005716500,8.239716552734375,0.6849326491355896,0.30772337317466736,-0.10201449692249298
1702059360022700300,8.2567001953125,0.6574437022209167,0.27091872692108154,-0.0065668015740811825
1702059360039705000,8.273705078125,0.6259841322898865,0.28298333287239075,0.044745877385139465
1702059360056697900,8.29069775390625,0.5531384944915771,0.3006984293460846,0.07666359096765518
1702059360073687000,8.30768701171875,0.4665483236312866,0.23136521875858307,0.04688390716910362
1702059360090685700,8.324685791015625,0.40072759985923767,0.13118331134319305,0.02321287989616394
1702059360107680800,8.3416806640625,0.35353827476501465,0.05513058975338936,0.045204028487205505
1702059360124673500,8.358673583984375,0.3101668357849121,0.04459316283464432,0.09834930300712585
1702059360141667300,8.375667236328125,0.252287358045578,0.0659734457731247,0.12721268832683563
1702059360158659800,8.392659912109375,0.18845193088054657,0.059406645596027374,0.0988074541091919
1702059360175657500,8.409657470703126,0.12431107461452484,0.02886338345706463,0.06322455406188965
1702059360192649000,8.42664892578125,0.10018189996480942,-0.007024950347840786,0.049785517156124115
1702059360209643000,8.44364306640625,0.0731511116027832,-0.005803219974040985,0.07452555745840073
1702059360226635800,8.4606357421875,0.036651913076639175,-0.01618792861700058,0.0780380368232727
1702059360243632600,8.477632568359375,-0.004734205547720194,-0.030085112899541855,0.05451972410082817
1702059360260624400,8.494624267578125,-0.028405234217643738,-0.02076941914856434,0.021991148591041565
1702059360277618700,8.51161865234375,-0.02932153269648552,-0.021838432177901268,-0.014813481830060482
1702059360294612500,8.528612548828125,-0.007177666760981083,-0.03894266113638878,-0.04245513305068016
1702059360311607000,8.54560693359375,0.00855211354792118,-0.06062837690114975,-0.047189339995384216
1702059360328600000,8.56260009765625,0.01038470957428217,-0.07116580009460449,-0.042760565876960754
1702059360345583600,8.57958349609375,0.0010690141934901476,-0.04963280260562897,-0.01863138936460018
1702059360362588000,8.596587890625,-0.005650503560900688,-0.03878994286060333,0.0006108652451075613
1702059360379582700,8.613582763671875,-0.013286318629980087,-0.04703662544488907,0.019394971430301666
1702059360396575700,8.63057568359375,-0.007788531947880983,-0.06215553730726242,0.01878410577774048
1702059360413559000,8.64755908203125,0.015118914656341076,-0.06505715101957321,-0.007024950347840786
1702059360430563300,8.664563232421875,0.03787364438176155,-0.02779436856508255,-0.014966198243200779
1702059360447558400,8.681558349609375,0.04581489413976669,0.016035212203860283,-0.00855211354792118
1702059360464551200,8.69855126953125,0.029474247246980667,0.03573561832308769,0.0013744467869400978
1702059360481535000,8.715534912109375,0.023365596309304237,0.025961773470044136,-0.00931569468230009
1702059360498539000,8.7325390625,0.03680463135242462,0.00015271631127689034,-0.01237002108246088
1702059360515533800,8.749533935546875,0.039706241339445114,-0.018936822190880775,-0.003512475173920393
1702059360532519700,8.766519775390625,0.020463986322283745,-0.022449297830462456,0.012522737495601177
1702059360549520600,8.783520751953125,-0.004428773187100887,-0.012064588256180286,0.028405234217643738
1702059360566514400,8.800514404296875,-0.009468411095440388,0.0029016099870204926,0.024434609338641167
1702059360583509500,8.817509521484375,-0.0022907445672899485,-0.008704829961061478,0.003359758760780096
1702059360600502300,8.834502197265625,0.008704829961061478,-0.02519819140434265,-0.012217304669320583
1702059360617499100,8.8514990234375,0.013133603148162365,-0.016340645030140877,0.006261368747800589
1702059360634487000,8.868487060546874,0.005192354787141085,0.0064140851609408855,0.02871066704392433
1702059360651485000,8.88548486328125,-0.007788531947880983,0.018020525574684143,0.03634648025035858
1702059360668477700,8.902477783203125,-0.022449297830462456,0.026419922709465027,0.021380282938480377
1702059360685471700,8.9194716796875,-0.01771509274840355,0.021838432177901268,-0.008246680721640587
1702059360702463000,8.936462890625,-0.027488935738801956,0.014049900695681572,-0.0024434609804302454
1702059360719463200,8.953463134765625,-0.043218716979026794,-0.009773843921720982,0.005803219974040985
1702059360736453400,8.970453369140625,-0.044135015457868576,-0.02474004216492176,0.023365596309304237
1702059360753447200,8.987447265625,-0.036651913076639175,-0.009468411095440388,0.03527746722102165
1702059360770441200,9.004441162109375,-0.025656340643763542,-0.0064140851609408855,0.0003054326225537807
1702059360787436000,9.02143603515625,-0.027488935738801956,-0.011301007121801376,-0.03130684420466423
1702059360804418600,9.03841845703125,-0.05406157299876213,-0.01970040425658226,-0.040164388716220856
1702059360821422800,9.0554228515625,-0.0682641938328743,-0.018478672951459885,-0.016340645030140877
1702059360838416600,9.072416748046875,-0.08475755155086517,-0.010079276748001575,0.011453723534941673
1702059360855411500,9.089411376953125,-0.10323622822761536,-0.005345070734620094,0.025045474991202354
1702059360872404700,9.10640478515625,-0.11728613078594208,-0.013897184282541275,0.021532999351620674
1702059360889398500,9.1233984375,-0.14004085958003998,-0.038026362657547,0.01664607785642147
1702059360906392300,9.140392333984375,-0.16294831037521362,-0.05345070734620094,0.036651913076639175
1702059360923382800,9.1573828125,-0.18112154304981232,-0.05207626149058342,0.06200282275676727
1702059360940380000,9.1743798828125,-0.20601430535316467,-0.041233405470848083,0.08399397134780884
1702059360957374000,9.1913740234375,-0.25992316007614136,-0.03481931984424591,0.1137736514210701
1702059360974367700,9.20836767578125,-0.33826664090156555,-0.04398229718208313,0.1287398487329483
1702059360991362600,9.225362548828125,-0.39385536313056946,-0.09529497474431992,0.11056660860776901
1702059361008355600,9.24235546875,-0.45692721009254456,-0.12538009881973267,0.1212567538022995
1702059361025349400,9.259349365234375,-0.5377141237258911,-0.09834930300712585,0.15622878074645996
1702059361042340600,9.276340576171876,-0.6525567770004272,-0.07192938029766083,0.19837848842144012
1702059361059340800,9.2933408203125,-0.7828238010406494,-0.05971207842230797,0.2142609804868698
1702059361076331000,9.3103310546875,-0.9043859839439392,-0.09972374886274338,0.17516560852527618
1702059361093324800,9.32732470703125,-1.0251846313476562,-0.17272214591503143,0.11698069423437119
1702059361110318800,9.34431884765625,-1.1233811378479004,-0.2226603776216507,0.0933096632361412
1702059361127316000,9.36131591796875,-1.2293663024902344,-0.22250767052173615,0.11682797968387604
1702059361144302000,9.378302001953125,-1.3312281370162964,-0.20051652193069458,0.152105450630188
1702059361161302500,9.395302490234375,-1.4546228647232056,-0.18387043476104736,0.18768835067749023
1702059361178294300,9.412294189453124,-1.6296358108520508,-0.19089539349079132,0.21578814089298248
1702059361195288300,9.429288330078125,-1.8113682270050049,-0.21670444309711456,0.22876903414726257
1702059361212282000,9.4462822265625,-1.9753854274749756,-0.23777928948402405,0.24755313992500305
1702059361229276000,9.46327587890625,-2.0954205989837646,-0.25106561183929443,0.28466320037841797
1702059361246270000,9.48027001953125,-2.203085422515869,-0.22586742043495178,0.3706424832344055
1702059361263264800,9.4972646484375,-2.322051525115967,-0.20906862616539001,0.47540587186813354
1702059361280257500,9.514257568359374,-2.462703227996826,-0.2356412708759308,0.545655369758606
1702059361297251600,9.53125146484375,-2.6067147254943848,-0.29474249482154846,0.5804746747016907
1702059361314245400,9.548245361328124,-2.7365236282348633,-0.3423899710178375,0.6148358583450317
1702059361331240400,9.565240478515625,-2.841745138168335,-0.3335324227809906,0.6670648455619812
1702059361348230700,9.582230712890626,-2.891836166381836,-0.2828305959701538,0.7347181439399719
1702059361365229800,9.599229736328125,-2.9350547790527344,-0.23060162365436554,0.7893906235694885
1702059361382221000,9.616220947265624,-2.959336757659912,-0.2790127098560333,0.7629706859588623
1702059361399215400,9.63321533203125,-2.947882890701294,-0.34895676374435425,0.7205155491828918
1702059361416206300,9.650206298828126,-2.9492573738098145,-0.351400226354599,0.7394523620605469
1702059361433205800,9.667205810546875,-2.933833122253418,-0.32910364866256714,0.8210029006004333
1702059361450196700,9.68419677734375,-2.8849637508392334,-0.28420504927635193,0.8741481900215149
1702059361467191300,9.70119140625,-2.8240299224853516,-0.24816401302814484,0.8235990405082703
1702059361484184300,9.718184326171874,-2.7459919452667236,-0.24587325751781464,0.7170031070709229
1702059361501181400,9.735181396484375,-2.6508498191833496,-0.2541199326515198,0.6530149579048157
1702059361518172400,9.75217236328125,-2.5334107875823975,-0.28878653049468994,0.6307183504104614
1702059361535163400,9.769163330078126,-2.4210116863250732,-0.32070425152778625,0.5913175344467163
1702059361552160000,9.786159912109374,-2.355954647064209,-0.31154128909111023,0.531147301197052
1702059361569153800,9.80315380859375,-2.3127357959747314,-0.2255619913339615,0.5088507533073425
1702059361586137900,9.820137939453126,-2.2602014541625977,-0.10262536257505417,0.5218316316604614
1702059361603142700,9.837142578125,-2.1978931427001953,-0.056352317333221436,0.47342056035995483
1702059361620135400,9.854135498046874,-2.121840476989746,-0.12095131725072861,0.3914119005203247
1702059361637118700,9.87111865234375,-2.0482311248779297,-0.2200642079114914,0.34758231043815613
1702059361654123000,9.888123046875,-1.9998201131820679,-0.2727513313293457,0.40026944875717163
1702059361671118000,9.9051181640625,-1.9898935556411743,-0.2871066629886627,0.4775438904762268
1702059361688110800,9.92211083984375,-1.9766072034835815,-0.24602597951889038,0.49235737323760986
1702059361705105000,9.93910498046875,-1.8668042421340942,-0.17562375962734222,0.4210388660430908
1702059361722086400,9.95608642578125,-1.6701055765151978,-0.13561208546161652,0.3219259977340698
1702059361739083000,9.9730830078125,-1.4621059894561768,-0.17760907113552094,0.26343563199043274
1702059361756086300,9.990086181640624,-1.472490668296814,-0.20341812074184418,0.28420504927635193
1702059361773080300,10.007080322265624,-1.6184874773025513,-0.2295326143503189,0.36361753940582275
1702059361790063900,10.02406396484375,-1.7510452270507812,-0.23365595936775208,0.4433354437351227
1702059361807071200,10.0410712890625,-1.7570011615753174,-0.23594669997692108,0.4847215712070465
1702059361824062000,10.05806201171875,-1.7008016109466553,-0.21181751787662506,0.4970915913581848
1702059361841055700,10.0750556640625,-1.5789339542388916,-0.1963931769132614,0.45982882380485535
1702059361858049800,10.0920498046875,-1.4382822513580322,-0.23945917189121246,0.3880521357059479
1702059361875044600,10.109044677734374,-1.3446670770645142,-0.2716823220252991,0.3706424832344055
1702059361892037600,10.12603759765625,-1.3043500185012817,-0.2483167201280594,0.4205807149410248
1702059361909029400,10.143029296875,-1.3089314699172974,-0.19532416760921478,0.48258355259895325
1702059361926027500,10.160027587890625,-1.3228286504745483,-0.1670716404914856,0.5010622143745422
1702059361943020000,10.17702001953125,-1.3278683423995972,-0.2102903574705124,0.4355469346046448
1702059361960013000,10.194012939453126,-1.2864822149276733,-0.21044307947158813,0.31413745880126953
1702059361977006800,10.2110068359375,-1.1672108173370361,-0.168751522898674,0.24648413062095642
1702059361994001000,10.2280009765625,-1.0196868181228638,-0.11682797968387604,0.244804248213768
1702059362010995700,10.24499560546875,-0.9108000993728638,-0.052839845418930054,0.27320948243141174
1702059362027988500,10.261988525390626,-0.8465065360069275,-0.03680463135242462,0.2938261926174164
1702059362044982500,10.278982421875,-0.8510879874229431,-0.05543602257966995,0.27641651034355164
1702059362061976300,10.295976318359376,-0.9175195693969727,-0.060475658625364304,0.23197607696056366
1702059362078972200,10.31297216796875,-0.9851729273796082,-0.036193765699863434,0.16569720208644867
1702059362095964200,10.329964111328126,-0.9349292516708374,-0.013591751456260681,0.1313360333442688
1702059362112948000,10.346947998046875,-0.8367326855659485,-0.04566217586398125,0.1088867336511612
1702059362129952000,10.363951904296876,-0.7748825550079346,-0.09453139454126358,0.10735956579446793
1702059362146946800,10.38094677734375,-0.7987062931060791,-0.09804387390613556,0.164170041680336
1702059362163939600,10.397939697265626,-0.8553640842437744,-0.059406645596027374,0.18417587876319885
1702059362180933600,10.41493359375,-0.8593347072601318,-0.048716504126787186,0.15974126756191254
1702059362197927400,10.431927490234376,-0.7993171811103821,-0.06368270516395569,0.11927144229412079
1702059362214922200,10.448922119140626,-0.7183775305747986,-0.10415252298116684,0.046273041516542435
1702059362231912400,10.465912353515625,-0.6588181853294373,-0.13561208546161652,-0.005345070734620094
1702059362248901000,10.482901123046876,-0.6427829265594482,-0.1371392458677292,-0.019853120669722557
1702059362265902800,10.49990283203125,-0.6258314251899719,-0.10461067408323288,-0.006719517521560192
1702059362282898000,10.51689794921875,-0.5839871764183044,-0.042760565876960754,0.035582900047302246
1702059362299888000,10.53388818359375,-0.579405665397644,0.018325956538319588,0.08491026610136032
1702059362316887300,10.55088720703125,-0.5655084848403931,0.010079276748001575,0.10002918541431427
1702059362333878500,10.56787841796875,-0.5279402732849121,-0.046731192618608475,0.09865473955869675
1702059362350873300,10.584873291015626,-0.4973970353603363,-0.11407908797264099,0.07024950534105301
1702059362367866400,10.601866455078126,-0.4691445231437683,-0.18249599635601044,0.03344487398862839
1702059362384860200,10.618860107421876,-0.42439863085746765,-0.1586722433567047,0.05115996301174164
1702059362401854200,10.635854248046876,-0.39767327904701233,-0.07009678333997726,0.10705413669347763
1702059362418849000,10.65284912109375,-0.4027129113674164,-0.020922135561704636,0.10934487730264664
1702059362435841800,10.669841796875,-0.3822489380836487,-0.015271631069481373,0.08414668589830399
1702059362452825000,10.6868251953125,-0.3663664162158966,-0.032528575509786606,0.09422596544027328
1702059362469829600,10.70382958984375,-0.3280346393585205,-0.06444628536701202,0.07422012835741043
1702059362486832000,10.72083203125,-0.28848111629486084,-0.08964447677135468,0.037110064178705215
1702059362503819000,10.737819091796876,-0.21365012228488922,-0.040622539818286896,0.01572977937757969
1702059362520811300,10.754811279296876,-0.09392052888870239,0.013286318629980087,0.03756821155548096
1702059362537805000,10.77180517578125,-0.042760565876960754,0.01237002108246088,0.06872233748435974
1702059362554799900,10.7887998046875,-0.07528914511203766,-0.03329215571284294,0.07070764899253845
1702059362571793000,10.80579296875,-0.10934487730264664,-0.039706241339445114,0.07009678333997726
1702059362588786700,10.82278662109375,-0.10567969083786011,-0.022602014243602753,0.06429356336593628
1702059362605770500,10.8397705078125,-0.0734565481543541,-0.012064588256180286,0.05543602257966995
1702059362622775600,10.856775634765626,-0.07269296050071716,0.0032070425804704428,0.05650503560900688
1702059362639768600,10.8737685546875,-0.11545353382825851,0.009621127508580685,0.05513058975338936
1702059362656764000,10.890763916015626,-0.16539175808429718,0.014966198243200779,0.06352998316287994
1702059362673752000,10.907751953125,-0.20693060755729675,0.01237002108246088,0.07773260027170181
1702059362690751000,10.9247509765625,-0.24159720540046692,-0.0003054326225537807,0.06368270516395569
1702059362707746600,10.94174658203125,-0.2513710558414459,0.001679879380390048,0.06612616032361984
1702059362724735500,10.958735595703125,-0.2402227520942688,0.004428773187100887,0.060475658625364304
1702059362741734400,10.975734375,-0.21074850857257843,-0.02428189292550087,0.02535090781748295
1702059362758726700,10.9927265625,-0.14614951610565186,-0.03940080851316452,0.01038470957428217
1702059362775719400,11.009719482421875,-0.04459316283464432,-0.05207626149058342,0.01114829070866108
1702059362792713200,11.026713134765625,0.005192354787141085,-0.051312681287527084,0.018936822190880775
1702059362809707300,11.043707275390625,-0.004581489134579897,-0.04948008432984352,0.02825251780450344
1702059362826702000,11.0607021484375,-0.05650503560900688,-0.039706241339445114,0.032681290060281754
1702059362843695000,11.077695068359375,-0.11209376901388168,-0.025961773470044136,0.02428189292550087
1702059362860678400,11.094678466796875,-0.1420261710882187,-0.020311269909143448,0.00809396430850029
1702059362877683000,11.111682861328125,-0.14385876059532166,-0.007635815534740686,0.005039638374000788
1702059362894677500,11.128677490234375,-0.14874568581581116,-0.007635815534740686,0.013133603148162365
1702059362911670500,11.14567041015625,-0.17302757501602173,-0.02580905705690384,0.01664607785642147
1702059362928656000,11.16265576171875,-0.2174680233001709,-0.029932396486401558,0.01466076634824276
1702059362945647900,11.17964794921875,-0.2538145184516907,-0.009010262787342072,0.009621127508580685
1702059362962653200,11.196653076171875,-0.2532036304473877,0.02733621932566166,-0.008399397134780884
1702059362979646200,11.213646240234375,-0.17531833052635193,0.056352317333221436,-0.024129176512360573
1702059362996640000,11.230639892578125,-0.05467243865132332,0.04734205827116966,-0.011301007121801376
1702059363013633800,11.2476337890625,-0.005497787147760391,0.01725694350898266,0.024587325751781464
1702059363030628600,11.264628662109375,-0.038179077208042145,-0.00809396430850029,0.033139441162347794
1702059363047621600,11.28162158203125,-0.08078692853450775,-0.03329215571284294,0.020005837082862854
1702059363064615400,11.298615478515625,-0.08032877743244171,0.013286318629980087,0.005803219974040985
1702059363081607200,11.315607177734375,-0.017867809161543846,0.0529925599694252,-0.006719517521560192
1702059363098606300,11.3326064453125,0.018936822190880775,0.037110064178705215,-0.02626720629632473
1702059363115589600,11.349589599609375,0.002138028386980295,-0.01038470957428217,-0.02626720629632473
1702059363132600800,11.366600830078125,-0.0503963828086853,-0.03237585723400116,0.009773843921720982
1702059363149585000,11.3835849609375,-0.0780380368232727,-0.027488935738801956,0.03237585723400116
1702059363166580000,11.400580078125,-0.08536841720342636,-0.009773843921720982,0.0429132841527462
1702059363183572500,11.417572509765625,-0.10415252298116684,0.0007635815418325365,0.03695734590291977
1702059363200563200,11.434563232421874,-0.1137736514210701,0.00366519158706069,0.02687807008624077
1702059363217560300,11.451560302734375,-0.10934487730264664,-0.0003054326225537807,0.01970040425658226
1702059363234545200,11.468545166015625,-0.06444628536701202,-0.008857546374201775,-0.008857546374201775
1702059363251548200,11.485548095703125,0.001527163083665073,-0.036041051149368286,-0.04046982154250145
1702059363268542000,11.5025419921875,0.02626720629632473,-0.028099801391363144,-0.020463986322283745
1702059363285532200,11.5195322265625,0.028099801391363144,-0.013439035043120384,0.022602014243602753
1702059363302530800,11.53653076171875,0.005955935921519995,-0.015577063895761967,0.037110064178705215
1702059363319523600,11.553523681640625,-0.00366519158706069,-0.023976460099220276,0.015118914656341076
1702059363336517600,11.570517578125,0.01817324012517929,-0.015882495790719986,-0.011759156361222267
1702059363353501200,11.587501220703125,0.037110064178705215,0.005803219974040985,-0.023976460099220276
1702059363370506500,11.604506591796875,0.021838432177901268,-0.003512475173920393,-0.029474247246980667
1702059363387499300,11.621499267578125,-0.019394971430301666,-0.03145955875515938,-0.01725694350898266
1702059363404482800,11.63848291015625,-0.07040221989154816,-0.02871066704392433,0.014355333521962166
1702059363421481500,11.6554814453125,-0.09728029370307922,-0.013744467869400978,0.034666601568460464
1702059363438482000,11.67248193359375,-0.11545353382825851,-0.003817907767370343,0.04337143152952194
1702059363455474700,11.689474609375,-0.1270599663257599,-0.009468411095440388,0.03573561832308769
1702059363472469200,11.70646923828125,-0.11209376901388168,-0.010995574295520782,0.02825251780450344
1702059363489462000,11.7234619140625,-0.03420845419168472,-0.020005837082862854,0.02076941914856434
1702059363506457600,11.74045751953125,0.03222314268350601,-0.03497203439474106,0.021074850112199783
1702059363523450400,11.757450439453125,0.02474004216492176,-0.03191770985722542,0.036193765699863434
1702059363540444200,11.774444091796875,0.014355333521962166,-0.047800205647945404,0.028405234217643738
1702059363557438200,11.791438232421875,0.032070424407720566,-0.041233405470848083,0.00045814894838258624
1702059363574433000,11.80843310546875,0.07651086896657944,-0.007635815534740686,-0.01191187184303999
1702059363591424500,11.825424560546875,0.13179416954517365,0.014508049935102463,-0.03145955875515938
1702059363608421000,11.842421142578125,0.1774563491344452,0.00427605677396059,-0.036193765699863434
1702059363625413600,11.85941357421875,0.166460782289505,0.012217304669320583,-0.010842857882380486
1702059363642408400,11.876408447265625,0.13744467496871948,0.033139441162347794,0.022449297830462456
1702059363659400200,11.893400146484375,0.12919799983501434,0.05665775015950203,0.023365596309304237
1702059363676396300,11.910396240234375,0.13866640627384186,0.051312681287527084,0.001527163083665073
1702059363693389000,11.92738916015625,0.14538592100143433,0.03878994286060333,-0.007177666760981083
1702059363710384000,11.944384033203125,0.15454891324043274,0.028405234217643738,-0.01160643994808197
1702059363727377200,11.961377197265625,0.16493362188339233,0.0403171069920063,-0.01572977937757969
1702059363744370700,11.97837060546875,0.2321287989616394,0.052381694316864014,-0.038179077208042145
1702059363761362200,11.995362060546874,0.3494149148464203,0.0734565481543541,-0.06750060617923737
1702059363778362000,12.012362060546875,0.43829581141471863,0.08155050873756409,-0.0529925599694252
1702059363795361000,12.029361083984375,0.45631635189056396,0.03497203439474106,-0.03588833287358284
1702059363812346400,12.046346435546875,0.4648684561252594,-0.025503624230623245,-0.04505131021142006
1702059363829340200,12.063340087890625,0.5138903856277466,-0.03039054572582245,-0.05406157299876213
1702059363846335000,12.0803349609375,0.6050620079040527,-0.0013744467869400978,-0.06475171446800232
1702059363863324200,12.09732421875,0.7023423314094543,-0.02229658141732216,-0.10018189996480942
1702059363880326400,12.114326416015626,0.7515169382095337,-0.1062905490398407,-0.13148874044418335
1702059363897315000,12.131315185546875,0.7441865801811218,-0.18081611394882202,-0.15164729952812195
1702059363914310700,12.148310546875,0.7215845584869385,-0.1823432743549347,-0.14217889308929443
1702059363931303400,12.165303466796875,0.7243334650993347,-0.11148291081190109,-0.12919799983501434
1702059363948297500,12.18229736328125,0.7811439037322998,-0.04245513305068016,-0.11530081182718277
1702059363965288400,12.199288330078126,0.8520042896270752,-0.004734205547720194,-0.09010262042284012
1702059363982290700,12.216290771484376,0.9523389339447021,-0.03573561832308769,-0.11575896292924881
1702059363999277300,12.23327734375,1.1024590730667114,-0.060475658625364304,-0.168751522898674
1702059364016273000,12.25027294921875,1.2124147415161133,-0.03420845419168472,-0.19547687470912933
1702059364033266700,12.2672666015625,1.269836187362671,0.029626963660120964,-0.18325957655906677
1702059364050261800,12.28426171875,1.3176363706588745,0.08720101416110992,-0.14508049190044403
1702059364067254500,12.301254638671875,1.3645201921463013,0.07284568250179291,-0.1892155110836029
1702059364084248600,12.31824853515625,1.4569135904312134,0.0025961773935705423,-0.275958389043808
1702059364101226800,12.335226806640625,1.5793920755386353,0.0019853119738399982,-0.33292156457901
1702059364118233900,12.35223388671875,1.7654005289077759,0.10399980843067169,-0.33276882767677307
1702059364135230200,12.369230224609375,1.956906795501709,0.2499966025352478,-0.20357084274291992
1702059364152224000,12.38622412109375,2.048841953277588,0.20097467303276062,-0.18295414745807648
1702059364169217800,12.4032177734375,1.9814941883087158,0.10583240538835526,-0.35705074667930603
1702059364186212600,12.420212646484375,1.994780421257019,0.12079860270023346,-0.4384485185146332
1702059364203205600,12.43720556640625,2.0763309001922607,0.2825251817703247,-0.3982841372489929
1702059364220199400,12.454199462890625,2.239279270172119,0.3761402666568756,-0.2756529450416565
1702059364237183200,12.471183349609374,2.373058795928955,0.24633140861988068,-0.30833423137664795
1702059364254187300,12.488187255859375,2.3519840240478516,0.14294247329235077,-0.5018258094787598
1702059364271182000,12.50518212890625,2.367102861404419,0.19746218621730804,-0.5632177591323853
1702059364288174800,12.5221748046875,2.467437505722046,0.35613444447517395,-0.4547891616821289
1702059364305169200,12.539169189453125,2.6427557468414307,0.40622538328170776,-0.31612277030944824
1702059364322154000,12.556154052734374,2.8101327419281006,0.21868975460529327,-0.34804046154022217
1702059364339156500,12.573156494140624,2.8315131664276123,-0.03237585723400116,-0.5354233980178833
1702059364356150500,12.590150634765624,2.733469247817993,-0.04917465150356293,-0.6461427211761475
1702059364373144600,12.60714453125,2.6540567874908447,0.21991148591041565,-0.5755877494812012
1702059364390139100,12.62413916015625,2.696817398071289,0.5160284042358398,-0.3361285924911499
1702059364407132200,12.641132080078124,2.800053596496582,0.41493022441864014,-0.3425426781177521
1702059364424126000,12.6581259765625,2.794708490371704,0.11209376901388168,-0.608727216720581
1702059364441120000,12.6751201171875,2.7963883876800537,0.05742133408784866,-0.6982190012931824
1702059364458114800,12.69211474609375,2.8412868976593018,0.3107776939868927,-0.5703954100608826
1702059364475105000,12.70910498046875,2.8846583366394043,0.5966626405715942,-0.37171149253845215
1702059364492104200,12.726104248046875,2.8942794799804688,0.6293439269065857,-0.33368512988090515
1702059364509095700,12.743095703125,2.8568639755249023,0.5018258094787598,-0.4784601926803589
1702059364526090200,12.76009033203125,2.84495210647583,0.4573853611946106,-0.561079740524292
1702059364543083300,12.777083251953124,2.8657214641571045,0.59803706407547,-0.4970915913581848
1702059364560077000,12.7940771484375,2.892141580581665,0.7809911966323853,-0.3504839241504669
1702059364577070800,12.81107080078125,2.8881709575653076,0.8069530129432678,-0.304210901260376
1702059364594063400,12.8280634765625,2.8043296337127686,0.5598580241203308,-0.4040873646736145
1702059364611059700,12.845059814453125,2.6847527027130127,0.35659259557724,-0.5581781268119812
1702059364628055000,12.862054931640625,2.6568057537078857,0.42730024456977844,-0.5736024379730225
1702059364645046500,12.879046630859374,2.6416866779327393,0.7246388792991638,-0.37171149253845215
1702059364662038800,12.896038818359376,2.5919013023376465,0.8796459436416626,-0.1797471046447754
1702059364679029000,12.913029052734375,2.4578163623809814,0.8306240439414978,-0.12232576310634613
1702059364696028200,12.930028076171874,2.27211332321167,0.7254024744033813,-0.17150041460990906
1702059364713025300,12.947025390625,2.1536054611206055,0.575893223285675,-0.27519479393959045
1702059364730009000,12.964009033203125,2.0914499759674072,0.4749477207660675,-0.365755558013916
1702059364747009800,12.981009765625,2.0581576824188232,0.5114469528198242,-0.38438695669174194
1702059364764003600,12.998003662109374,2.018756866455078,0.5511531829833984,-0.29184088110923767
1702059364780997600,13.01499755859375,1.8668042421340942,0.5593998432159424,-0.21578814089298248
1702059364797992400,13.031992431640624,1.683544635772705,0.48609602451324463,-0.21991148591041565
1702059364814985200,13.048985107421874,1.4892895221710205,0.41431936621665955,-0.2744311988353729
1702059364831979300,13.065979248046874,1.299310326576233,0.3400992155075073,-0.3254384696483612
1702059364848970500,13.082970458984375,1.17240309715271,0.2926044464111328,-0.33429601788520813
1702059364865970700,13.099970703125,1.1078041791915894,0.2922990322113037,-0.2635883390903473
1702059364882961000,13.1169609375,1.0212140083312988,0.34758231043815613,-0.1437060534954071
1702059364899954700,13.13395458984375,0.8914051055908203,0.36911532282829285,-0.08979719132184982
1702059364916948700,13.15094873046875,0.7267768979072571,0.33460143208503723,-0.09300423413515091
1702059364933943600,13.167943603515624,0.5954409241676331,0.23976461589336395,-0.10934487730264664
1702059364950936300,13.184936279296876,0.5229006409645081,0.15012013912200928,-0.09560041129589081
1702059364967930000,13.20193017578125,0.48197266459465027,0.1267545372247696,-0.014202617108821869
1702059364984924200,13.218924072265626,0.42898011207580566,0.12263119965791702,0.030543262138962746
1702059365001919000,13.2359189453125,0.35185837745666504,0.09834930300712585,0.0029016099870204926
1702059365018912000,13.252912109375,0.28695395588874817,0.07559457421302795,-0.028099801391363144
1702059365035905800,13.26990576171875,0.24908030033111572,0.03039054572582245,-0.06979135423898697
1702059365052899300,13.2868994140625,0.22449298202991486,0.02535090781748295,-0.07925976812839508
1702059365069884400,13.303884521484376,0.20311269164085388,0.029474247246980667,-0.054367005825042725
1702059365086887400,13.320887451171876,0.17562375962734222,0.016951510682702065,-0.058337632566690445
1702059365103870700,13.33787060546875,0.1290452778339386,0.01114829070866108,-0.07941248267889023
1702059365120875300,13.354875244140626,0.0913243517279625,0.008246680721640587,-0.10155634582042694
1702059365137866000,13.371865966796875,0.08170322328805923,-0.007941247895359993,-0.11774427443742752
1702059365154862800,13.38886279296875,0.09147707372903824,-0.012980886735022068,-0.10537425428628922
1702059365171857000,13.40585693359375,0.10170906037092209,-0.014049900695681572,-0.08277224004268646
1702059365188850700,13.4228505859375,0.0858265683054924,-0.01878410577774048,-0.058337632566690445
1702059365205845800,13.439845703125,0.05390885844826698,-0.02474004216492176,-0.04657847434282303
1702059365222838500,13.456838623046876,0.031154127791523933,-0.02886338345706463,-0.047800205647945404
1702059365239832300,13.473832275390626,0.013744467869400978,-0.04963280260562897,-0.05650503560900688
1702059365256826400,13.490826416015626,0.012980886735022068,-0.058948494493961334,-0.07590000331401825
1702059365273821000,13.507821044921876,0.03145955875515938,-0.03955352306365967,-0.0708603709936142
1702059365290813400,13.5248134765625,0.040622539818286896,-0.011301007121801376,-0.05406157299876213
1702059365307808500,13.54180859375,0.04382958263158798,-0.008246680721640587,-0.045204028487205505
1702059365324801800,13.5588017578125,0.03695734590291977,-0.01725694350898266,-0.0429132841527462
1702059365341796600,13.575796630859376,0.03680463135242462,-0.029016099870204926,-0.05497787147760391
1702059365358779000,13.59277880859375,0.047800205647945404,-0.04214970022439957,-0.06215553730726242
1702059365375783200,13.609783203125,0.04138612002134323,-0.044135015457868576,-0.051312681287527084
1702059365392777200,13.626777099609376,0.023976460099220276,-0.03375030308961868,-0.05314527451992035
1702059365409772300,13.643772216796876,0.00931569468230009,-0.015577063895761967,-0.07009678333997726
1702059365426765000,13.66076513671875,-0.0065668015740811825,0.0006108652451075613,-0.06582073122262955
1702059365443756300,13.67775634765625,-0.026419922709465027,0.0009162978967651725,-0.038179077208042145
1702059365460755500,13.69475537109375,-0.036193765699863434,-0.0074830991216003895,-0.007635815534740686
1702059365477747700,13.711747802734376,-0.008704829961061478,-0.005650503560900688,0.005039638374000788
1702059365494730000,13.72872998046875,0.02519819140434265,-0.004581489134579897,-0.00809396430850029
1702059365511734300,13.745734375,0.03848451003432274,-0.009468411095440388,-0.031612277030944824
1702059365528728000,13.76272802734375,0.0429132841527462,-0.0007635815418325365,-0.0529925599694252
1702059365545719300,13.77971923828125,0.03344487398862839,0.0027488935738801956,-0.057879481464624405
1702059365562720000,13.796719970703125,0.009926560334861279,-0.00809396430850029,-0.06001751124858856
1702059365579710000,13.8137099609375,0.0009162978967651725,-0.005803219974040985,-0.05314527451992035
1702059365596703700,13.830703857421875,0.007024950347840786,0.010231993161141872,-0.048716504126787186
1702059365613698800,13.84769873046875,0.018020525574684143,0.025045474991202354,-0.05146539583802223
1702059365630689000,13.86468896484375,0.014966198243200779,0.02015855349600315,-0.04902193695306778
1702059365647688000,13.88168798828125,-0.009773843921720982,-0.003054326167330146,-0.03588833287358284
1702059365664679400,13.898679443359375,-0.03787364438176155,-0.013133603148162365,-0.012522737495601177
1702059365681674200,13.91567431640625,-0.059864792972803116,0.0019853119738399982,0.005192354787141085
1702059365698667000,13.9326669921875,-0.08246681094169617,0.009010262787342072,0.007177666760981083
1702059365715658200,13.949658203125,-0.10461067408323288,-0.001527163083665073,-0.005803219974040985
1702059365732658200,13.966658203125,-0.13637566566467285,-0.03039054572582245,-0.0064140851609408855
1702059365749649200,13.983649169921875,-0.18249599635601044,-0.07024950534105301,-0.0029016099870204926
1702059365766642700,14.000642578125,-0.2506074607372284,-0.11514809727668762,0.029016099870204926
1702059365783636500,14.017636474609375,-0.3349068760871887,-0.13775011897087097,0.06765332818031311
1702059365800630300,14.03463037109375,-0.4150829315185547,-0.13973543047904968,0.07757988572120667
1702059365817625000,14.051625,-0.4899139404296875,-0.12522737681865692,0.058184914290905
1702059365834618000,14.0686181640625,-0.5664247870445251,-0.11698069423437119,0.02076941914856434
1702059365851612200,14.085612060546875,-0.6531676650047302,-0.10919216275215149,0.03787364438176155
1702059365868605700,14.102605712890625,-0.7545713186264038,-0.09498954564332962,0.13087788224220276
1702059365885590300,14.11959033203125,-0.8487972617149353,-0.09987647086381912,0.23060162365436554
1702059365902593500,14.136593505859375,-0.9472993016242981,-0.12568552792072296,0.2701551616191864
1702059365919587300,14.15358740234375,-1.0384708642959595,-0.16462817788124084,0.26450464129447937
1702059365936581400,14.170581298828125,-1.1302534341812134,-0.164170041680336,0.275347501039505
1702059365953576200,14.187576171875,-1.2235630750656128,-0.14416420459747314,0.3257438838481903
1702059365970569200,14.2045693359375,-1.3242031335830688,-0.16920967400074005,0.3732386529445648
1702059365987563000,14.22156298828125,-1.4301882982254028,-0.22372940182685852,0.399200439453125
1702059366004557000,14.23855712890625,-1.5273158550262451,-0.2952006161212921,0.39385536313056946
1702059366021551600,14.255551513671875,-1.617876648902893,-0.3222314119338989,0.375071257352829
1702059366038544600,14.272544677734375,-1.7081319093704224,-0.29275718331336975,0.37720927596092224
1702059366055538400,14.289538330078125,-1.8038851022720337,-0.25641068816185,0.3926336467266083
1702059366072532500,14.306532470703125,-1.9060522317886353,-0.2838996350765228,0.4127921760082245
1702059366089527300,14.32352734375,-2.0537290573120117,-0.3842342495918274,0.4031710624694824
1702059366106520300,14.340520263671875,-2.219578981399536,-0.46731191873550415,0.3813326358795166
1702059366123514000,14.35751416015625,-2.348165988922119,-0.447000652551651,0.4167627990245819
1702059366140507600,14.374507568359375,-2.414292097091675,-0.3738495409488678,0.5251913666725159
1702059366157503200,14.391503173828125,-2.4678955078125,-0.3634648323059082,0.6204863786697388
1702059366174495700,14.408495849609375,-2.5451700687408447,-0.45662176609039307,0.6340781450271606
1702059366191489500,14.425489501953125,-2.6786441802978516,-0.5807801485061646,0.5963571667671204
1702059366208483600,14.442483642578125,-2.813950777053833,-0.5677992701530457,0.603687584400177
1702059366225474000,14.45947412109375,-2.9048168659210205,-0.43676865100860596,0.7406741380691528
1702059366242471200,14.47647119140625,-2.9660561084747314,-0.36972618103027344,0.8700248003005981
1702059366259465000,14.49346484375,-2.959031343460083,-0.4476115107536316,0.8582656979560852
1702059366276448500,14.510448486328125,-2.909092903137207,-0.5786421298980713,0.7750352621078491
1702059366293453800,14.527453857421875,-2.833345651626587,-0.6171266436576843,0.7283040881156921
1702059366310446600,14.544446533203125,-2.743701219558716,-0.5242751240730286,0.735634446144104
1702059366327440600,14.561440673828125,-2.6624562740325928,-0.3674354553222656,0.7626652717590332
1702059366344434400,14.578434326171875,-2.6311492919921875,-0.27000242471694946,0.769690215587616
1702059366361431300,14.595431396484376,-2.624277114868164,-0.30085113644599915,0.7067710757255554
1702059366378418200,14.612418212890624,-2.58457088470459,-0.4095851480960846,0.6155994534492493
1702059366395418400,14.62941845703125,-2.444988250732422,-0.4291328489780426,0.5844452977180481
1702059366412423000,14.6464228515625,-2.233017921447754,-0.3364340364933014,0.6183483600616455
1702059366429405000,14.663405029296875,-2.0306687355041504,-0.21670444309711456,0.6189591884613037
1702059366446398000,14.68039794921875,-1.877036213874817,-0.20204368233680725,0.5364924073219299
1702059366463391500,14.6973916015625,-1.7898352146148682,-0.23105977475643158,0.451123982667923
1702059366480385500,14.714385498046875,-1.7734944820404053,-0.2649627923965454,0.42638394236564636
1702059366497378000,14.7313779296875,-1.7747162580490112,-0.34025195240974426,0.43249258399009705
1702059366514375700,14.748375732421875,-1.7369953393936157,-0.3787364661693573,0.4164573848247528
1702059366531367200,14.7653671875,-1.7020232677459717,-0.3407101035118103,0.38499781489372253
1702059366548361000,14.78236083984375,-1.6655241250991821,-0.28267788887023926,0.3614795207977295
1702059366565355800,14.799355712890625,-1.6187928915023804,-0.24755313992500305,0.32681289315223694
1702059366582346200,14.81634619140625,-1.559233546257019,-0.2791654169559479,0.29596421122550964
1702059366599345200,14.83334521484375,-1.522887110710144,-0.3396410644054413,0.28267788887023926
1702059366616337000,14.8503369140625,-1.5262467861175537,-0.33200526237487793,0.337503045797348
1702059366633326000,14.867326171875,-1.5508341789245605,-0.23716843128204346,0.36621370911598206
1702059366650324200,14.88432421875,-1.5622878074645996,-0.1082758679986,0.3376557528972626
1702059366667310800,14.901310791015625,-1.5480852127075195,-0.0685696229338646,0.2600758671760559
1702059366684312000,14.91831201171875,-1.5063936710357666,-0.0936150997877121,0.19165897369384766
1702059366701304300,14.93530419921875,-1.4253013134002686,-0.10965031385421753,0.15653422474861145
1702059366718300000,14.9522998046875,-1.359175205230713,-0.12079860270023346,0.17928895354270935
1702059366735296300,14.969296142578125,-1.3078625202178955,-0.11927144229412079,0.2295326143503189
1702059366752287500,14.98628759765625,-1.2498302459716797,-0.09941831976175308,0.2632829248905182
1702059366769282300,15.0032822265625,-1.2035572528839111,-0.09193521738052368,0.3113885521888733
1702059366786275300,15.020275390625,-1.1983648538589478,-0.14538592100143433,0.2756529450416565
1702059366803269600,15.03726953125,-1.1977540254592896,-0.2480112910270691,0.1944078654050827
1702059366820263200,15.05426318359375,-1.1895073652267456,-0.2577851414680481,0.15806138515472412
1702059366837258000,15.071258056640625,-1.133307695388794,-0.16508632898330688,0.15073099732398987
1702059366854251000,15.0882509765625,-1.0375546216964722,-0.06459899991750717,0.16982053220272064
1702059366871244800,15.105244873046875,-0.9969320893287659,-0.0065668015740811825,0.21319197118282318
1702059366888238600,15.122238525390625,-1.0198395252227783,-0.01863138936460018,0.2635883390903473
1702059366905233700,15.139233642578125,-1.057865858078003,-0.09453139454126358,0.24205535650253296
1702059366922226200,15.15622607421875,-1.0855075120925903,-0.14263702929019928,0.19608774781227112
1702059366939220200,15.17322021484375,-1.0248792171478271,-0.07528914511203766,0.20433442294597626
1702059366956214000,15.190214111328125,-0.9957103729248047,0.050243668258190155,0.21502456068992615
1702059366973209000,15.207208984375,-0.979827880859375,0.08903361111879349,0.197004035115242
1702059366990201900,15.224201904296875,-0.9424123764038086,0.0633772686123848,0.20234911143779755
1702059367007196000,15.24119580078125,-0.916450560092926,-0.01466076634824276,0.15332718193531036
1702059367024189700,15.258189697265625,-0.8955284357070923,-0.07513642311096191,0.07452555745840073
1702059367041184500,15.2751845703125,-0.82207190990448,-0.046273041516542435,0.07223481684923172
1702059367058166800,15.292166748046874,-0.6937901973724365,-0.009926560334861279,0.12095131725072861
1702059367075171300,15.30917138671875,-0.5975789427757263,-0.005803219974040985,0.1615738570690155
1702059367092165000,15.3261650390625,-0.5774203538894653,-0.02871066704392433,0.1589776873588562
1702059367109160200,15.34316015625,-0.5981897711753845,-0.049785517156124115,0.1215621829032898
1702059367126152700,15.360152587890624,-0.5870414972305298,-0.06643159687519073,0.08628471940755844
1702059367143158500,15.377158447265625,-0.5583308339118958,-0.07406741380691528,0.058184914290905
1702059367160140500,15.394140625,-0.5291619896888733,-0.058948494493961334,0.09162978827953339
1702059367177135400,15.41113525390625,-0.5170974135398865,-0.03176499158143997,0.1463022232055664
1702059367194128400,15.42812841796875,-0.5035057067871094,0.013133603148162365,0.16493362188339233
1702059367211122200,15.4451220703125,-0.46303585171699524,0.05451972410082817,0.1290452778339386
1702059367228116200,15.4621162109375,-0.4356996417045593,0.09575312584638596,0.12217304855585098
1702059367245099500,15.479099609375,-0.3995058834552765,0.07956519722938538,0.12690725922584534
1702059367262093600,15.496093505859376,-0.3862195611000061,0.007941247895359993,0.13439035415649414
1702059367279097900,15.513097900390624,-0.4280638098716736,-0.05451972410082817,0.14309518039226532
1702059367296089000,15.530089111328126,-0.4335615932941437,-0.04046982154250145,0.12828169763088226
1702059367313089000,15.547089111328125,-0.34315356612205505,-0.00366519158706069,0.10216721147298813
1702059367330085600,15.564085693359376,-0.20295998454093933,-0.030543262138962746,0.09239336848258972
1702059367347073300,15.5810732421875,-0.1414152979850769,-0.08811730891466141,0.076052725315094
1702059367364067300,15.5980673828125,-0.13377949595451355,-0.1336267739534378,0.07299839705228806
1702059367381062100,15.615062255859375,-0.14309518039226532,-0.1134682223200798,0.08032877743244171
1702059367398055200,15.63205517578125,-0.1391245573759079,-0.0705549344420433,0.07819075137376785
1702059367415048700,15.649048583984374,-0.11392636597156525,-0.05757404863834381,0.06291911751031876
1702059367432042800,15.666042724609374,-0.09239336848258972,-0.05161811411380768,0.03726277872920036
1702059367449022700,15.683022705078125,-0.07635815441608429,-0.047800205647945404,0.01664607785642147
1702059367466028500,15.700028564453126,-0.08384125679731369,-0.03680463135242462,0.04382958263158798
1702059367483020300,15.717020263671875,-0.10690141469240189,-0.027947084978222847,0.08307767659425735
1702059367500015900,15.734015869140626,-0.16920967400074005,-0.052381694316864014,0.06582073122262955
1702059367517015300,15.751015380859375,-0.242513507604599,-0.06276640295982361,0.04856378585100174
1702059367534006000,15.768006103515624,-0.2874121069908142,-0.01878410577774048,0.05467243865132332
1702059367550999800,15.784999755859374,-0.2900082767009735,0.005345070734620094,0.04077525436878204
1702059367567993900,15.801993896484374,-0.2583959996700287,-0.03420845419168472,-0.021380282938480377
1702059367584988700,15.81898876953125,-0.23655757308006287,-0.07635815441608429,-0.08246681094169617
1702059367601981400,15.8359814453125,-0.22021691501140594,-0.07880161702632904,-0.0731511116027832
1702059367618975200,15.852975341796874,-0.21700987219810486,-0.03176499158143997,-0.020922135561704636
1702059367635969300,15.86996923828125,-0.21502456068992615,0.01710422709584236,0.027641652151942253
1702059367652964000,15.886964111328124,-0.22815817594528198,0.028099801391363144,0.037110064178705215
1702059367669957000,15.90395703125,-0.22647829353809357,0.020311269909143448,0.024587325751781464
1702059367686951000,15.920950927734374,-0.2220495194196701,0.02015855349600315,0.01618792861700058
1702059367703944700,15.93794482421875,-0.23487769067287445,0.006719517521560192,0.02580905705690384
1702059367720939800,15.954939697265624,-0.2744311988353729,-0.02519819140434265,0.03833179548382759
1702059367737922000,15.971922119140626,-0.31322115659713745,-0.04642575979232788,0.04398229718208313
1702059367754926300,15.98892626953125,-0.3271183371543884,-0.020463986322283745,0.04001167416572571
1702059367771920100,16.005920166015624,-0.3243694305419922,0.02825251780450344,0.035582900047302246
1702059367788904400,16.022904541015624,-0.32559117674827576,0.05803219974040985,0.04199698567390442
1702059367805908700,16.03990869140625,-0.30482175946235657,0.024892758578062057,0.033139441162347794
1702059367822900700,16.056900634765626,-0.26542094349861145,-0.016951510682702065,-0.010995574295520782
1702059367839894500,16.07389453125,-0.204487144947052,-0.010690141469240189,-0.01664607785642147
1702059367856890600,16.090890625,-0.1537853181362152,-0.001527163083665073,0.006108652334660292
1702059367873883400,16.10788330078125,-0.13790282607078552,-0.027183502912521362,-0.00809396430850029
1702059367890867000,16.124866943359375,-0.1212567538022995,-0.060933809727430344,-0.03741549700498581
1702059367907871500,16.14187158203125,-0.10567969083786011,-0.055741455405950546,-0.04199698567390442
1702059367924863700,16.15886376953125,-0.11163562536239624,-0.022907447069883347,-0.03176499158143997
1702059367941861400,16.175861328125,-0.10262536257505417,-0.004734205547720194,-0.04153883829712868
1702059367958852900,16.192852783203126,-0.06902777403593063,-0.0022907445672899485,-0.04886921867728233
1702059367975844000,16.209843994140623,-0.06108652427792549,-0.019853120669722557,-0.0507018156349659
1702059367992844300,16.22684423828125,-0.10674870014190674,-0.03420845419168472,-0.03573561832308769
1702059368009834500,16.24383447265625,-0.1670716404914856,-0.04749477282166481,-0.023060163483023643
1702059368026828500,16.26082861328125,-0.21303924918174744,-0.04566217586398125,-0.014355333521962166
1702059368043822300,16.277822265625,-0.16722436249256134,-0.036193765699863434,-0.021380282938480377
1702059368060817200,16.294817138671874,-0.06291911751031876,-0.014508049935102463,-0.014049900695681572
1702059368077810000,16.311809814453124,0.01542434748262167,0.001527163083665073,-0.009926560334861279
1702059368094804000,16.328803955078126,0.03329215571284294,0.00366519158706069,-0.003359758760780096
1702059368111797800,16.3457978515625,0.0064140851609408855,-0.003817907767370343,0.006719517521560192
1702059368128792600,16.36279248046875,-0.0022907445672899485,-0.0029016099870204926,0.005955935921519995
1702059368145785600,16.37978564453125,0.04199698567390442,-0.0039706239476799965,-0.013133603148162365
1702059368162779400,16.396779296875,0.0907134860754013,0.001527163083665073,-0.029626963660120964
1702059368179773400,16.4137734375,0.08109235763549805,0.022449297830462456,-0.018936822190880775
1702059368196768300,16.430768310546874,0.044745877385139465,0.04260785132646561,-0.0012217304902151227
1702059368213761000,16.447760986328124,0.002138028386980295,0.060933809727430344,0.03955352306365967
1702059368230754800,16.4647548828125,-0.019547687843441963,0.047800205647945404,0.05268712714314461
1702059368247748900,16.481748779296876,-0.02122756652534008,0.020311269909143448,0.056810468435287476
1702059368264743700,16.49874365234375,-0.04092797264456749,0.00045814894838258624,0.06520986557006836
1702059368281736700,16.51573681640625,-0.05772676691412926,0.013591751456260681,0.05757404863834381
1702059368298730500,16.53273046875,0.019547687843441963,0.04734205827116966,0.027183502912521362
1702059368315725800,16.549725830078124,0.13347405195236206,0.04948008432984352,-0.004123340360820293
1702059368332719400,16.56671923828125,0.18646661937236786,0.026419922709465027,-0.006108652334660292
1702059368349712100,16.583712158203124,0.1941024363040924,-0.0039706239476799965,0.003054326167330146
1702059368366706000,16.600705810546874,0.20891591906547546,-0.029626963660120964,-0.003054326167330146
1702059368383700000,16.617699951171875,0.2480112910270691,-0.018478672951459885,-0.006719517521560192
1702059368400694800,16.63469482421875,0.3202461004257202,0.02382374368607998,-0.03588833287358284
1702059368417694200,16.651694091796877,0.42577308416366577,0.04841107130050659,-0.07437284290790558
1702059368434681300,16.668681396484374,0.49785518646240234,0.05161811411380768,-0.09758572280406952
1702059368451675400,16.68567529296875,0.5186246037483215,0.04886921867728233,-0.08750644326210022
1702059368468670200,16.702670166015626,0.5175555944442749,0.035124752670526505,-0.07467827945947647
1702059368485663000,16.7196630859375,0.5209153294563293,-0.0029016099870204926,-0.06902777403593063
1702059368502657000,16.736656982421874,0.5520694851875305,0.004734205547720194,-0.08674286305904388
1702059368519650800,16.75365087890625,0.6612616181373596,0.08506298810243607,-0.09224065393209457
1702059368536646000,16.77064599609375,0.8281805515289307,0.17318029701709747,-0.11636982858181
1702059368553635600,16.787635498046875,0.9512699246406555,0.19089539349079132,-0.1814269721508026
1702059368570632200,16.804632080078125,0.9689850211143494,0.18081611394882202,-0.19807305932044983
1702059368587619300,16.821619384765626,0.9503536224365234,0.18096883594989777,-0.15393804013729095
1702059368604621300,16.838621337890626,1.0027352571487427,0.20845776796340942,-0.16768251359462738
1702059368621614000,16.855614013671875,1.1575896739959717,0.19624045491218567,-0.16523905098438263
1702059368638605600,16.87260546875,1.3469579219818115,0.09605856239795685,-0.22846360504627228
1702059368655604200,16.889604248046876,1.4952454566955566,-0.010079276748001575,-0.35216382145881653
1702059368672596700,16.9065966796875,1.608102798461914,-0.08155050873756409,-0.4444044530391693
1702059368689589800,16.92358984375,1.6548339128494263,-0.08292495459318161,-0.4660901725292206
1702059368706583300,16.940583251953125,1.7191275358200073,-0.03298672288656235,-0.4960225820541382
1702059368723577300,16.957577392578123,1.828472375869751,0.03344487398862839,-0.5555819272994995
1702059368740566500,16.97456640625,1.9242255687713623,0.1336267739534378,-0.5739079117774963
1702059368757565200,16.991565185546875,2.0581576824188232,0.1837177276611328,-0.5861251950263977
1702059368774543400,17.00854345703125,2.2036964893341064,0.12110403180122375,-0.6713408827781677
1702059368791549700,17.0255498046875,2.3490822315216064,-0.006261368747800589,-0.7548767328262329
1702059368808551000,17.042551025390626,2.431701898574829,0.025045474991202354,-0.7444919943809509
1702059368825537800,17.059537841796875,2.507296323776245,0.230448916554451,-0.6748533844947815
1702059368842534700,17.07653466796875,2.6035077571868896,0.44226643443107605,-0.5564982295036316
1702059368859528700,17.09352880859375,2.7012460231781006,0.4482223689556122,-0.5705481171607971
1702059368876523300,17.110523193359374,2.7391197681427,0.29245173931121826,-0.7255551815032959
1702059368893516300,17.127516357421875,2.7870726585388184,0.18646661937236786,-0.8208501935005188
1702059368910510000,17.144510009765625,2.8550314903259277,0.25106561183929443,-0.7493789196014404
1702059368927504000,17.16150390625,2.9327640533447266,0.3865249752998352,-0.6404922008514404
1702059368944499000,17.1784990234375,2.9830076694488525,0.4444044530391693,-0.7111998796463013
1702059368961481700,17.195481689453125,2.9634599685668945,0.43615779280662537,-0.8284859657287598
1702059368978485500,17.212485595703125,2.8579330444335938,0.3712533414363861,-0.8556694984436035
1702059368995479300,17.229479248046875,2.7734808921813965,0.2594650089740753,-0.7982481718063354
1702059369012459800,17.246459716796874,2.771800994873047,0.11881329119205475,-0.8028296232223511
1702059369029467100,17.263467041015623,2.8593075275421143,0.055283304303884506,-0.8329147696495056
1702059369046461000,17.2804609375,2.925128221511841,0.06062837690114975,-0.7993171811103821
1702059369063455000,17.297455078125,2.8846583366394043,0.17928895354270935,-0.6957755088806152
1702059369080449800,17.31444970703125,2.8183796405792236,0.2503020465373993,-0.6264423131942749
1702059369097427500,17.331427490234375,2.7815749645233154,0.13698652386665344,-0.6892086863517761
1702059369114436600,17.3484365234375,2.8125762939453125,-0.05421429127454758,-0.773202657699585
1702059369131430400,17.365430419921875,2.8759536743164062,-0.09422596544027328,-0.7388415336608887
1702059369148425200,17.38242529296875,2.9277243614196777,0.08155050873756409,-0.6792821288108826
1702059369165418200,17.399418212890627,3.015536308288574,0.3399465084075928,-0.6053674817085266
1702059369182412000,17.416412109375,3.081967830657959,0.521984338760376,-0.5789475440979004
1702059369199405800,17.43340576171875,2.9906435012817383,0.4150829315185547,-0.5781839489936829
1702059369216400600,17.450400634765625,2.8593075275421143,0.18539759516716003,-0.5954409241676331
1702059369233393700,17.4673935546875,2.763859748840332,0.12522737681865692,-0.5815436840057373
1702059369250387500,17.484387451171877,2.7905850410461426,0.3623957931995392,-0.4964807331562042
1702059369267381500,17.501381591796875,2.8680124282836914,0.5650503635406494,-0.30970868468284607
1702059369284376300,17.518376220703125,2.8176159858703613,0.5157229900360107,-0.2845104932785034
1702059369301371000,17.535370849609375,2.6148087978363037,0.36590829491615295,-0.42989641427993774
1702059369318361000,17.552361083984376,2.361452341079712,0.21594086289405823,-0.5684100985527039
1702059369335368000,17.569367919921874,2.186134099960327,0.2278527319431305,-0.5994115471839905
1702059369352352000,17.58635205078125,2.0784690380096436,0.32391130924224854,-0.47937649488449097
1702059369369344500,17.603344482421875,1.9509508609771729,0.44577890634536743,-0.34116822481155396
1702059369386338600,17.620338623046877,1.8212947845458984,0.46471574902534485,-0.3121521472930908
1702059369403332600,17.63733251953125,1.658041000366211,0.4108068645000458,-0.3387247920036316
1702059369420327400,17.654327392578125,1.5231925249099731,0.3179553747177124,-0.3732386529445648
1702059369437309400,17.671309326171876,1.429577350616455,0.2996293902397156,-0.3546072840690613
1702059369454312200,17.688312255859376,1.3251193761825562,0.3539963960647583,-0.2539672255516052
1702059369471309800,17.705309814453123,1.16293466091156,0.33536502718925476,-0.1463022232055664
1702059369488292400,17.722292236328126,0.9567676782608032,0.27458393573760986,-0.09911288321018219
1702059369505296000,17.7392958984375,0.8206974864006042,0.21762074530124664,-0.09376781433820724
1702059369522289400,17.756289306640625,0.7221954464912415,0.19257527589797974,-0.0887281745672226
1702059369539283500,17.773283447265626,0.6695083379745483,0.16661348938941956,-0.09407325088977814
1702059369556278300,17.7902783203125,0.633009135723114,0.17302757501602173,-0.06734789162874222
1702059369573271300,17.807271240234375,0.5424483418464661,0.1889100819826126,0.0013744467869400978
1702059369590264600,17.8242646484375,0.4008803069591522,0.14706580340862274,0.02672535367310047
1702059369607259600,17.841259765625,0.266642689704895,0.059406645596027374,0.020311269909143448
1702059369624254200,17.858254150390625,0.19578230381011963,-0.0019853119738399982,0.011301007121801376
1702059369641250000,17.87525,0.20051652193069458,-0.018936822190880775,0.011453723534941673
1702059369658240500,17.892240478515625,0.21380282938480377,-0.017409659922122955,0.015577063895761967
1702059369675234600,17.909234619140626,0.17867808043956757,-0.0064140851609408855,0.021991148591041565
1702059369692226600,17.9262265625,0.10201449692249298,-0.00809396430850029,0.04046982154250145
1702059369709224700,17.943224609375,0.02977968007326126,-0.029626963660120964,0.05757404863834381
1702059369726216000,17.9602158203125,0.005345070734620094,-0.06276640295982361,0.05390885844826698
1702059369743210000,17.9772099609375,0.0065668015740811825,-0.07712173461914062,0.02076941914856434
1702059369760190000,17.99418994140625,0.03298672288656235,-0.06429356336593628,-0.007788531947880983
1702059369777197600,18.011197509765626,0.037110064178705215,-0.03298672288656235,-0.00015271631127689034
1702059369794191600,18.028191650390625,0.014049900695681572,-0.018325956538319588,0.008857546374201775
1702059369811185400,18.045185302734374,-0.010079276748001575,-0.01160643994808197,0.021074850112199783
1702059369828181000,18.062180908203125,-0.010537425056099892,-0.010231993161141872,0.034666601568460464
1702059369845172700,18.0791728515625,-0.01618792861700058,-0.033597588539123535,0.012980886735022068
1702059369862156500,18.096156494140626,0.009621127508580685,-0.0354301854968071,-0.017867809161543846
1702059369879160800,18.113160888671874,0.0377209298312664,-0.005345070734620094,-0.02932153269648552
1702059369896156000,18.130156005859376,0.03940080851316452,0.01466076634824276,-0.00809396430850029
1702059369913148700,18.147148681640626,0.028099801391363144,-0.0010690141934901476,0.01466076634824276
1702059369930132200,18.16413232421875,0.00427605677396059,-0.04108068719506264,0.018478672951459885
1702059369947136500,18.181136474609374,-0.001679879380390048,-0.0734565481543541,0.01160643994808197
1702059369964131300,18.19813134765625,0.02779436856508255,-0.06780604273080826,-0.011759156361222267
1702059369981121500,18.21512158203125,0.0659734457731247,-0.03649919852614403,-0.04108068719506264
1702059369998120700,18.23212060546875,0.07162395119667053,-0.0010690141934901476,-0.04917465150356293
1702059370015112000,18.24911181640625,0.0685696229338646,0.017867809161543846,-0.058337632566690445
1702059370032108500,18.266108642578125,0.05375614017248154,0.00045814894838258624,-0.06200282275676727
1702059370049098200,18.28309814453125,0.02626720629632473,-0.012828170321881771,-0.0455094613134861
1702059370066093600,18.300093505859376,0.016951510682702065,-0.010231993161141872,-0.014355333521962166
1702059370083087400,18.31708740234375,0.002138028386980295,0.004428773187100887,0.020922135561704636
1702059370100079000,18.3340791015625,-0.00931569468230009,0.010537425056099892,0.023365596309304237
1702059370117078500,18.35107861328125,-0.010995574295520782,0.011759156361222267,0.013744467869400978
1702059370134069200,18.3680693359375,-0.013744467869400978,0.01237002108246088,-0.020005837082862854
1702059370151063000,18.38506298828125,-0.005192354787141085,0.013591751456260681,-0.033139441162347794
1702059370168058000,18.40205810546875,0,0.016340645030140877,-0.020616702735424042
1702059370185050600,18.419050537109374,0.0009162978967651725,0.009926560334861279,0.0032070425804704428
1702059370202043000,18.43604296875,-0.012522737495601177,-0.011301007121801376,0.013439035043120384
1702059370219040300,18.453040283203126,-0.038637228310108185,-0.02321287989616394,0.021532999351620674
1702059370236033300,18.470033203125,-0.054825156927108765,-0.02122756652534008,0.003359758760780096
1702059370253026300,18.4870263671875,-0.040622539818286896,-0.01114829070866108,-0.00855211354792118
1702059370270020000,18.50402001953125,-0.01878410577774048,0.010842857882380486,-0.003359758760780096
1702059370287014000,18.521013916015626,-0.0065668015740811825,0.005039638374000788,-0.00015271631127689034
1702059370304009000,18.538009033203124,-0.025961773470044136,-0.021838432177901268,-0.00809396430850029
1702059370321001700,18.555001708984374,-0.07299839705228806,-0.04184427112340927,0.005497787147760391
1702059370337995500,18.57199560546875,-0.13484850525856018,-0.03955352306365967,0.022143865004181862
1702059370354988000,18.588988037109374,-0.18875735998153687,-0.047800205647945404,0.015271631069481373
1702059370371975400,18.605975341796874,-0.23609942197799683,-0.044135015457868576,0.001679879380390048
1702059370388977200,18.62297705078125,-0.2817615866661072,-0.029168816283345222,0.01924225501716137
1702059370405971200,18.63997119140625,-0.328340083360672,-0.05451972410082817,0.016951510682702065
1702059370422965000,18.656965087890626,-0.37858372926712036,-0.12782354652881622,0.008246680721640587
1702059370439959800,18.673959716796876,-0.4813618063926697,-0.1742493063211441,0.02519819140434265
1702059370456952800,18.690952880859374,-0.6214026808738708,-0.17043140530586243,0.05192354694008827
1702059370473946600,18.707946533203124,-0.7771732807159424,-0.16462817788124084,0.08506298810243607
1702059370490940400,18.7249404296875,-0.9256135821342468,-0.18600846827030182,0.10231992602348328
1702059370507935500,18.741935546875,-1.056796908378601,-0.23976461589336395,0.12629638612270355
1702059370524928300,18.75892822265625,-1.1580477952957153,-0.3165809214115143,0.1420261710882187
1702059370541922000,18.775922119140624,-1.2533427476882935,-0.3355177342891693,0.1492038369178772
1702059370558916000,18.792916015625,-1.3593279123306274,-0.2929098904132843,0.17608191072940826
1702059370575908000,18.809908203125,-1.5019649267196655,-0.2252565622329712,0.2587014436721802
1702059370592903700,18.826903564453126,-1.657124638557434,-0.1898263692855835,0.3822489380836487
1702059370609900300,18.843900390625,-1.8208365440368652,-0.19547687470912933,0.47769662737846375
1702059370626891500,18.8608916015625,-1.9796615839004517,-0.26313021779060364,0.4853324294090271
1702059370643886300,18.87788623046875,-2.1306979656219482,-0.32131510972976685,0.4482223689556122
1702059370660879000,18.894879150390626,-2.269822597503662,-0.299476683139801,0.46502116322517395
1702059370677873200,18.911873046875,-2.3973405361175537,-0.21731531620025635,0.5360342264175415
1702059370694867000,18.928866943359374,-2.506380081176758,-0.17256943881511688,0.6003278493881226
1702059370711861800,18.94586181640625,-2.604423999786377,-0.23121249675750732,0.6418666839599609
1702059370728854800,18.962854736328126,-2.7117836475372314,-0.3549126982688904,0.655458390712738
1702059370745850400,18.979850341796876,-2.8150198459625244,-0.44455718994140625,0.683863639831543
1702059370762839800,18.99683984375,-2.9217684268951416,-0.4005748927593231,0.7802276611328125
1702059370779839700,19.01383984375,-3.006525993347168,-0.2871066629886627,0.8998045325279236
1702059370796830500,19.03083056640625,-3.0546317100524902,-0.2616030275821686,0.9512699246406555
1702059370813824000,19.047823974609376,-3.053868055343628,-0.30512720346450806,0.9219483733177185
1702059370830818000,19.064818115234374,-3.0045406818389893,-0.3646865487098694,0.8637634515762329
1702059370847812900,19.081812744140624,-2.953227996826172,-0.39217549562454224,0.8222246170043945
1702059370864806000,19.098805908203126,-2.9181032180786133,-0.36713001132011414,0.8382598161697388
1702059370881799700,19.115799560546876,-2.8718302249908447,-0.3168863356113434,0.8859072923660278
1702059370898793500,19.13279345703125,-2.8173105716705322,-0.29535335302352905,0.8686503767967224
1702059370915788300,19.149788330078124,-2.761569023132324,-0.308792382478714,0.7875580191612244
1702059370932781300,19.16678125,-2.6988027095794678,-0.3150537610054016,0.697149932384491
1702059370949772300,19.183772216796875,-2.5977044105529785,-0.30543261766433716,0.6189591884613037
1702059370966769200,19.20076904296875,-2.4448354244232178,-0.30573806166648865,0.570242702960968
1702059370983757800,19.2177578125,-2.3023509979248047,-0.29046642780303955,0.5940664410591125
1702059371000758500,19.234758544921874,-2.1931588649749756,-0.29077184200286865,0.5951354503631592
1702059371017744100,19.251744140625,-2.107485055923462,-0.3068070709705353,0.542142927646637
1702059371034744600,19.26874462890625,-2.040442705154419,-0.32330042123794556,0.4662429094314575
1702059371051739400,19.285739501953124,-2.0134117603302,-0.24190263450145721,0.45036038756370544
1702059371068732200,19.302732177734374,-1.9370536804199219,-0.1082758679986,0.46990808844566345
1702059371085726200,19.319726318359375,-1.795027494430542,-0.0754418596625328,0.4297437071800232
1702059371102720000,19.336719970703125,-1.6210836172103882,-0.17547103762626648,0.3300199508666992
1702059371119714800,19.35371484375,-1.4914275407791138,-0.26603180170059204,0.2739730477333069
1702059371136707600,19.37070751953125,-1.4414892196655273,-0.25763240456581116,0.3013092875480652
1702059371153699000,19.387698974609375,-1.4098769426345825,-0.2064724564552307,0.3459024429321289
1702059371170698200,19.4046982421875,-1.380555510520935,-0.19624045491218567,0.3442225754261017
1702059371187689500,19.421689453125,-1.3448197841644287,-0.22052235901355743,0.31581732630729675
1702059371204682000,19.438681884765625,-1.3084733486175537,-0.2171625941991806,0.3202461004257202
1702059371221679600,19.4556796875,-1.2672399282455444,-0.19349156320095062,0.32421672344207764
1702059371238660400,19.472660400390627,-1.2125675678253174,-0.19364428520202637,0.29016098380088806
1702059371255666000,19.489666015625,-1.1316279172897339,-0.19425514340400696,0.24953845143318176
1702059371272659500,19.506659423828125,-1.0847439765930176,-0.14019356667995453,0.24129177629947662
1702059371289652000,19.52365185546875,-1.073290228843689,-0.11041389405727386,0.24297164380550385
1702059371306646800,19.540646728515625,-1.1119275093078613,-0.11102475970983505,0.24098633229732513
1702059371323641300,19.557641357421875,-1.1244502067565918,-0.15042556822299957,0.21914790570735931
1702059371340634400,19.57463427734375,-1.1059715747833252,-0.16920967400074005,0.21120665967464447
1702059371357628200,19.591628173828123,-1.0557278394699097,-0.1791362315416336,0.20265454053878784
1702059371374622000,19.6086220703125,-1.0288498401641846,-0.1293507218360901,0.20922134816646576
1702059371391617000,19.625616943359375,-1.0305296182632446,-0.055741455405950546,0.24068090319633484
1702059371408610000,19.642610107421874,-1.0803152322769165,-0.005345070734620094,0.27351492643356323
1702059371425603600,19.659603515625,-1.151481032371521,-0.015118914656341076,0.2646573781967163
1702059371442600400,19.676600341796874,-1.151481032371521,-0.03329215571284294,0.20723603665828705
1702059371459589400,19.69358935546875,-1.087492823600769,0.08888089656829834,0.1537853181362152
1702059371476585200,19.710585205078125,-0.9269880056381226,0.21594086289405823,0.12751811742782593
1702059371493579000,19.7275791015625,-0.7324274182319641,0.16844609379768372,0.1391245573759079
1702059371510573000,19.744572998046873,-0.6594290137290955,0.1598939746618271,0.1794416606426239
1702059371527568000,19.76156787109375,-0.6597344875335693,0.11484266817569733,0.21563543379306793
1702059371544560400,19.778560302734373,-0.6637051105499268,0.04092797264456749,0.26862800121307373
1702059371561555200,19.79555517578125,-0.6427829265594482,-0.011301007121801376,0.30344730615615845
1702059371578548700,19.812548828125,-0.6102544069290161,-0.04566217586398125,0.313373863697052
1702059371595543600,19.82954345703125,-0.5603161454200745,-0.06475171446800232,0.294895201921463
1702059371612536300,19.846536376953125,-0.5480988621711731,-0.0757472887635231,0.2597704529762268
1702059371629530000,19.863530029296875,-0.6162103414535522,-0.10002918541431427,0.1950187236070633
1702059371646524000,19.88052392578125,-0.6881396770477295,-0.13484850525856018,0.1391245573759079
1702059371663517200,19.89751708984375,-0.6846272349357605,-0.1270599663257599,0.1270599663257599
1702059371680513300,19.91451318359375,-0.6637051105499268,-0.098502017557621,0.17623461782932281
1702059371697495300,19.931495361328125,-0.6702718734741211,-0.08506298810243607,0.21731531620025635
1702059371714499600,19.94849951171875,-0.661719799041748,-0.06475171446800232,0.21105393767356873
1702059371731494400,19.965494384765623,-0.5997169613838196,-0.0656680166721344,0.16432274878025055
1702059371748487200,19.982487060546877,-0.5093088746070862,-0.06918048858642578,0.10277807712554932
1702059371765481000,19.99948095703125,-0.4544837474822998,-0.07620543986558914,0.07666359096765518
1702059371782475000,20.01647509765625,-0.42791110277175903,-0.05451972410082817,0.09682214260101318
1702059371799470000,20.033469970703123,-0.44287729263305664,-0.048105638474226,0.12751811742782593
1702059371816462600,20.050462646484377,-0.4366159439086914,-0.0633772686123848,0.12232576310634613
1702059371833456600,20.06745654296875,-0.41340306401252747,-0.07788532227277756,0.13072516024112701
1702059371850450700,20.08445068359375,-0.40973785519599915,-0.061391957104206085,0.1316414624452591
1702059371867445500,20.101445556640623,-0.43417248129844666,-0.0455094613134861,0.12522737681865692
1702059371884438300,20.118438232421877,-0.4505131244659424,-0.016798794269561768,0.1342376321554184
1702059371901428700,20.1354287109375,-0.45433104038238525,0.001832595793530345,0.14248432219028473
1702059371918429400,20.152429443359374,-0.4190535545349121,0.006719517521560192,0.1411098688840866
1702059371935418000,20.169418212890626,-0.39385536313056946,-0.027488935738801956,0.13484850525856018
1702059371952416800,20.186416748046874,-0.4401284158229828,-0.07941248267889023,0.16081027686595917
1702059371969407700,20.20340771484375,-0.5290092825889587,-0.1059851199388504,0.2002110779285431
1702059371986401500,20.220401611328125,-0.5621487498283386,-0.06948592513799667,0.22678372263908386
1702059372003396400,20.237396240234375,-0.4804455041885376,-0.01817324012517929,0.20265454053878784
1702059372020389000,20.25438916015625,-0.33719760179519653,0.014508049935102463,0.14309518039226532
1702059372037383200,20.271383056640627,-0.2611449062824249,0.005497787147760391,0.09254608303308487
1702059372054377000,20.288376953125,-0.27091872692108154,-0.010995574295520782,0.09025534242391586
1702059372071372000,20.3053720703125,-0.31154128909111023,-0.015577063895761967,0.1333213448524475
1702059372088362200,20.3223623046875,-0.2984076738357544,-0.022602014243602753,0.1459967941045761
1702059372105351000,20.339350830078125,-0.25503623485565186,-0.021991148591041565,0.13439035415649414
1702059372122352400,20.356352294921876,-0.21365012228488922,0.005650503560900688,0.11423180252313614
1702059372139347500,20.373347412109375,-0.19058994948863983,0.008857546374201775,0.10445795953273773
1702059372156337700,20.390337646484376,-0.252287358045578,0.03894266113638878,0.1212567538022995
1702059372173336800,20.4073369140625,-0.3055853247642517,0.021838432177901268,0.12293662875890732
1702059372190328000,20.424328125,-0.2866485118865967,-0.007635815534740686,0.10323622822761536
1702059372207323100,20.4413232421875,-0.27259862422943115,0.003359758760780096,0.06933320313692093
1702059372224315600,20.458315673828125,-0.24938572943210602,0.03848451003432274,0.08643743395805359
1702059372241309700,20.475309814453126,-0.2535090744495392,0.06200282275676727,0.11178833991289139
1702059372258303700,20.4923037109375,-0.24297164380550385,0.08231408894062042,0.12202033400535583
1702059372275298600,20.509298583984375,-0.19853121042251587,0.07880161702632904,0.10048733651638031
1702059372292291300,20.526291259765625,-0.11804971098899841,0.060322944074869156,0.05009094998240471
1702059372309285000,20.54328515625,-0.02626720629632473,0.056352317333221436,0.007788531947880983
1702059372326279000,20.56027880859375,0.008704829961061478,0.08216137439012527,0.008704829961061478
1702059372343271700,20.577271728515626,-0.0009162978967651725,0.08368854224681854,0.02015855349600315
1702059372360267000,20.59426708984375,-0.0403171069920063,0.08521570265293121,0.0328340083360672
1702059372377260500,20.611260498046875,-0.04245513305068016,0.08048149943351746,0.03145955875515938
1702059372394254300,20.62825439453125,-0.011301007121801376,0.06750060617923737,0.03649919852614403
1702059372411249400,20.64524951171875,0.00015271631127689034,0.04214970022439957,0.05161811411380768
1702059372428232200,20.662232177734374,-0.03237585723400116,0.01572977937757969,0.05665775015950203
1702059372445238800,20.67923876953125,-0.08689557760953903,-0.005803219974040985,0.04886921867728233
1702059372462227200,20.696227294921876,-0.12767083942890167,-0.009468411095440388,0.029932396486401558
1702059372479231500,20.7132314453125,-0.13744467496871948,-0.019547687843441963,0.019089538604021072
1702059372496216800,20.730216796875,-0.16249015927314758,-0.05146539583802223,0.021074850112199783
1702059372513210000,20.747210205078126,-0.20922134816646576,-0.08200865983963013,0.034666601568460464
1702059372530208300,20.764208251953125,-0.2243402600288391,-0.09315694868564606,0.0455094613134861
