time,seconds_elapsed,z,y,x
1702059826716313300,0.059313232421875,0.3170390725135803,0.24602597951889038,0.6212499737739563
1702059826733306000,0.07630615234375,0.2571742534637451,-0.693026602268219,0.5390886068344116
1702059826750303700,0.0933037109375,0.3533855378627777,-2.049452781677246,0.5957463383674622
1702059826767309800,0.110309814453125,0.5972734689712524,-2.1867449283599854,0.9343183636665344
1702059826784291600,0.12729150390625,0.5934556126594543,-1.601230502128601,1.250288486480713
1702059826801284900,0.144284912109375,0.3436116874217987,-1.7423404455184937,1.4231632947921753
1702059826818280000,0.161280029296875,0.09529497474431992,-2.4239132404327393,1.397354245185852
1702059826835273700,0.178273681640625,-0.247094988822937,-3.1508429050445557,1.3788756132125854
1702059826852269800,0.195269775390625,-0.6380487680435181,-4.050952911376953,1.4249958992004395
1702059826869252400,0.21225244140625,-0.780380368232727,-4.679075241088867,1.5080735683441162
1702059826886256000,0.229256103515625,-0.831845760345459,-4.9257121086120605,1.5231925249099731
1702059826903251700,0.246251708984375,-1.021824836730957,-4.434576034545898,1.6844608783721924
1702059826920241700,0.26324169921875,-1.0554224252700806,-3.6022722721099854,1.8393152952194214
1702059826937236500,0.280236572265625,-0.921184778213501,-2.875190019607544,1.7739527225494385
1702059826954235000,0.29723486328125,-0.7906123399734497,-2.6531405448913574,1.6255123615264893
1702059826971228200,0.314228271484375,-1.2554807662963867,-2.6948320865631104,1.3564262390136719
1702059826988212200,0.331212158203125,-1.6329954862594604,-2.1980459690093994,1.3507757186889648
1702059827005214700,0.348214599609375,-1.5610661506652832,-1.5628987550735474,1.4743232727050781
1702059827022210600,0.36521044921875,-1.2654073238372803,-1.1759155988693237,1.4190399646759033
1702059827039200500,0.382200439453125,-0.8758280277252197,-1.0444267988204956,1.2432634830474854
1702059827056196900,0.39919677734375,-0.6210972666740417,-1.1577423810958862,0.8559749126434326
1702059827073190000,0.41618994140625,-0.926224410533905,-0.9960157871246338,0.556345522403717
1702059827090185200,0.433185302734375,-0.8469646573066711,-0.7096726894378662,0.39125919342041016
1702059827107179800,0.4501796875,-0.60429847240448,-0.5490151643753052,0.40973785519599915
1702059827124163300,0.467163330078125,-0.38148534297943115,-0.2064724564552307,0.4300491213798523
1702059827141169200,0.484169189453125,-0.31230485439300537,0.08338310569524765,0.41661009192466736
1702059827158169000,0.501169189453125,-0.5326744914054871,-0.05650503560900688,0.36819902062416077
1702059827175145200,0.518145263671875,-0.6850853562355042,-0.4583016633987427,0.4931209683418274
1702059827192151000,0.535151123046875,-0.6340781450271606,-0.5403103232383728,0.7626652717590332
1702059827209141200,0.552141357421875,-0.671493649482727,-0.6957755088806152,0.8591819405555725
1702059827226137600,0.5691376953125,-0.7063129544258118,-0.7748825550079346,0.7619016766548157
1702059827243133400,0.586133544921875,-0.7919867634773254,-0.7725918292999268,0.9410378932952881
1702059827260123400,0.603123291015625,-0.7606799602508545,-0.7005097270011902,1.0459539890289307
1702059827277120500,0.62012060546875,-0.7199047207832336,-0.046273041516542435,1.012050986289978
1702059827294113800,0.63711376953125,-0.6806566119194031,0.6291912198066711,0.485027015209198
1702059827311109600,0.654109619140625,-0.6017022728919983,-0.04214970022439957,0.055741455405950546
1702059827328100000,0.67110009765625,-0.5535966157913208,-0.3211624026298523,-0.051312681287527084
1702059827345096200,0.68809619140625,-0.5850561857223511,-0.2987131178379059,0.0403171069920063
1702059827362089500,0.70508935546875,-0.6262896060943604,-0.13026700913906097,0.3315471112728119
1702059827379084300,0.722084228515625,-0.7231117486953735,0.24923302233219147,0.622013509273529
1702059827396078300,0.739078369140625,-0.822682797908783,0.5549710988998413,0.88361656665802
1702059827413074200,0.75607421875,-0.8272642493247986,0.5673410892486572,1.089020013809204
1702059827430064000,0.773064208984375,-0.8341364860534668,0.44593164324760437,1.1803443431854248
1702059827447061500,0.7900615234375,-0.7985535860061646,0.20082195103168488,0.08200865983963013
1702059827464054800,0.8070546875,-0.803440511226654,-0.5042692422866821,0.13759739696979523
1702059827481050400,0.82405029296875,-0.7388415336608887,-0.07467827945947647,0.07620543986558914
1702059827498040600,0.84104052734375,-0.764955997467041,0.16920967400074005,0.06490442901849747
1702059827515037000,0.858036865234375,-0.8349000811576843,0.16829337179660797,0.05665775015950203
1702059827532033000,0.875032958984375,-0.8516988754272461,-0.06887505948543549,0.08429940044879913
1702059827549015800,0.892015869140625,-0.8429940342903137,-0.2076941877603531,0.10231992602348328
1702059827566019300,0.909019287109375,-0.889267086982727,-0.3107776939868927,0.11163562536239624
1702059827583012400,0.926012451171875,-0.9512699246406555,-0.303600013256073,0.12721268832683563
1702059827600007400,0.94300732421875,-1.0476338863372803,-0.20204368233680725,0.1797471046447754
1702059827617002200,0.960002197265625,-1.179275393486023,-0.11942415684461594,0.26511552929878235
1702059827633996000,0.97699609375,-1.2855658531188965,-0.0959058403968811,0.36193767189979553
1702059827650990800,0.993990966796875,-1.3619240522384644,-0.17623461782932281,0.45524731278419495
1702059827667981300,1.010981201171875,-1.4749341011047363,-0.29046642780303955,0.5427537560462952
1702059827684977700,1.027977783203125,-1.649488925933838,-0.2716823220252991,0.6094908118247986
1702059827701970400,1.044970458984375,-1.8434386253356934,-0.17501288652420044,0.6615670323371887
1702059827718965500,1.061965576171875,-2.032043218612671,-0.15363261103630066,0.7128797173500061
1702059827735968500,1.078968505859375,-2.136195659637451,-0.21395555138587952,0.7567093372344971
1702059827752945400,1.0959453125,-2.1728477478027344,-0.3153591752052307,0.7594582438468933
1702059827769945900,1.11294580078125,-2.169029712677002,-0.31871894001960754,0.7122688889503479
1702059827786942700,1.129942626953125,-2.183232307434082,-0.24404066801071167,0.665232241153717
1702059827803934200,1.146934326171875,-2.2434027194976807,-0.22678372263908386,0.6542366743087769
1702059827820934000,1.163933837890625,-2.3377811908721924,-0.20051652193069458,0.6580545902252197
1702059827837922000,1.180922119140625,-2.3932173252105713,-0.17562375962734222,0.6788240075111389
1702059827854921500,1.19792138671875,-2.4446825981140137,-0.25763240456581116,0.71318519115448
1702059827871915500,1.21491552734375,-2.4827091693878174,-0.3423899710178375,0.702800452709198
1702059827888905000,1.231905029296875,-2.5101981163024902,-0.3597996234893799,0.6673702597618103
1702059827905901300,1.2489013671875,-2.4294111728668213,-0.26679539680480957,0.6398813724517822
1702059827922896600,1.265896728515625,-2.3075435161590576,-0.19914206862449646,0.651945948600769
1702059827939880700,1.282880615234375,-2.2501220703125,-0.3049744665622711,0.6769914031028748
1702059827956884000,1.299884033203125,-2.2311851978302,-0.3666718602180481,0.6899722814559937
1702059827973890300,1.316890380859375,-2.22782564163208,-0.3854559659957886,0.6872233748435974
1702059827990872800,1.333872802734375,-2.229810953140259,-0.24663683772087097,0.6879869699478149
1702059828007864000,1.350864013671875,-2.174527645111084,-0.09865473955869675,0.7115052938461304
1702059828024858400,1.3678583984375,-2.116342544555664,-0.13973543047904968,0.737772524356842
1702059828041855000,1.38485498046875,-2.115579128265381,-0.28619036078453064,0.7295258045196533
1702059828058845200,1.40184521484375,-2.1372647285461426,-0.41263946890830994,0.6907358765602112
1702059828075851000,1.41885107421875,-2.1232149600982666,-0.39996400475502014,0.6681338548660278
1702059828092837400,1.43583740234375,-2.0928242206573486,-0.3260493278503418,0.6638578176498413
1702059828109827600,1.45282763671875,-2.0732767581939697,-0.24938572943210602,0.6641632318496704
1702059828126824700,1.46982470703125,-1.9857702255249023,-0.22892175614833832,0.6467535495758057
1702059828143818000,1.48681787109375,-1.8906279802322388,-0.2174680233001709,0.6250678896903992
1702059828160813800,1.503813720703125,-1.7997617721557617,-0.28420504927635193,0.5493205785751343
1702059828177804800,1.5208046875,-1.6991217136383057,-0.2177734673023224,0.41462478041648865
1702059828194798300,1.53779833984375,-1.5031867027282715,-0.07024950534105301,0.33628132939338684
1702059828211794000,1.5547939453125,-1.3828462362289429,-0.041691552847623825,0.3254384696483612
1702059828228790000,1.5717900390625,-1.3828462362289429,0.048258353024721146,0.3367394804954529
1702059828245772000,1.58877197265625,-1.4072808027267456,0.19486601650714874,0.3830125033855438
1702059828262778400,1.6057783203125,-1.4792101383209229,0.14340060949325562,0.4570799171924591
1702059828279768300,1.622768310546875,-1.6278032064437866,-0.098502017557621,0.49846604466438293
1702059828296765400,1.639765380859375,-1.7397441864013672,-0.3098613917827606,0.48838675022125244
1702059828313758700,1.6567587890625,-1.711338996887207,-0.2431243658065796,0.4954117238521576
1702059828330744000,1.673744140625,-1.6180293560028076,-0.04688390716910362,0.4931209683418274
1702059828347744500,1.69074462890625,-1.4613423347473145,0.030085112899541855,0.47311514616012573
1702059828364741000,1.7077412109375,-1.3205379247665405,-0.02519819140434265,0.4590652287006378
1702059828381737000,1.724737060546875,-1.3048081398010254,-0.0029016099870204926,0.48655417561531067
1702059828398726700,1.7417265625,-1.3590224981307983,-0.09468411654233932,0.47021353244781494
1702059828415711700,1.758711669921875,-1.39323091506958,-0.08979719132184982,0.4584543704986572
1702059828432720400,1.775720458984375,-1.3637566566467285,-0.06383541971445084,0.47051894664764404
1702059828449705500,1.79270556640625,-1.2889256477355957,0.04703662544488907,0.44028112292289734
1702059828466706700,1.809706787109375,-1.1346821784973145,0.07101308554410934,0.3880521357059479
1702059828483701000,1.826700927734375,-1.0073168277740479,0.07024950534105301,0.3776674270629883
1702059828500708000,1.8437080078125,-0.9729556441307068,0.0065668015740811825,0.40653082728385925
1702059828517689300,1.860689453125,-0.9692904353141785,-0.12919799983501434,0.4245513379573822
1702059828534682600,1.8776826171875,-0.9370672702789307,-0.16752979159355164,0.41493022441864014
1702059828551677000,1.894677001953125,-0.8072584271430969,0.001527163083665073,0.35155296325683594
1702059828568668200,1.911668212890625,-0.6774495840072632,0.206777885556221,0.2814561724662781
1702059828585663700,1.928663818359375,-0.5922338366508484,0.2474004179239273,0.23411411046981812
1702059828602657300,1.9456572265625,-0.5694791078567505,0.1036943718791008,0.2301434874534607
1702059828619652900,1.96265283203125,-0.5433646440505981,-0.0039706239476799965,0.2474004179239273
1702059828636645000,1.97964501953125,-0.4980078935623169,0.06505715101957321,0.2356412708759308
1702059828653638100,1.99663818359375,-0.4225660264492035,0.10445795953273773,0.20234911143779755
1702059828670634000,2.013634033203125,-0.37369680404663086,0.10965031385421753,0.1699732542037964
1702059828687626500,2.03062646484375,-0.3446807265281677,0.10491610318422318,0.17409659922122955
1702059828704620500,2.04762060546875,-0.3292563557624817,0.078343465924263,0.17928895354270935
1702059828721608200,2.064608154296875,-0.2971859276294708,0.042760565876960754,0.1598939746618271
1702059828738610000,2.08160986328125,-0.25473082065582275,0.039706241339445114,0.13561208546161652
1702059828755605800,2.098605712890625,-0.24159720540046692,0.05497787147760391,0.12431107461452484
1702059828772601300,2.115601318359375,-0.2542726695537567,0.05711590126156807,0.10033461451530457
1702059828789577500,2.132577392578125,-0.29596421122550964,0.014813481830060482,0.09529497474431992
1702059828806588200,2.149588134765625,-0.3116939961910248,-0.026572637259960175,0.10919216275215149
1702059828823581700,2.166581787109375,-0.28527405858039856,-0.04917465150356293,0.1270599663257599
1702059828840573400,2.183573486328125,-0.2321287989616394,-0.05665775015950203,0.12996158003807068
1702059828857564700,2.200564697265625,-0.15515977144241333,-0.04505131021142006,0.13225232064723969
1702059828874563300,2.217563232421875,-0.10751228034496307,-0.03894266113638878,0.1293507218360901
1702059828891559400,2.234559326171875,-0.06505715101957321,0.0019853119738399982,0.11804971098899841
1702059828908542200,2.251542236328125,0.005192354787141085,0.044745877385139465,0.08796459436416626
1702059828925545700,2.268545654296875,0.0682641938328743,0.0630718395113945,0.03985895588994026
1702059828942541300,2.285541259765625,0.08124507963657379,0.03955352306365967,0.005192354787141085
1702059828959531500,2.302531494140625,0.038179077208042145,0.012675453908741474,0.015882495790719986
1702059828976527000,2.319527099609375,-0.04948008432984352,-0.0074830991216003895,0.052228979766368866
1702059828993524200,2.336524169921875,-0.11957687139511108,-0.00809396430850029,0.0682641938328743
1702059829010514700,2.3535146484375,-0.12538009881973267,-0.04245513305068016,0.06979135423898697
1702059829027511000,2.370510986328125,-0.08949175477027893,-0.07131851464509964,0.06582073122262955
1702059829044504300,2.38750439453125,-0.04535674303770065,-0.062460970133543015,0.06704246252775192
1702059829061500200,2.404500244140625,-0.038637228310108185,-0.042760565876960754,0.07147123664617538
1702059829078497300,2.421497314453125,-0.0679587572813034,-0.04459316283464432,0.07483099400997162
1702059829095486700,2.43848681640625,-0.1088867336511612,-0.06444628536701202,0.07651086896657944
1702059829112476000,2.455475830078125,-0.12538009881973267,-0.0734565481543541,0.07238753139972687
1702059829129471200,2.47247119140625,-0.11407908797264099,-0.08735372871160507,0.06963863968849182
1702059829146468400,2.48946826171875,-0.07971791177988052,-0.0913243517279625,0.06918048858642578
1702059829163464700,2.506464599609375,-0.01863138936460018,-0.039095375686883926,0.06459899991750717
1702059829180455000,2.523454833984375,0.038637228310108185,0.0027488935738801956,0.06276640295982361
1702059829197452000,2.5404521484375,0.03436116874217987,-0.0024434609804302454,0.05971207842230797
1702059829214445000,2.557445068359375,-0.018325956538319588,-0.004581489134579897,0.03848451003432274
1702059829231441000,2.57444091796875,-0.060322944074869156,0.01863138936460018,0.013133603148162365
1702059829248430800,2.591430908203125,-0.048105638474226,0.031154127791523933,0.008857546374201775
1702059829265427200,2.60842724609375,0.014966198243200779,0.03375030308961868,0.009773843921720982
1702059829282423300,2.62542333984375,0.06811147183179855,0.024434609338641167,-0.0029016099870204926
1702059829299413200,2.642413330078125,0.09941831976175308,0.038637228310108185,-0.019547687843441963
1702059829316409600,2.65940966796875,0.11514809727668762,0.021991148591041565,-0.023060163483023643
1702059829333404700,2.67640478515625,0.10491610318422318,-0.005497787147760391,-0.020005837082862854
1702059829350395400,2.6933955078125,0.0907134860754013,0.02275473065674305,-0.018020525574684143
1702059829367392800,2.710392822265625,0.07681630551815033,0.0507018156349659,-0.010995574295520782
1702059829384385000,2.727385009765625,0.06383541971445084,0.02825251780450344,0.003054326167330146
1702059829401380900,2.744380859375,0.05268712714314461,0.008704829961061478,0.007788531947880983
1702059829418374700,2.761374755859375,0.038179077208042145,0.010995574295520782,0.0007635815418325365
1702059829435358200,2.778358154296875,0.025503624230623245,0.0039706239476799965,-0.002138028386980295
1702059829452365000,2.795364990234375,0.012828170321881771,0.003817907767370343,0.0032070425804704428
1702059829469353700,2.812353759765625,-0.006261368747800589,0.016340645030140877,0.007941247895359993
1702059829486350300,2.829350341796875,-0.035582900047302246,-0.02932153269648552,0.01664607785642147
1702059829503346000,2.846345947265625,-0.03084869496524334,-0.05803219974040985,0.020922135561704636
1702059829520336100,2.863336181640625,0.02015855349600315,-0.06062837690114975,0.01725694350898266
1702059829537333500,2.88033349609375,0.09926560521125793,-0.031001411378383636,-0.005650503560900688
1702059829554327000,2.8973271484375,0.1794416606426239,0.022143865004181862,-0.04245513305068016
1702059829571322600,2.914322509765625,0.24602597951889038,0.03955352306365967,-0.06994406878948212
1702059829588312600,2.9313125,0.3029891550540924,0.036041051149368286,-0.0835358202457428
1702059829605309200,2.94830908203125,0.3539963960647583,0.02977968007326126,-0.09346238523721695
1702059829622304500,2.965304443359375,0.3718642294406891,0.02626720629632473,-0.10797043144702911
1702059829639295000,2.982294921875,0.4210388660430908,0.031612277030944824,-0.13301590085029602
1702059829656291300,2.999291259765625,0.5068654417991638,0.06673702597618103,-0.152105450630188
1702059829673276700,3.016276611328125,0.5722280144691467,0.13484850525856018,-0.15561792254447937
1702059829690270000,3.03327001953125,0.6024658679962158,0.11850785464048386,-0.14523321390151978
1702059829707274500,3.0502744140625,0.6586654782295227,0.08903361111879349,-0.15561792254447937
1702059829724267000,3.06726708984375,0.8133670687675476,0.13347405195236206,-0.20173825323581696
1702059829741263400,3.084263427734375,1.0276280641555786,0.22846360504627228,-0.25366178154945374
1702059829758253600,3.101253662109375,1.2334896326065063,0.2713768780231476,-0.2977968156337738
1702059829775250400,3.11825048828125,1.386358618736267,0.21762074530124664,-0.34804046154022217
1702059829792245000,3.135244873046875,1.4633276462554932,0.18096883594989777,-0.4063780903816223
1702059829809239300,3.1522392578125,1.5279266834259033,0.2756529450416565,-0.455705463886261
1702059829826235000,3.16923486328125,1.638493299484253,0.3023782968521118,-0.46471574902534485
1702059829843225300,3.186225341796875,1.832595705986023,0.2431243658065796,-0.4660901725292206
1702059829860221200,3.20322119140625,2.0031797885894775,0.07223481684923172,-0.5372560024261475
1702059829877215500,3.220215576171875,2.1363484859466553,-0.16768251359462738,-0.6348416805267334
1702059829894201900,3.237201904296875,2.320066213607788,-0.19364428520202637,-0.6965391039848328
1702059829911191000,3.25419091796875,2.506685495376587,0.00931569468230009,-0.7435756921768188
1702059829928192500,3.271192626953125,2.6036603450775146,0.056810468435287476,-0.759305477142334
1702059829945191700,3.288191650390625,2.7177395820617676,0.1485929638147354,-0.7583891749382019
1702059829962186000,3.30518603515625,2.8538095951080322,0.29367345571517944,-0.8110763430595398
1702059829979179800,3.3221796875,3.017216205596924,0.28466320037841797,-0.8761335015296936
1702059829996173800,3.339173828125,3.1499266624450684,-0.014049900695681572,-0.911410927772522
1702059830013168000,3.356168212890625,3.2209396362304688,-0.24327708780765533,-0.9443976879119873
1702059830030162200,3.373162109375,3.285538673400879,0.07284568250179291,-0.9905179738998413
1702059830047156200,3.39015625,3.3797647953033447,0.5687155723571777,-1.0700831413269043
1702059830064140500,3.407140625,3.445280075073242,0.7648032903671265,-1.163851022720337
1702059830081144600,3.42414453125,3.5056028366088867,0.43615779280662537,-1.2615894079208374
1702059830098138400,3.441138427734375,3.525761365890503,0.12507465481758118,-1.3437508344650269
1702059830115132700,3.458132568359375,3.5431711673736572,0.1765400618314743,-1.397048830986023
1702059830132127000,3.475126953125,3.534619092941284,0.43829581141471863,-1.4596625566482544
1702059830149111300,3.492111328125,3.4799466133117676,0.493731826543808,-1.508989930152893
1702059830166115000,3.509114990234375,3.3603696823120117,0.2652682363986969,-1.4963144063949585
1702059830183109000,3.526109130859375,3.2533156871795654,0.09544769674539566,-1.4408783912658691
1702059830200114000,3.543114013671875,3.177415609359741,0.051312681287527084,-1.3972015380859375
1702059830217097500,3.560097412109375,3.157867908477783,0.24724771082401276,-1.3698652982711792
1702059830234093300,3.57709326171875,3.1945197582244873,0.4593706727027893,-1.3078625202178955
1702059830251085300,3.594085205078125,3.218190908432007,0.3352122902870178,-1.1846203804016113
1702059830268079400,3.611079345703125,3.1662673950195312,0.06734789162874222,-1.0648908615112305
1702059830285068300,3.628068359375,3.0532572269439697,0.040164388716220856,-1.0123564004898071
1702059830302067700,3.645067626953125,2.928793430328369,0.23777928948402405,-0.9373727440834045
1702059830319057700,3.6620576171875,2.7826437950134277,0.41920626163482666,-0.8362745046615601
1702059830336054800,3.6790546875,2.66642689704895,0.38866302371025085,-0.746630072593689
1702059830353051000,3.69605078125,2.509739875793457,0.1992947906255722,-0.7012733221054077
1702059830370044000,3.7130439453125,2.358856201171875,0.07727445662021637,-0.6875288486480713
1702059830387035400,3.730035400390625,2.178040027618408,0.09666942805051804,-0.6667594313621521
1702059830404034800,3.747034912109375,1.9671387672424316,0.20051652193069458,-0.6204863786697388
1702059830421026300,3.7640263671875,1.7247780561447144,0.13805554807186127,-0.5342016816139221
1702059830438017000,3.78101708984375,1.591456651687622,0.14553864300251007,-0.47800204157829285
1702059830455014100,3.79801416015625,1.5291484594345093,0.14569136500358582,-0.4505131244659424
1702059830472008400,3.815008544921875,1.4540120363235474,0.10522153973579407,-0.3937026560306549
1702059830489002500,3.83200244140625,1.333060622215271,0.08460483700037003,-0.35063666105270386
1702059830505996800,3.848996826171875,1.1398745775222778,0.009621127508580685,-0.32070425152778625
1702059830522990600,3.865990478515625,0.9161451458930969,-0.05161811411380768,-0.32268956303596497
1702059830539984600,3.882984619140625,0.7238753437995911,-0.07024950534105301,-0.34284812211990356
1702059830556968400,3.899968505859375,0.622013509273529,-0.051770828664302826,-0.35353827476501465
1702059830573973000,3.916972900390625,0.5797111392021179,0.02672535367310047,-0.3202461004257202
1702059830590965000,3.933965087890625,0.5224425196647644,0.06154467165470123,-0.2275473028421402
1702059830607960600,3.950960693359375,0.40744712948799133,0.07696902006864548,-0.1290452778339386
1702059830624958000,3.9679580078125,0.26343563199043274,0.07987063378095627,-0.06368270516395569
1702059830641949200,3.98494921875,0.14767667651176453,0.07177666574716568,-0.021838432177901268
1702059830658943200,4.001943115234375,0.0861319974064827,0.03695734590291977,0.01924225501716137
1702059830675935700,4.018935791015625,0.06123924255371094,0.023365596309304237,0.06582073122262955
1702059830692931600,4.035931640625,0.04886921867728233,0.03344487398862839,0.09224065393209457
1702059830709925600,4.052925537109375,0.03649919852614403,0.04382958263158798,0.10995574295520782
1702059830726920000,4.069919921875,0.02733621932566166,0.059406645596027374,0.11163562536239624
1702059830743911200,4.0869111328125,0.0032070425804704428,0.04749477282166481,0.10399980843067169
1702059830760910600,4.10391064453125,-0.02886338345706463,0.041233405470848083,0.10064005106687546
1702059830777901800,4.12090185546875,-0.05757404863834381,0.020616702735424042,0.09834930300712585
1702059830794896100,4.137896240234375,-0.0806342139840126,0.015882495790719986,0.09544769674539566
1702059830811880400,4.15488037109375,-0.10445795953273773,0.02382374368607998,0.09743300825357437
1702059830828884500,4.171884521484375,-0.12919799983501434,0.012828170321881771,0.11621711403131485
1702059830845878300,4.188878173828125,-0.14614951610565186,-0.009621127508580685,0.1339322030544281
1702059830862872600,4.20587255859375,-0.14324790239334106,-0.017867809161543846,0.14523321390151978
1702059830879866600,4.22286669921875,-0.12293662875890732,-0.010079276748001575,0.13927727937698364
1702059830896860700,4.239860595703125,-0.10186178237199783,0.004428773187100887,0.12980885803699493
1702059830913854700,4.256854736328125,-0.10186178237199783,0.0039706239476799965,0.10995574295520782
1702059830930848300,4.27384814453125,-0.11728613078594208,-0.00015271631127689034,0.08429940044879913
1702059830947843300,4.29084326171875,-0.11957687139511108,-0.006261368747800589,0.07590000331401825
1702059830964836900,4.3078369140625,-0.10048733651638031,-0.02428189292550087,0.07192938029766083
1702059830981831000,4.324830810546875,-0.07177666574716568,-0.038026362657547,0.05849034711718559
1702059830998822700,4.34182275390625,-0.044135015457868576,-0.02122756652534008,0.03588833287358284
1702059831015818200,4.358818359375,-0.029626963660120964,0.0064140851609408855,0.020922135561704636
1702059831032817000,4.37581689453125,-0.041233405470848083,0.02229658141732216,0.016035212203860283
1702059831049800400,4.392800537109375,-0.06612616032361984,0.030695978552103043,0.01924225501716137
1702059831066796300,4.40979638671875,-0.07819075137376785,0.007788531947880983,0.037110064178705215
1702059831083795500,4.42679541015625,-0.07208210229873657,-0.003512475173920393,0.050243668258190155
1702059831100789800,4.443789794921875,-0.0835358202457428,-0.02580905705690384,0.04260785132646561
1702059831117783800,4.46078369140625,-0.11423180252313614,-0.019547687843441963,0.01924225501716137
1702059831134777900,4.47777783203125,-0.13820825517177582,-0.01863138936460018,0.00015271631127689034
1702059831151772000,4.49477197265625,-0.164170041680336,0.00855211354792118,-0.00427605677396059
1702059831168766000,4.511765869140625,-0.18585574626922607,0.03222314268350601,0.003512475173920393
1702059831185742300,4.528742431640625,-0.2073887437582016,0.03039054572582245,0.03405573591589928
1702059831202754000,4.545754150390625,-0.2353358417749405,0.030695978552103043,0.07620543986558914
1702059831219748400,4.562748291015625,-0.3023782968521118,0.04230241850018501,0.11438451707363129
1702059831236742000,4.579741943359375,-0.4242459237575531,0.06719517707824707,0.16081027686595917
1702059831253737200,4.5967373046875,-0.5564982295036316,0.08964447677135468,0.2226603776216507
1702059831270730500,4.61373046875,-0.6820310354232788,0.07498370856046677,0.2834414839744568
1702059831287726000,4.63072607421875,-0.8177958726882935,0.030237829312682152,0.32986724376678467
1702059831304716000,4.647716064453125,-0.9822713136672974,-0.02886338345706463,0.3724750876426697
1702059831321714200,4.664714111328125,-1.1725558042526245,-0.023518312722444534,0.4251621961593628
1702059831338707000,4.68170703125,-1.3625348806381226,0.0064140851609408855,0.49495357275009155
1702059831355701000,4.698700927734375,-1.5515977144241333,0.04886921867728233,0.5664247870445251
1702059831372695000,4.715695068359375,-1.744478464126587,0.032070424407720566,0.6288857460021973
1702059831389686500,4.7326865234375,-1.9434677362442017,-0.056352317333221436,0.683863639831543
1702059831406684700,4.7496845703125,-2.16964054107666,-0.11682797968387604,0.7432702779769897
1702059831423678500,4.766678466796875,-2.40635085105896,-0.1365283876657486,0.8133670687675476
1702059831440683000,4.78368310546875,-2.6200010776519775,-0.16462817788124084,0.8620835542678833
1702059831457665500,4.80066552734375,-2.7983736991882324,-0.20830504596233368,0.8837692737579346
1702059831474659600,4.81765966796875,-2.9290988445281982,-0.24633140861988068,0.9184358716011047
1702059831491649300,4.834649169921875,-3.008816719055176,-0.2376265823841095,0.9796751141548157
1702059831508644900,4.851644775390625,-3.0657799243927,-0.19135354459285736,1.0299187898635864
1702059831525645000,4.86864501953125,-3.152064561843872,-0.13820825517177582,1.0627528429031372
1702059831542636300,4.88563623046875,-3.2615623474121094,-0.17058411240577698,1.0629055500030518
1702059831559629600,4.902629638671875,-3.357773542404175,-0.23335053026676178,1.0664180517196655
1702059831576624400,4.919624267578125,-3.39411997795105,-0.2278527319431305,1.1064296960830688
1702059831593618400,4.936618408203125,-3.3654093742370605,-0.20525072515010834,1.161102056503296
1702059831610612200,4.9536123046875,-3.2893567085266113,-0.20357084274291992,1.1913399696350098
1702059831627605800,4.970605712890625,-3.2065844535827637,-0.18799377977848053,1.1864529848098755
1702059831644601300,4.987601318359375,-3.138167381286621,-0.2021963894367218,1.1681270599365234
1702059831661582300,5.004582275390625,-3.0747902393341064,-0.2837468981742859,1.1516337394714355
1702059831678588200,5.021588134765625,-2.992170572280884,-0.3182607889175415,1.1258246898651123
1702059831695585500,5.03858544921875,-2.877938985824585,-0.25473082065582275,1.0603092908859253
1702059831712567600,5.055567626953125,-2.7456865310668945,-0.15134187042713165,0.9564622640609741
1702059831729570800,5.07257080078125,-2.6038131713867188,-0.08231408894062042,0.8431467413902283
1702059831746565000,5.089565185546875,-2.4489588737487793,-0.11560624837875366,0.7374670505523682
1702059831763559000,5.106558837890625,-2.306321620941162,-0.10277807712554932,0.6757696866989136
1702059831780550700,5.123550537109375,-2.202627420425415,-0.15012013912200928,0.6656904220581055
1702059831797549800,5.1405498046875,-2.066251754760742,-0.2018909603357315,0.6638578176498413
1702059831814541300,5.157541259765625,-1.931708574295044,-0.17287486791610718,0.6252205967903137
1702059831831535400,5.174535400390625,-1.822821855545044,-0.21135938167572021,0.5583308339118958
1702059831848523800,5.191523681640625,-1.7397441864013672,-0.1612684279680252,0.5106833577156067
1702059831865521400,5.208521484375,-1.703092336654663,-0.16203200817108154,0.5013676285743713
1702059831882517800,5.225517822265625,-1.685835361480713,-0.21471913158893585,0.4954117238521576
1702059831899509500,5.242509521484375,-1.6502524614334106,-0.23273965716362,0.485027015209198
1702059831916508400,5.25950830078125,-1.5861116647720337,-0.23335053026676178,0.46181413531303406
1702059831933500000,5.2765,-1.4892895221710205,-0.22159136831760406,0.43127086758613586
1702059831950494200,5.293494140625,-1.358258843421936,-0.20066922903060913,0.39187005162239075
1702059831967488300,5.31048828125,-1.2290608882904053,-0.18555031716823578,0.35552358627319336
1702059831984483000,5.327483154296875,-1.1769846677780151,-0.19608774781227112,0.3585779070854187
1702059832001475600,5.3444755859375,-1.1928671598434448,-0.22143864631652832,0.394008070230484
1702059832018470400,5.361470458984375,-1.2041680812835693,-0.20601430535316467,0.4155410826206207
1702059832035464400,5.37846435546875,-1.1659890413284302,-0.12950342893600464,0.39736783504486084
1702059832052456400,5.39545654296875,-1.0787880420684814,-0.0429132841527462,0.35262197256088257
1702059832069455600,5.41245556640625,-0.9999864101409912,-0.024434609338641167,0.3315471112728119
1702059832086444000,5.429444091796875,-0.9640980958938599,-0.054367005825042725,0.33505958318710327
1702059832103441000,5.44644091796875,-0.9775370955467224,-0.12950342893600464,0.35613444447517395
1702059832120435200,5.463435302734375,-1.0445796251296997,-0.15729780495166779,0.39248090982437134
1702059832137429000,5.480428955078125,-1.1053606271743774,-0.1595885455608368,0.4005748927593231
1702059832154423300,5.49742333984375,-1.0644327402114868,-0.13805554807186127,0.3956879675388336
1702059832171414500,5.51441455078125,-0.9353874325752258,-0.11942415684461594,0.403781920671463
1702059832188414000,5.5314140625,-0.8170322775840759,-0.1108720451593399,0.40744712948799133
1702059832205406200,5.54840625,-0.7281513810157776,-0.14737124741077423,0.413555771112442
1702059832222399500,5.5653994140625,-0.6837109327316284,-0.08689557760953903,0.3831652104854584
1702059832239393800,5.582393798828125,-0.6798930168151855,-0.10659598559141159,0.3433062732219696
1702059832256385800,5.5993857421875,-0.6902777552604675,-0.10155634582042694,0.3000875413417816
1702059832273380900,5.616380859375,-0.6753115057945251,-0.11026117950677872,0.26679539680480957
1702059832290376700,5.633376708984375,-0.6589708924293518,-0.1281289905309677,0.2541199326515198
1702059832307370200,5.650370361328125,-0.6620252132415771,-0.1547016203403473,0.26771169900894165
1702059832324361700,5.66736181640625,-0.6600399017333984,-0.13698652386665344,0.28038713335990906
1702059832341360600,5.684360595703125,-0.6440047025680542,-0.07269296050071716,0.25671613216400146
1702059832358352400,5.701352294921875,-0.5911648273468018,-0.025656340643763542,0.2073887437582016
1702059832375346400,5.718346435546875,-0.5073235630989075,0.023060163483023643,0.16065755486488342
1702059832392340500,5.735340576171875,-0.446389764547348,0.055894169956445694,0.13958270847797394
1702059832409334800,5.752334716796875,-0.40133845806121826,0.03527746722102165,0.14049901068210602
1702059832426326000,5.769325927734375,-0.3827070891857147,-0.008857546374201775,0.15500704944133759
1702059832443325400,5.786325439453125,-0.37171149253845215,0.0025961773935705423,0.14477506279945374
1702059832460317000,5.80331689453125,-0.3474296033382416,0.020463986322283745,0.11468994617462158
1702059832477310700,5.820310791015625,-0.3019201457500458,0.01038470957428217,0.08827003091573715
1702059832494305000,5.837304931640625,-0.26404649019241333,-0.02428189292550087,0.08139779418706894
1702059832511292200,5.854292236328125,-0.25305092334747314,-0.05375614017248154,0.10522153973579407
1702059832528293000,5.871293212890625,-0.24236078560352325,-0.036193765699863434,0.1394299864768982
1702059832545287400,5.888287353515625,-0.21563543379306793,-0.04505131021142006,0.15164729952812195
1702059832562278700,5.905278564453125,-0.21670444309711456,-0.10965031385421753,0.12003502249717712
1702059832579278000,5.922278076171875,-0.23121249675750732,-0.09789115190505981,0.0809396430850029
1702059832596269600,5.93926953125,-0.23411411046981812,-0.038637228310108185,0.07192938029766083
1702059832613263600,5.956263671875,-0.2356412708759308,-0.03634648025035858,0.09040805697441101
1702059832630257700,5.973257568359375,-0.21044307947158813,-0.04612032696604729,0.1007927656173706
1702059832647251700,5.990251708984375,-0.14584407210350037,-0.03145955875515938,0.09407325088977814
1702059832664246000,6.00724609375,-0.08521570265293121,0.00366519158706069,0.07483099400997162
1702059832681231400,6.0242314453125,-0.05971207842230797,0.020311269909143448,0.06276640295982361
1702059832698234000,6.041234130859375,-0.07422012835741043,0.0007635815418325365,0.0630718395113945
1702059832715228200,6.058228271484375,-0.09040805697441101,-0.007177666760981083,0.057879481464624405
1702059832732222200,6.07522216796875,-0.08659014850854874,0.018478672951459885,0.03436116874217987
1702059832749216300,6.09221630859375,-0.04245513305068016,0.05925392732024193,0.00733038317412138
1702059832766210300,6.109210205078125,0.00809396430850029,0.06062837690114975,-0.0013744467869400978
1702059832783204600,6.12620458984375,0.013133603148162365,0.006261368747800589,0.018936822190880775
1702059832800197600,6.14319775390625,-0.016798794269561768,-0.01038470957428217,0.04184427112340927
1702059832817193500,6.160193359375,-0.06551529467105865,0.016340645030140877,0.04612032696604729
1702059832834186800,6.177186767578125,-0.08552113175392151,0.03573561832308769,0.03222314268350601
1702059832851181000,6.19418115234375,-0.0685696229338646,0.027183502912521362,0.023518312722444534
1702059832868174800,6.2111748046875,-0.03588833287358284,-0.003359758760780096,0.022907447069883347
1702059832885169000,6.2281689453125,-0.020922135561704636,-0.011759156361222267,0.013439035043120384
1702059832902163200,6.2451630859375,-0.03084869496524334,-0.0029016099870204926,-0.012064588256180286
1702059832919155200,6.2621552734375,-0.031154127791523933,-0.00427605677396059,-0.0354301854968071
1702059832936148700,6.279148681640625,-0.009773843921720982,-0.02871066704392433,-0.04764748737215996
1702059832953145900,6.296145751953125,0.014049900695681572,-0.032070424407720566,-0.05146539583802223
1702059832970131500,6.31313134765625,0.017867809161543846,-0.03573561832308769,-0.04260785132646561
1702059832987131000,6.330130859375,0.012828170321881771,-0.04535674303770065,-0.02535090781748295
1702059833004135200,6.34713525390625,0.02367102913558483,-0.06200282275676727,-0.009926560334861279
1702059833021121800,6.364121826171875,0.04963280260562897,-0.04535674303770065,-0.008857546374201775
1702059833038115800,6.38111572265625,0.06169738993048668,-0.026572637259960175,-0.018936822190880775
1702059833055102200,6.398102294921875,0.05268712714314461,-0.02779436856508255,-0.03191770985722542
1702059833072104200,6.415104248046875,0.01160643994808197,-0.041691552847623825,-0.030237829312682152
1702059833089098200,6.43209814453125,-0.04337143152952194,-0.03726277872920036,-0.009468411095440388
1702059833106086100,6.449086181640625,-0.055894169956445694,-0.016340645030140877,0.015577063895761967
1702059833123090400,6.46609033203125,-0.02275473065674305,-0.013439035043120384,0.003054326167330146
1702059833140080400,6.483080322265625,0.00015271631127689034,-0.023518312722444534,-0.033597588539123535
1702059833157072600,6.50007275390625,-0.021380282938480377,-0.05360342562198639,-0.05146539583802223
1702059833174068000,6.51706787109375,-0.05497787147760391,-0.04184427112340927,-0.03344487398862839
1702059833191065300,6.5340654296875,-0.0656680166721344,-0.010690141469240189,-0.003054326167330146
1702059833208057000,6.55105712890625,-0.05467243865132332,0.009621127508580685,0.016951510682702065
1702059833225059600,6.5680595703125,-0.03848451003432274,0.008399397134780884,0.021838432177901268
1702059833242048000,6.585048095703125,-0.033139441162347794,-0.0022907445672899485,0.009773843921720982
1702059833259036000,6.602035888671875,-0.051312681287527084,-0.003054326167330146,-0.0006108652451075613
1702059833276033000,6.619032958984375,-0.06612616032361984,0.006872233934700489,0.010231993161141872
1702059833293027300,6.63602734375,-0.07666359096765518,-0.00045814894838258624,0.022602014243602753
1702059833310021400,6.653021484375,-0.06444628536701202,-0.003359758760780096,0.013744467869400978
1702059833327015700,6.670015625,-0.036193765699863434,-0.00855211354792118,-0.003054326167330146
1702059833344009000,6.687009033203125,-0.02977968007326126,-0.01114829070866108,-0.005192354787141085
1702059833361010000,6.704010009765625,-0.04734205827116966,0.002138028386980295,-0.004123340360820293
1702059833377997800,6.720997802734375,-0.06780604273080826,0.022449297830462456,0.0019853119738399982
1702059833394991900,6.737991943359375,-0.05849034711718559,0.025961773470044136,0.0027488935738801956
1702059833411986000,6.75498583984375,-0.012217304669320583,0.0006108652451075613,-0.004886921960860491
1702059833428980000,6.77197998046875,0.043218716979026794,-0.009468411095440388,-0.02687807008624077
1702059833445974000,6.78897412109375,0.07070764899253845,0.0007635815418325365,-0.048716504126787186
1702059833462957800,6.805957763671875,0.042760565876960754,-0.0009162978967651725,-0.051770828664302826
1702059833479962400,6.82296240234375,-0.00931569468230009,0.011453723534941673,-0.037110064178705215
1702059833496956400,6.839956298828125,-0.046273041516542435,0.02015855349600315,-0.01114829070866108
1702059833513950500,6.856950439453125,-0.0555887371301651,0.010231993161141872,0.003817907767370343
1702059833530944500,6.873944580078125,-0.043676864355802536,-0.025045474991202354,0.01114829070866108
1702059833547938600,6.8909384765625,-0.0403171069920063,-0.05406157299876213,0.010842857882380486
1702059833564922400,6.90792236328125,-0.038179077208042145,-0.04657847434282303,0.004734205547720194
1702059833581927000,6.924927001953125,-0.02779436856508255,-0.02122756652534008,-0.0007635815418325365
1702059833598918400,6.94191845703125,-0.025503624230623245,-0.017409659922122955,-0.0064140851609408855
1702059833615917600,6.95891748046875,-0.024892758578062057,-0.023060163483023643,-0.01466076634824276
1702059833632909300,6.975909423828125,-0.036651913076639175,-0.03497203439474106,-0.021380282938480377
1702059833649901300,6.9929013671875,-0.06780604273080826,-0.05375614017248154,-0.011301007121801376
1702059833666899200,7.009899169921875,-0.1010981947183609,-0.05650503560900688,0.01038470957428217
1702059833683891500,7.026891357421875,-0.10873401165008545,-0.035582900047302246,0.03329215571284294
1702059833700885200,7.04388525390625,-0.0708603709936142,-0.004428773187100887,0.029168816283345222
1702059833717879600,7.060879638671875,-0.008246680721640587,0.013744467869400978,0.004886921960860491
1702059833734874600,7.07787451171875,0.00931569468230009,-0.006719517521560192,-0.007635815534740686
1702059833751866600,7.09486669921875,0.0012217304902151227,-0.021380282938480377,0.0019853119738399982
1702059833768861700,7.11186181640625,-0.009162978269159794,-0.011759156361222267,0.008704829961061478
1702059833785855700,7.128855712890625,-0.02871066704392433,-0.011301007121801376,0.0074830991216003895
1702059833802850000,7.14585009765625,-0.04963280260562897,-0.027488935738801956,0.003054326167330146
1702059833819841500,7.162841552734375,-0.04566217586398125,-0.03191770985722542,-0.0010690141934901476
1702059833836840700,7.1798408203125,-0.01817324012517929,-0.025961773470044136,-0.004123340360820293
1702059833853832200,7.196832275390625,0.0064140851609408855,-0.025045474991202354,-0.00015271631127689034
1702059833870830600,7.21383056640625,0.010231993161141872,-0.031001411378383636,0.010537425056099892
1702059833887820500,7.230820556640625,-0.0032070425804704428,-0.04138612002134323,0.01725694350898266
1702059833904814600,7.247814697265625,-0.023976460099220276,-0.03878994286060333,0.014966198243200779
1702059833921808600,7.26480859375,-0.036041051149368286,-0.041691552847623825,0.007177666760981083
1702059833938800000,7.281800048828125,-0.02779436856508255,-0.039248090237379074,-0.012828170321881771
1702059833955799300,7.29879931640625,-0.0006108652451075613,-0.031612277030944824,-0.029016099870204926
1702059833972786200,7.3157861328125,0.02535090781748295,-0.027183502912521362,-0.022449297830462456
1702059833989785000,7.33278515625,0.043218716979026794,-0.02672535367310047,-0.002138028386980295
1702059834006779100,7.349779052734375,0.056810468435287476,-0.025045474991202354,0.00931569468230009
1702059834023773000,7.36677294921875,0.07712173461914062,-0.025045474991202354,-0.0009162978967651725
1702059834040767200,7.383767333984375,0.11056660860776901,-0.016340645030140877,-0.02672535367310047
1702059834057761300,7.40076123046875,0.1472185254096985,-0.0019853119738399982,-0.05100724846124649
1702059834074755300,7.41775537109375,0.19898934662342072,0.00733038317412138,-0.054825156927108765
1702059834091749600,7.43474951171875,0.25992316007614136,0.021074850112199783,-0.04153883829712868
1702059834108743700,7.45174365234375,0.29794952273368835,0.040622539818286896,-0.02977968007326126
1702059834125733000,7.468733154296875,0.33169981837272644,0.06643159687519073,-0.03451388701796532
1702059834142736600,7.485736572265625,0.40714168548583984,0.12064588814973831,-0.05726861581206322
1702059834159725800,7.502725830078125,0.5306891798973083,0.19914206862449646,-0.10262536257505417
1702059834176720000,7.519719970703125,0.6905831694602966,0.3019201457500458,-0.15012013912200928
1702059834193714000,7.5367138671875,0.8208501935005188,0.33337971568107605,-0.1615738570690155
1702059834210708000,7.5537080078125,0.8891143798828125,0.31871894001960754,-0.16340644657611847
1702059834227691800,7.57069189453125,0.9669997096061707,0.2880229651927948,-0.17776179313659668
1702059834244698400,7.587698486328125,1.0551170110702515,0.2952006161212921,-0.2301434874534607
1702059834261688300,7.604688232421875,1.2044734954833984,0.3741549551486969,-0.3367394804954529
1702059834278684400,7.621684326171875,1.424843192100525,0.3637702465057373,-0.4369213581085205
1702059834295678500,7.638678466796875,1.6801848411560059,0.27718010544776917,-0.4518875777721405
1702059834312672500,7.655672607421875,1.9075794219970703,0.2116648107767105,-0.43188172578811646
1702059834329666800,7.672666748046875,2.1029036045074463,0.2967278063297272,-0.4674646258354187
1702059834346660900,7.689660888671875,2.2605068683624268,0.39416080713272095,-0.5861251950263977
1702059834363655000,7.706655029296875,2.4306328296661377,0.4856378734111786,-0.7189884185791016
1702059834380648700,7.723648681640625,2.6332874298095703,0.4450153410434723,-0.8008443117141724
1702059834397643300,7.740643310546875,2.8350255489349365,0.3364340364933014,-0.8996517658233643
1702059834414636500,7.757636474609375,3.0242412090301514,0.2321287989616394,-1.061989188194275
1702059834431632000,7.7746318359375,3.160158634185791,0.41523563861846924,-1.2585351467132568
1702059834448625400,7.79162548828125,3.2873713970184326,0.5853615999221802,-1.3312281370162964
1702059834465619500,7.808619384765625,3.34983229637146,0.3897320330142975,-1.2736539840698242
1702059834482604000,7.82560400390625,3.386484146118164,0.09728029370307922,-1.2670872211456299
1702059834499607800,7.84260791015625,3.431382894515991,0.3269656300544739,-1.350928544998169
1702059834516598500,7.8595986328125,3.539964199066162,0.8926268219947815,-1.3909401893615723
1702059834533598700,7.8765986328125,3.596163749694824,1.0169379711151123,-1.3000739812850952
1702059834550590000,7.89358984375,3.559969902038574,0.7339546084403992,-1.163851022720337
1702059834567584000,7.910583984375,3.4959816932678223,0.26313021779060364,-1.1357512474060059
1702059834584578000,7.927578125,3.37518310546875,0.1918116807937622,-1.2399036884307861
1702059834601571300,7.9445712890625,3.2615623474121094,0.7515169382095337,-1.3237450122833252
1702059834618567000,7.96156689453125,3.157257080078125,1.1604912281036377,-1.3292428255081177
1702059834635557600,7.9785576171875,3.046079635620117,0.8859072923660278,-1.1749993562698364
1702059834652557000,7.99555712890625,2.9666671752929688,0.45142942667007446,-1.0340421199798584
1702059834669548500,8.012548583984374,2.9465084075927734,0.32100969552993774,-1.0771081447601318
1702059834686542600,8.02954248046875,2.9458975791931152,0.5061018466949463,-1.1804970502853394
1702059834703526400,8.0465263671875,2.9738447666168213,0.6550002694129944,-1.2457069158554077
1702059834720528100,8.063528076171876,3.0022499561309814,0.4466952085494995,-1.1630873680114746
1702059834737527600,8.080527587890625,2.9162707328796387,0.16691893339157104,-1.0572550296783447
1702059834754519000,8.09751904296875,2.7934868335723877,0.1722639948129654,-1.0529789924621582
1702059834771513000,8.11451318359375,2.7572929859161377,0.4421137273311615,-1.147357702255249
1702059834788507400,8.13150732421875,2.766914129257202,0.5007568001747131,-1.1391109228134155
1702059834805491000,8.148490966796874,2.769052267074585,0.34926220774650574,-1.0771081447601318
1702059834822495200,8.1654951171875,2.6583328247070312,0.07620543986558914,-1.0276280641555786
1702059834839489500,8.182489501953125,2.409252643585205,-0.03436116874217987,-1.09024178981781
1702059834856483600,8.199483642578125,2.1711678504943848,-0.04489859566092491,-1.1397218704223633
1702059834873477600,8.2164775390625,2.0115792751312256,0.07925976812839508,-1.1157454252243042
1702059834890471400,8.233471435546875,1.9601138830184937,0.1560760736465454,-1.035416603088379
1702059834907464400,8.25046435546875,1.9886717796325684,0.16661348938941956,-0.941343367099762
1702059834924461300,8.26746142578125,1.9289597272872925,0.07819075137376785,-0.9033169746398926
1702059834941454300,8.284454345703125,1.7930421829223633,0.042760565876960754,-0.8808676600456238
1702059834958448000,8.3014482421875,1.5781704187393188,0.04382958263158798,-0.8052731156349182
1702059834975442200,8.318442138671875,1.3646728992462158,0.09315694868564606,-0.6991352438926697
1702059834992436200,8.335436279296875,1.156978726387024,0.076052725315094,-0.5502368807792664
1702059835009430500,8.352430419921875,0.9783006906509399,0.029168816283345222,-0.42439863085746765
1702059835026424600,8.369424560546875,0.8503243923187256,0.04138612002134323,-0.3689626157283783
1702059835043416000,8.386416015625,0.7422012686729431,0.06887505948543549,-0.3617849349975586
1702059835060415500,8.40341552734375,0.6414085030555725,0.07330382615327835,-0.3280346393585205
1702059835077406200,8.42040625,0.5253441333770752,0.06963863968849182,-0.2565633952617645
1702059835094398000,8.43739794921875,0.41111230850219727,0.02519819140434265,-0.18157969415187836
1702059835111394800,8.454394775390625,0.318566232919693,0.01618792861700058,-0.12232576310634613
1702059835128377600,8.471377685546875,0.26083946228027344,0.04566217586398125,-0.07941248267889023
1702059835145381000,8.488381103515625,0.2347249686717987,0.058948494493961334,-0.051770828664302826
1702059835162376400,8.50537646484375,0.22907446324825287,0.08552113175392151,-0.028099801391363144
1702059835179367400,8.522367431640625,0.22876903414726257,0.11239920556545258,0.0039706239476799965
1702059835196366000,8.539365966796876,0.20830504596233368,0.09758572280406952,0.038026362657547
1702059835213356000,8.55635595703125,0.17928895354270935,0.0887281745672226,0.05726861581206322
1702059835230352600,8.5733525390625,0.1440114825963974,0.08857546001672745,0.06230825558304787
1702059835247348000,8.590347900390626,0.10018189996480942,0.10308351367712021,0.057879481464624405
1702059835264326100,8.607326171875,0.05864306539297104,0.09728029370307922,0.06658431142568588
1702059835281335800,8.624335693359376,0.03176499158143997,0.08720101416110992,0.08109235763549805
1702059835298329900,8.641329833984376,0.021991148591041565,0.05696318298578262,0.08750644326210022
1702059835315324200,8.65832421875,0.030543262138962746,0.029626963660120964,0.08735372871160507
1702059835332314600,8.675314697265625,0.03955352306365967,0.009621127508580685,0.08445212244987488
1702059835349323300,8.6923232421875,0.033597588539123535,0.021532999351620674,0.06414084881544113
1702059835366305800,8.709305908203126,0.0029016099870204926,0.01618792861700058,0.04459316283464432
1702059835383296800,8.726296875,-0.029168816283345222,-0.00045814894838258624,0.03756821155548096
1702059835400287000,8.743286865234374,-0.036651913076639175,-0.017409659922122955,0.03726277872920036
1702059835417277700,8.760277587890625,-0.011759156361222267,-0.0328340083360672,0.03833179548382759
1702059835434279000,8.77727880859375,0.020311269909143448,-0.028099801391363144,0.025656340643763542
1702059835451276500,8.794276611328126,0.038026362657547,-0.0029016099870204926,-0.0029016099870204926
1702059835468269800,8.811269775390626,0.02871066704392433,0.005192354787141085,-0.03451388701796532
1702059835485265400,8.828265380859374,0.0010690141934901476,-0.0024434609804302454,-0.053297992795705795
1702059835502254300,8.84525439453125,-0.018936822190880775,-0.028405234217643738,-0.05757404863834381
1702059835519253200,8.862253173828124,-0.009162978269159794,-0.038179077208042145,-0.05742133408784866
1702059835536247800,8.879247802734374,0.021991148591041565,-0.05360342562198639,-0.05115996301174164
1702059835553235200,8.896235107421875,0.03848451003432274,-0.06750060617923737,-0.04199698567390442
1702059835570237000,8.91323681640625,0.02519819140434265,-0.0630718395113945,-0.03481931984424591
1702059835587230200,8.930230224609375,0.003817907767370343,-0.06108652427792549,-0.026114489883184433
1702059835604220400,8.947220458984376,-0.018936822190880775,-0.07192938029766083,-0.013591751456260681
1702059835621217500,8.964217529296874,-0.04184427112340927,-0.07422012835741043,-0.0012217304902151227
1702059835638210800,8.9812109375,-0.06108652427792549,-0.07819075137376785,0.007177666760981083
1702059835655206400,8.998206298828125,-0.06750060617923737,-0.0936150997877121,0.012675453908741474
1702059835672196600,9.015196533203126,-0.057879481464624405,-0.0988074541091919,0.005955935921519995
1702059835689193000,9.03219287109375,-0.05360342562198639,-0.07528914511203766,-0.0027488935738801956
1702059835706189000,9.04918896484375,-0.07956519722938538,-0.07101308554410934,0.0065668015740811825
1702059835723178800,9.0661787109375,-0.11927144229412079,-0.06291911751031876,0.03298672288656235
1702059835740175400,9.08317529296875,-0.164170041680336,-0.0659734457731247,0.06398813426494598
1702059835757174800,9.1001748046875,-0.2041817009449005,-0.0780380368232727,0.0936150997877121
1702059835774161200,9.1171611328125,-0.235030397772789,-0.08292495459318161,0.10583240538835526
1702059835791148000,9.13414794921875,-0.28267788887023926,-0.08933904021978378,0.10201449692249298
1702059835808133600,9.151133544921874,-0.35552358627319336,-0.09147707372903824,0.11698069423437119
1702059835825147400,9.1681474609375,-0.45265114307403564,-0.10506882518529892,0.1635591685771942
1702059835842137300,9.185137451171874,-0.5633704662322998,-0.11102475970983505,0.21212296187877655
1702059835859129900,9.2021298828125,-0.6733261942863464,-0.0988074541091919,0.24342979490756989
1702059835876133400,9.21913330078125,-0.7857254147529602,-0.12339477986097336,0.2620611786842346
1702059835893119500,9.236119384765624,-0.9069821834564209,-0.14935655891895294,0.2716823220252991
1702059835910116000,9.2531162109375,-1.0222829580307007,-0.1618792861700058,0.2971859276294708
1702059835927112200,9.2701123046875,-1.1299480199813843,-0.14278975129127502,0.34605515003204346
1702059835944109800,9.28710986328125,-1.2571606636047363,-0.12370020896196365,0.4056145250797272
1702059835961099300,9.304099365234375,-1.4110987186431885,-0.16142113506793976,0.4479169547557831
1702059835978092500,9.321092529296875,-1.575726866722107,-0.18646661937236786,0.44104471802711487
1702059835995088100,9.338088134765625,-1.7206547260284424,-0.13775011897087097,0.44425174593925476
1702059836012078000,9.355078125,-1.8309158086776733,-0.08414668589830399,0.5064072608947754
1702059836029058600,9.37205859375,-1.943009614944458,-0.055894169956445694,0.6253733038902283
1702059836046070500,9.389070556640625,-2.079996109008789,-0.07131851464509964,0.7232644557952881
1702059836063060500,9.406060546875,-2.269975185394287,-0.07238753139972687,0.7567093372344971
1702059836080057000,9.42305712890625,-2.4781274795532227,-0.06062837690114975,0.778853178024292
1702059836097052700,9.440052734375,-2.6894869804382324,0.007177666760981083,0.8516988754272461
1702059836114042600,9.457042724609375,-2.833498477935791,-0.025656340643763542,0.9952521920204163
1702059836131040300,9.474040283203125,-2.937345504760742,-0.05619960278272629,1.1595749855041504
1702059836148045300,9.49104541015625,-3.046232223510742,-0.1537853181362152,1.2764029502868652
1702059836165032000,9.508031982421874,-3.1335859298706055,-0.23258693516254425,1.3125966787338257
1702059836182022000,9.52502197265625,-3.188411235809326,-0.2744311988353729,1.2873984575271606
1702059836199015700,9.542015625,-3.215441942214966,-0.24678955972194672,1.2637274265289307
1702059836216011300,9.55901123046875,-3.2146782875061035,-0.26404649019241333,1.2764029502868652
1702059836233001500,9.57600146484375,-3.196352481842041,-0.2968805134296417,1.272737741470337
1702059836249998000,9.592998046875,-3.1726813316345215,-0.275958389043808,1.2368494272232056
1702059836266993700,9.60999365234375,-3.123201370239258,-0.26740625500679016,1.208902359008789
1702059836283974700,9.626974609375,-3.026684522628784,-0.23121249675750732,1.1733194589614868
1702059836300973000,9.64397314453125,-2.917797803878784,-0.17959438264369965,1.1617130041122437
1702059836317974300,9.660974365234376,-2.80845308303833,-0.13118331134319305,1.1762210130691528
1702059836334970000,9.67797021484375,-2.682461977005005,-0.08552113175392151,1.1840095520019531
1702059836351959800,9.694959716796875,-2.573880672454834,-0.09483683109283447,1.1577423810958862
1702059836368956400,9.711956298828126,-2.4862215518951416,-0.10461067408323288,1.092837929725647
1702059836385955800,9.728955810546875,-2.4216225147247314,-0.11728613078594208,1.0245736837387085
1702059836402942200,9.745942138671875,-2.348013401031494,-0.08399397134780884,0.9799805879592896
1702059836419938800,9.762938720703126,-2.270128011703491,-0.128434419631958,0.9251554012298584
1702059836436934700,9.7799345703125,-2.2075142860412598,-0.18600846827030182,0.845132052898407
1702059836453924400,9.79692431640625,-2.1322250366210938,-0.19303341209888458,0.7738135457038879
1702059836470908700,9.81390869140625,-2.0384573936462402,-0.1963931769132614,0.7177666425704956
1702059836487915000,9.8309150390625,-1.927890658378601,-0.2002110779285431,0.671493649482727
1702059836504911000,9.8479111328125,-1.8014415502548218,-0.17501288652420044,0.626747727394104
1702059836521896700,9.864896728515625,-1.6565138101577759,-0.16844609379768372,0.5836817622184753
1702059836538887000,9.881886962890626,-1.532508134841919,-0.16722436249256134,0.5372560024261475
1702059836555908600,9.89890869140625,-1.4136948585510254,-0.13500121235847473,0.4856378734111786
1702059836572877000,9.915876953125,-1.3081679344177246,-0.11285735666751862,0.4421137273311615
1702059836589877500,9.93287744140625,-1.2432634830474854,-0.12965615093708038,0.4358523488044739
1702059836606886000,9.949885986328125,-1.2279918193817139,-0.1667662113904953,0.4665483236312866
1702059836623869000,9.966868896484375,-1.2429580688476562,-0.12110403180122375,0.49037206172943115
1702059836640867300,9.983867431640626,-1.2528846263885498,-0.0806342139840126,0.49693888425827026
1702059836657857000,10.00085693359375,-1.2377656698226929,-0.06475171446800232,0.49144110083580017
1702059836674852600,10.0178525390625,-1.1946996450424194,-0.09987647086381912,0.493731826543808
1702059836691835100,10.034835205078124,-1.1148290634155273,-0.1267545372247696,0.5056437253952026
1702059836708838400,10.05183837890625,-1.0632109642028809,-0.1258382350206375,0.5213735103607178
1702059836725834000,10.068833984375,-1.0308351516723633,-0.12599095702171326,0.5375614166259766
1702059836742824000,10.085823974609376,-1.0018190145492554,-0.12767083942890167,0.566119372844696
1702059836759820500,10.102820556640625,-0.9879218339920044,-0.09514226019382477,0.5360342264175415
1702059836776816000,10.119816162109375,-0.964403510093689,-0.07406741380691528,0.47769662737846375
1702059836793806600,10.136806640625,-0.9469938278198242,-0.14049901068210602,0.4421137273311615
1702059836810803700,10.1538037109375,-0.9083566069602966,-0.11621711403131485,0.3773620128631592
1702059836827786500,10.170786376953124,-0.8629998564720154,-0.12202033400535583,0.31322115659713745
1702059836844774100,10.187774169921875,-0.825584352016449,-0.15729780495166779,0.27779096364974976
1702059836861783300,10.204783203125,-0.8119926452636719,-0.11255192011594772,0.2819143235683441
1702059836878779600,10.221779541015625,-0.7890852093696594,-0.12446379661560059,0.3248275816440582
1702059836895775000,10.23877490234375,-0.7507534027099609,-0.1508837193250656,0.3481931984424591
1702059836912759000,10.255759033203125,-0.685390830039978,-0.12186761945486069,0.3072652220726013
1702059836929751000,10.2727509765625,-0.6049093008041382,-0.07528914511203766,0.24113905429840088
1702059836946757000,10.289757080078125,-0.5436700582504272,-0.08246681094169617,0.2050980031490326
1702059836963747000,10.3067470703125,-0.5062545537948608,-0.08399397134780884,0.19578230381011963
1702059836980744400,10.323744384765625,-0.4915938079357147,-0.07880161702632904,0.17287486791610718
1702059836997738000,10.340738037109375,-0.4691445231437683,-0.048716504126787186,0.13668109476566315
1702059837014733600,10.357733642578125,-0.44104471802711487,-0.03176499158143997,0.11133018881082535
1702059837031723500,10.3747236328125,-0.41828998923301697,-0.046731192618608475,0.11423180252313614
1702059837048723000,10.391722900390626,-0.4306600093841553,-0.07498370856046677,0.12828169763088226
1702059837065713200,10.408713134765625,-0.43936482071876526,-0.07116580009460449,0.15134187042713165
1702059837082708200,10.425708251953125,-0.42730024456977844,-0.06673702597618103,0.1794416606426239
1702059837099711500,10.44271142578125,-0.39797869324684143,-0.036651913076639175,0.18555031716823578
1702059837116695600,10.459695556640625,-0.37491855025291443,-0.020005837082862854,0.1719585657119751
1702059837133690400,10.4766904296875,-0.3727805018424988,-0.04459316283464432,0.1560760736465454
1702059837150681900,10.493681884765625,-0.3663664162158966,-0.03039054572582245,0.14385876059532166
1702059837167678500,10.510678466796875,-0.32757648825645447,0.0012217304902151227,0.14309518039226532
1702059837184674600,10.527674560546876,-0.2817615866661072,-0.05375614017248154,0.1644754707813263
1702059837201664500,10.54466455078125,-0.22311852872371674,-0.10522153973579407,0.1592831164598465
1702059837218660900,10.561660888671875,-0.1609629988670349,-0.11133018881082535,0.12263119965791702
1702059837235657200,10.5786572265625,-0.13561208546161652,-0.07635815441608429,0.07223481684923172
1702059837252648200,10.595648193359375,-0.1511891484260559,-0.04963280260562897,0.039248090237379074
1702059837269656300,10.61265625,-0.1719585657119751,-0.052839845418930054,0.037110064178705215
1702059837286634500,10.629634521484375,-0.17638733983039856,-0.06902777403593063,0.0403171069920063
1702059837303630600,10.646630615234375,-0.14966198801994324,-0.05696318298578262,0.040622539818286896
1702059837320616700,10.66361669921875,-0.10415252298116684,-0.05864306539297104,0.044287730008363724
1702059837337619700,10.68061962890625,-0.07528914511203766,-0.047189339995384216,0.04657847434282303
1702059837354649300,10.6976494140625,-0.09315694868564606,-0.05054909735918045,0.047189339995384216
1702059837371614500,10.714614501953125,-0.13790282607078552,-0.061391957104206085,0.04382958263158798
1702059837388601000,10.73160107421875,-0.1621847152709961,-0.027030786499381065,0.03390302136540413
1702059837405587000,10.7485869140625,-0.16065755486488342,-0.018020525574684143,0.029474247246980667
1702059837422590000,10.76558984375,-0.14340060949325562,-0.032070424407720566,0.03191770985722542
1702059837439582200,10.782582275390626,-0.12400564551353455,-0.024129176512360573,0.02886338345706463
1702059837456577800,10.799577880859376,-0.12446379661560059,0.00733038317412138,0.04077525436878204
1702059837473570300,10.8165703125,-0.13408492505550385,0.01817324012517929,0.06704246252775192
1702059837490564600,10.833564697265626,-0.14126259088516235,0.017409659922122955,0.09560041129589081
1702059837507558700,10.85055859375,-0.166460782289505,-0.004123340360820293,0.10384709388017654
1702059837524555300,10.86755517578125,-0.1889100819826126,0.0032070425804704428,0.09437867999076843
1702059837541551600,10.884551513671875,-0.18020524084568024,0.03848451003432274,0.0809396430850029
1702059837558550800,10.90155078125,-0.15851953625679016,0.06230825558304787,0.06688974797725677
1702059837575532000,10.918531982421875,-0.14996741712093353,0.019547687843441963,0.06490442901849747
1702059837592528600,10.935528564453126,-0.16920967400074005,-0.030543262138962746,0.059406645596027374
1702059837609525000,10.95252490234375,-0.18509216606616974,-0.029474247246980667,0.04108068719506264
1702059837626520600,10.9695205078125,-0.18066339194774628,-0.01970040425658226,0.03787364438176155
1702059837643510500,10.986510498046876,-0.1589776873588562,-0.02367102913558483,0.05726861581206322
1702059837660508200,11.003508056640625,-0.13041973114013672,-0.04566217586398125,0.07299839705228806
1702059837677501400,11.02050146484375,-0.12492194026708603,-0.052228979766368866,0.0682641938328743
1702059837694493200,11.0374931640625,-0.12950342893600464,-0.04352414980530739,0.05253441259264946
1702059837711480000,11.05447998046875,-0.12034045159816742,-0.00931569468230009,0.04046982154250145
1702059837728483300,11.0714833984375,-0.11591167747974396,-0.020311269909143448,0.04505131021142006
1702059837745479200,11.088479248046875,-0.12079860270023346,-0.03405573591589928,0.05253441259264946
1702059837762477800,11.105477783203124,-0.12049316614866257,-0.02122756652534008,0.05696318298578262
1702059837779464200,11.122464111328124,-0.10995574295520782,0.00366519158706069,0.047800205647945404
1702059837796462800,11.139462890625,-0.09269879758358002,0.0429132841527462,0.02428189292550087
1702059837813444400,11.1564443359375,-0.0630718395113945,0.04001167416572571,0.005497787147760391
1702059837830449000,11.173448974609375,-0.02977968007326126,0.021532999351620674,-0.0022907445672899485
1702059837847442200,11.190442138671875,-0.010079276748001575,0.0006108652451075613,0.00015271631127689034
1702059837864434700,11.2074345703125,-0.005497787147760391,-0.013133603148162365,0.005039638374000788
1702059837881431000,11.22443115234375,-0.004886921960860491,-0.00733038317412138,0.008704829961061478
1702059837898424300,11.24142431640625,-0.003359758760780096,-0.00855211354792118,0.005192354787141085
1702059837915420700,11.258420654296875,0.01466076634824276,-0.01664607785642147,-0.005345070734620094
1702059837932410000,11.27541015625,0.039248090237379074,-0.014049900695681572,-0.026419922709465027
1702059837949404700,11.29240478515625,0.0503963828086853,0.005039638374000788,-0.03588833287358284
1702059837966404400,11.309404296875,0.04138612002134323,0.00809396430850029,-0.02932153269648552
1702059837983378200,11.326378173828125,0.018478672951459885,-0.007024950347840786,-0.013897184282541275
1702059838000387000,11.343386962890625,-0.006108652334660292,-0.027183502912521362,-0.0006108652451075613
1702059838017386800,11.36038671875,-0.020463986322283745,-0.03985895588994026,-0.003512475173920393
1702059838034374400,11.37737451171875,-0.027488935738801956,-0.019394971430301666,-0.010995574295520782
1702059838051369500,11.394369384765625,-0.018020525574684143,-0.005497787147760391,-0.012675453908741474
1702059838068368000,11.411367919921876,-0.00015271631127689034,-0.024587325751781464,-0.010537425056099892
1702059838085361200,11.428361083984376,0.00733038317412138,-0.039248090237379074,-0.010995574295520782
1702059838102344200,11.44534423828125,-0.007177666760981083,-0.03237585723400116,-0.014049900695681572
1702059838119347500,11.462347412109375,-0.03481931984424591,-0.03894266113638878,-0.01191187184303999
1702059838136343000,11.479343017578126,-0.05146539583802223,-0.04245513305068016,-0.010231993161141872
1702059838153331500,11.49633154296875,-0.06979135423898697,-0.039095375686883926,0.0027488935738801956
1702059838170330400,11.513330322265626,-0.07330382615327835,-0.0507018156349659,0.02519819140434265
1702059838187327000,11.530326904296874,-0.07467827945947647,-0.06673702597618103,0.03894266113638878
1702059838204308200,11.54730810546875,-0.06352998316287994,-0.05253441259264946,0.03405573591589928
1702059838221313300,11.564313232421876,-0.038179077208042145,-0.050243668258190155,0.02122756652534008
1702059838238309600,11.5813095703125,-0.006108652334660292,-0.0429132841527462,0.00366519158706069
1702059838255299000,11.598299072265625,-0.002138028386980295,-0.02779436856508255,-0.00809396430850029
1702059838272295400,11.61529541015625,-0.03436116874217987,-0.04566217586398125,-0.007024950347840786
1702059838289289200,11.632289306640626,-0.06704246252775192,-0.04398229718208313,0.001527163083665073
1702059838306283500,11.649283447265624,-0.05100724846124649,-0.02382374368607998,0.005345070734620094
1702059838323277800,11.66627783203125,-0.007635815534740686,0.011759156361222267,-0.009621127508580685
1702059838340271600,11.683271728515624,0.009773843921720982,-0.0003054326225537807,-0.01572977937757969
1702059838357265700,11.700265625,-0.016798794269561768,-0.026114489883184433,-0.005039638374000788
1702059838374260000,11.717260009765624,-0.06291911751031876,-0.03344487398862839,0.00733038317412138
1702059838391254300,11.734254150390624,-0.09224065393209457,-0.033597588539123535,0.01710422709584236
1702059838408247600,11.75124755859375,-0.0633772686123848,-0.024587325751781464,0.01664607785642147
1702059838425242000,11.7682421875,-0.00045814894838258624,0.001832595793530345,0.007635815534740686
1702059838442236400,11.785236328125,0.058184914290905,0.02886338345706463,-0.01572977937757969
1702059838459230000,11.80222998046875,0.06704246252775192,0.022907447069883347,-0.029626963660120964
1702059838476224500,11.819224609375,0.03084869496524334,-0.010842857882380486,-0.015882495790719986
1702059838493206500,11.83620654296875,-0.021991148591041565,-0.03573561832308769,0.009773843921720982
1702059838510214000,11.8532138671875,-0.07131851464509964,-0.03756821155548096,0.03298672288656235
1702059838527209700,11.870209716796875,-0.08567385375499725,-0.02367102913558483,0.036193765699863434
1702059838544197600,11.88719775390625,-0.0679587572813034,0.00931569468230009,0.02321287989616394
1702059838561194800,11.90419482421875,-0.01771509274840355,0.012980886735022068,0.009926560334861279
1702059838578188800,11.921188720703125,0.03191770985722542,-0.0012217304902151227,-0.007941247895359993
1702059838595183000,11.93818310546875,0.05146539583802223,0.001832595793530345,-0.026572637259960175
1702059838612177200,11.95517724609375,0.03130684420466423,-0.011759156361222267,-0.028405234217643738
1702059838629171200,11.972171142578125,-0.015882495790719986,-0.029932396486401558,-0.015118914656341076
1702059838646165200,11.989165283203125,-0.03756821155548096,-0.05757404863834381,-0.0007635815418325365
1702059838663159300,12.0061591796875,0.0025961773935705423,-0.052381694316864014,-0.0027488935738801956
1702059838680153300,12.0231533203125,0.08628471940755844,-0.04001167416572571,-0.020616702735424042
1702059838697147400,12.0401474609375,0.14935655891895294,-0.03940080851316452,-0.0503963828086853
1702059838714141700,12.0571416015625,0.14233160018920898,-0.031612277030944824,-0.06414084881544113
1702059838731135700,12.0741357421875,0.08170322328805923,-0.03084869496524334,-0.047800205647945404
1702059838748129500,12.091129638671875,0.03726277872920036,-0.030695978552103043,-0.013591751456260681
1702059838765123800,12.108123779296875,0.05910121276974678,-0.009010262787342072,-0.0010690141934901476
1702059838782118000,12.125117919921875,0.16081027686595917,0.005497787147760391,-0.028099801391363144
1702059838799112000,12.14211181640625,0.27718010544776917,0.018020525574684143,-0.09407325088977814
1702059838816106000,12.15910595703125,0.3597996234893799,0.03634648025035858,-0.13775011897087097
1702059838833100300,12.176100341796875,0.4056145250797272,0.03726277872920036,-0.14706580340862274
1702059838850096000,12.19309619140625,0.4944954216480255,0.012828170321881771,-0.1569923609495163
1702059838867086300,12.21008642578125,0.7180721163749695,0.05925392732024193,-0.18051068484783173
1702059838884072000,12.227072021484375,0.9949467778205872,0.1667662113904953,-0.22311852872371674
1702059838901078800,12.244078857421876,1.2218831777572632,0.20631973445415497,-0.23518311977386475
1702059838918067000,12.26106689453125,1.3527610301971436,0.1160643994808197,-0.2330450862646103
1702059838935064800,12.27806494140625,1.4246904850006104,0.05421429127454758,-0.2695443034172058
1702059838952059000,12.295058837890625,1.5102115869522095,0.07498370856046677,-0.3562871515750885
1702059838969053000,12.312052978515625,1.6381878852844238,0.12446379661560059,-0.47021353244781494
1702059838986047000,12.329046875,1.8550450801849365,0.26511552929878235,-0.543059229850769
1702059839003041000,12.346041015625,2.0166189670562744,0.346818745136261,-0.5763513445854187
1702059839020035000,12.36303515625,2.0757200717926025,0.3202461004257202,-0.6055201888084412
1702059839037029400,12.380029296875,2.121840476989746,0.41141775250434875,-0.6795876026153564
1702059839054023400,12.3970234375,2.2423336505889893,0.6333145499229431,-0.7586946487426758
1702059839071015000,12.414014892578125,2.4492642879486084,0.7043276429176331,-0.8240572214126587
1702059839088014000,12.43101416015625,2.6317601203918457,0.4360050559043884,-0.8768970370292664
1702059839105005800,12.448005859375,2.827389717102051,0.455705463886261,-0.9486737251281738
1702059839121999600,12.46499951171875,3.0298917293548584,0.6824892163276672,-0.997237503528595
1702059839138983200,12.481983154296875,3.227506637573242,0.79840087890625,-1.0384708642959595
1702059839155988000,12.498988037109376,3.3240232467651367,0.7512115240097046,-1.1383473873138428
1702059839172982000,12.51598193359375,3.3507485389709473,0.616973876953125,-1.2307407855987549
1702059839189975800,12.532975830078126,3.389538526535034,0.5291619896888733,-1.2701416015625
1702059839206970400,12.549970458984374,3.481015682220459,0.45524731278419495,-1.310916781425476
1702059839223964200,12.566964111328126,3.52805233001709,0.39248090982437134,-1.4442381858825684
1702059839240958700,12.583958740234374,3.5187366008758545,0.44364088773727417,-1.5888605117797852
1702059839257952300,12.6009521484375,3.4857497215270996,0.45555275678634644,-1.5688546895980835
1702059839274937300,12.617937255859376,3.41443133354187,0.3425426781177521,-1.4227051734924316
1702059839291939300,12.634939208984376,3.3538029193878174,0.17730364203453064,-1.3269519805908203
1702059839308934700,12.6519345703125,3.288898468017578,0.18081611394882202,-1.3634512424468994
1702059839325938000,12.66893798828125,3.1583261489868164,0.1765400618314743,-1.421025276184082
1702059839342926300,12.68592626953125,2.9999592304229736,0.18616119027137756,-1.4230105876922607
1702059839359913700,12.702913818359375,2.951090097427368,0.2096794992685318,-1.4143058061599731
1702059839376911000,12.7199111328125,2.975219249725342,0.13240504264831543,-1.377501130104065
1702059839393905200,12.7369052734375,2.970026731491089,0.14187344908714294,-1.3356568813323975
1702059839410899200,12.753899169921874,2.884352922439575,0.2269364446401596,-1.2754865884780884
1702059839427893200,12.770893310546874,2.738814353942871,0.27977627515792847,-1.1664471626281738
1702059839444887600,12.787887451171875,2.676811456680298,0.23365595936775208,-1.0403034687042236
1702059839461873700,12.804873779296875,2.699871778488159,0.3119994103908539,-0.9669997096061707
1702059839478874600,12.82187451171875,2.841745138168335,0.3781255781650543,-0.9676105380058289
1702059839495861200,12.838861328125,2.750115394592285,0.34437528252601624,-0.9647089242935181
1702059839512859600,12.855859619140626,2.6219863891601562,0.4095851480960846,-0.9610437750816345
1702059839529862100,12.872862060546876,2.448042392730713,0.2932153046131134,-0.8947648406028748
1702059839546852000,12.88985205078125,2.283108949661255,0.21365012228488922,-0.825584352016449
1702059839563846000,12.906845947265625,2.1789562702178955,0.2399173229932785,-0.8158105611801147
1702059839580840200,12.923840087890625,2.1033618450164795,0.19898934662342072,-0.7783950567245483
1702059839597834500,12.94083447265625,1.9828685522079468,0.1472185254096985,-0.7260133624076843
1702059839614828000,12.957828125,1.8324429988861084,0.12782354652881622,-0.6704245805740356
1702059839631822300,12.974822265625,1.6504051685333252,0.12797626852989197,-0.6178901791572571
1702059839648816600,12.991816650390625,1.4734070301055908,0.17211128771305084,-0.5621487498283386
1702059839665811500,13.0088115234375,1.3179417848587036,0.20952677726745605,-0.48609602451324463
1702059839682804700,13.0258046875,1.19607412815094,0.2119702398777008,-0.3781255781650543
1702059839699798800,13.042798828125,1.0764973163604736,0.2064724564552307,-0.3072652220726013
1702059839716792800,13.059792724609375,0.9520334601402283,0.19578230381011963,-0.24877487123012543
1702059839733787000,13.076786865234375,0.7823656797409058,0.1365283876657486,-0.1774563491344452
1702059839750781200,13.09378125,0.5936083197593689,0.12263119965791702,-0.11102475970983505
1702059839767775000,13.11077490234375,0.4697553813457489,0.11942415684461594,-0.039095375686883926
1702059839784759000,13.127759033203125,0.41462478041648865,0.1388191282749176,0
1702059839801761000,13.144760986328125,0.3900374472141266,0.14248432219028473,0.00366519158706069
1702059839818759700,13.161759765625,0.3666718602180481,0.15806138515472412,-0.001527163083665073
1702059839835751400,13.17875146484375,0.3217732608318329,0.13729196786880493,-0.002138028386980295
1702059839852745700,13.195745849609375,0.27611109614372253,0.14294247329235077,0.001832595793530345
1702059839869739800,13.21273974609375,0.24846944212913513,0.12186761945486069,0.015882495790719986
1702059839886733600,13.229733642578125,0.24404066801071167,0.13775011897087097,0.017562376335263252
1702059839903728000,13.24672802734375,0.25442537665367126,0.17333301901817322,0.004123340360820293
1702059839920722000,13.263721923828125,0.24205535650253296,0.15515977144241333,-0.003359758760780096
1702059839937705500,13.28070556640625,0.20387627184391022,0.1212567538022995,-0.0027488935738801956
1702059839954707500,13.29770751953125,0.16004669666290283,0.08949175477027893,-0.006719517521560192
1702059839971707000,13.314706787109374,0.14019356667995453,0.07712173461914062,-0.010079276748001575
1702059839988689700,13.331689697265626,0.15225815773010254,0.10186178237199783,-0.014508049935102463
1702059840005689900,13.34868994140625,0.17073683440685272,0.0832303911447525,-0.021380282938480377
1702059840022689000,13.36568896484375,0.17256943881511688,0.06734789162874222,-0.0429132841527462
1702059840039680500,13.382680419921876,0.1463022232055664,0.035582900047302246,-0.07452555745840073
1702059840056680000,13.399679931640625,0.10583240538835526,0.017867809161543846,-0.08460483700037003
1702059840073671000,13.4166708984375,0.07651086896657944,0.02229658141732216,-0.07177666574716568
1702059840090662700,13.43366259765625,0.0633772686123848,0.04505131021142006,-0.04001167416572571
1702059840107657000,13.450656982421876,0.06887505948543549,0.052381694316864014,-0.0064140851609408855
1702059840124651000,13.467651123046876,0.07208210229873657,0.03940080851316452,0.010995574295520782
1702059840141645000,13.48464501953125,0.07391469180583954,0.029168816283345222,0.0009162978967651725
1702059840158643000,13.501642822265625,0.07452555745840073,0.023060163483023643,-0.026572637259960175
1702059840175630600,13.518630615234375,0.07528914511203766,0.03344487398862839,-0.05375614017248154
1702059840192630000,13.535630126953125,0.06887505948543549,0.03649919852614403,-0.06185010448098183
1702059840209621500,13.55262158203125,0.06612616032361984,0.021380282938480377,-0.05619960278272629
1702059840226613000,13.569613037109375,0.06276640295982361,0.006719517521560192,-0.04459316283464432
1702059840243612200,13.586612060546875,0.07116580009460449,0.009621127508580685,-0.03955352306365967
1702059840260604000,13.60360400390625,0.0806342139840126,0.025656340643763542,-0.04856378585100174
1702059840277598000,13.620597900390624,0.07987063378095627,-0.0022907445672899485,-0.055894169956445694
1702059840294591700,13.637591796875,0.061391957104206085,-0.016340645030140877,-0.06261368840932846
1702059840311586000,13.6545859375,0.032681290060281754,-0.014508049935102463,-0.060475658625364304
1702059840328580000,13.671580078125,0.010231993161141872,-0.01664607785642147,-0.04489859566092491
1702059840345574100,13.68857421875,-0.0009162978967651725,-0.019394971430301666,-0.02122756652534008
1702059840362568400,13.705568359375,0.005803219974040985,-0.017562376335263252,-0.010690141469240189
1702059840379563800,13.722563720703125,0.022602014243602753,-0.01771509274840355,-0.01114829070866108
1702059840396553700,13.7395537109375,0.04459316283464432,-0.028405234217643738,-0.016493361443281174
1702059840413553200,13.75655322265625,0.03436116874217987,-0.02687807008624077,-0.02626720629632473
1702059840430527700,13.77352783203125,0.0006108652451075613,-0.0429132841527462,-0.02672535367310047
1702059840447520800,13.790520751953125,-0.04153883829712868,-0.05192354694008827,-0.024892758578062057
1702059840464535600,13.80753564453125,-0.06887505948543549,-0.0555887371301651,-0.02733621932566166
1702059840481523500,13.8245234375,-0.05971207842230797,-0.03344487398862839,-0.03390302136540413
1702059840498521000,13.84152099609375,-0.04199698567390442,-0.016035212203860283,-0.029474247246980667
1702059840515515100,13.85851513671875,-0.03848451003432274,-0.040622539818286896,-0.006719517521560192
1702059840532509200,13.87550927734375,-0.03329215571284294,-0.037110064178705215,0.010690141469240189
1702059840549503200,13.892503173828125,-0.02428189292550087,-0.029932396486401558,0.01618792861700058
1702059840566497300,13.909497314453125,-0.019547687843441963,-0.01863138936460018,0.016340645030140877
1702059840583491300,13.9264912109375,-0.020616702735424042,-0.02076941914856434,0.0024434609804302454
1702059840600488400,13.943488525390626,-0.00855211354792118,-0.011453723534941673,-0.014049900695681572
1702059840617477000,13.96047705078125,0.01191187184303999,-0.00931569468230009,-0.021991148591041565
1702059840634476000,13.97747607421875,0.015118914656341076,-0.009773843921720982,-0.01878410577774048
1702059840651467800,13.9944677734375,-0.005803219974040985,-0.016798794269561768,-0.011301007121801376
1702059840668461800,14.0114619140625,-0.05757404863834381,-0.02519819140434265,-0.0027488935738801956
1702059840685451800,14.02845166015625,-0.12095131725072861,-0.03329215571284294,0.004123340360820293
1702059840702450000,14.045449951171875,-0.17837265133857727,-0.04703662544488907,0.010079276748001575
1702059840719444200,14.0624443359375,-0.21502456068992615,-0.06368270516395569,0.00733038317412138
1702059840736438000,14.07943798828125,-0.23686300218105316,-0.05161811411380768,0.0013744467869400978
1702059840753432300,14.096432373046875,-0.25335636734962463,-0.018478672951459885,0.018936822190880775
1702059840770426600,14.113426513671875,-0.28557950258255005,0.013591751456260681,0.0685696229338646
1702059840787420400,14.13042041015625,-0.32879820466041565,0.019089538604021072,0.14065171778202057
1702059840804404000,14.147404052734375,-0.38408151268959045,-0.0354301854968071,0.2018909603357315
1702059840821408500,14.164408447265625,-0.4671591818332672,-0.06811147183179855,0.2116648107767105
1702059840838390300,14.181390380859375,-0.579405665397644,-0.08491026610136032,0.1927279829978943
1702059840855400200,14.198400146484374,-0.7006624341011047,-0.08307767659425735,0.18387043476104736
1702059840872391000,14.215390869140625,-0.8203920125961304,-0.03848451003432274,0.20143280923366547
1702059840889385000,14.232385009765625,-0.949895441532135,-0.03894266113638878,0.24678955972194672
1702059840906368800,14.24936865234375,-1.0942124128341675,-0.10293079167604446,0.3000875413417816
1702059840923373300,14.266373291015626,-1.2738068103790283,-0.1872301995754242,0.346818745136261
1702059840940367000,14.2833671875,-1.4645494222640991,-0.22647829353809357,0.39767327904701233
1702059840957361400,14.300361328125,-1.6349807977676392,-0.2513710558414459,0.4628831446170807
1702059840974355700,14.317355712890626,-1.7486017942428589,-0.25213462114334106,0.5348125100135803
1702059840991349500,14.334349609375,-1.8223637342453003,-0.2422080636024475,0.5931501388549805
1702059841008343800,14.35134375,-1.93293035030365,-0.2675589919090271,0.6229298114776611
1702059841025348400,14.368348388671874,-2.096642255783081,-0.30375275015830994,0.6195700764656067
1702059841042323700,14.38532373046875,-2.2631030082702637,-0.3162754774093628,0.631481945514679
1702059841059325700,14.40232568359375,-2.409558057785034,-0.2837468981742859,0.6907358765602112
1702059841076320000,14.419320068359376,-2.5082128047943115,-0.23075434565544128,0.7852672934532166
1702059841093299000,14.436298828125,-2.582127332687378,-0.25076019763946533,0.8747590184211731
1702059841110305500,14.453305419921875,-2.6482534408569336,-0.29917123913764954,0.8953757286071777
1702059841127304700,14.4703046875,-2.6876542568206787,-0.32788193225860596,0.8831584453582764
1702059841144296200,14.487296142578124,-2.7156014442443848,-0.32788193225860596,0.9127854108810425
1702059841161290500,14.50429052734375,-2.7519478797912598,-0.26969701051712036,1.007622241973877
1702059841178284800,14.521284912109374,-2.792264938354492,-0.1999056488275528,1.1406381130218506
1702059841195278600,14.538278564453124,-2.8350255489349365,-0.2041817009449005,1.238071084022522
1702059841212272600,14.555272705078124,-2.8493809700012207,-0.20631973445415497,1.2420417070388794
1702059841229264100,14.57226416015625,-2.8232665061950684,-0.23289237916469574,1.2082914113998413
1702059841246261000,14.589260986328124,-2.77531361579895,-0.26083946228027344,1.1867583990097046
1702059841263255000,14.606255126953124,-2.7348437309265137,-0.28619036078453064,1.1942415237426758
1702059841280249000,14.6232490234375,-2.6986498832702637,-0.2922990322113037,1.2111930847167969
1702059841297243100,14.6402431640625,-2.66031813621521,-0.2854267954826355,1.225395679473877
1702059841314228000,14.65722802734375,-2.6284003257751465,-0.328340083360672,1.2202032804489136
1702059841331228700,14.674228759765626,-2.609616279602051,-0.3805690407752991,1.1646145582199097
1702059841348227800,14.691227783203125,-2.565175771713257,-0.25274550914764404,1.0293079614639282
1702059841365219600,14.708219482421875,-2.4529294967651367,-0.11835514008998871,0.8851437568664551
1702059841382213600,14.725213623046875,-2.3489296436309814,-0.15653422474861145,0.774118959903717
1702059841399207700,14.742207763671875,-2.2285890579223633,-0.24159720540046692,0.6846272349357605
1702059841416201700,14.75920166015625,-2.1003074645996094,-0.27809640765190125,0.6145304441452026
1702059841433196000,14.776196044921875,-1.9758436679840088,-0.2594650089740753,0.59803706407547
1702059841450190000,14.793190185546875,-1.8553504943847656,-0.2246456891298294,0.6146831512451172
1702059841467184000,14.81018408203125,-1.7637206315994263,-0.192422553896904,0.6264423131942749
1702059841484178200,14.82717822265625,-1.706910252571106,-0.19318613409996033,0.6146831512451172
1702059841501169400,14.84416943359375,-1.6563611030578613,-0.14385876059532166,0.5780312418937683
1702059841518158300,14.861158447265625,-1.6212363243103027,-0.1408044397830963,0.5378668308258057
1702059841535171300,14.87817138671875,-1.581377387046814,-0.1495092660188675,0.49144110083580017
1702059841552152000,14.895152099609374,-1.543809175491333,-0.14584407210350037,0.4378376603126526
1702059841569151000,14.91215087890625,-1.468061923980713,-0.1267545372247696,0.4011857509613037
1702059841586143000,14.92914306640625,-1.3544409275054932,-0.09422596544027328,0.39584067463874817
1702059841603136800,14.94613671875,-1.2838860750198364,-0.09972374886274338,0.40133845806121826
1702059841620130800,14.963130859375,-1.2751811742782593,-0.09437867999076843,0.3926336467266083
1702059841637125000,14.980125,-1.287245750427246,-0.08857546001672745,0.36850446462631226
1702059841654119000,14.997118896484375,-1.3046554327011108,-0.09865473955869675,0.36392298340797424
1702059841671113200,15.01411328125,-1.30801522731781,-0.10751228034496307,0.37690386176109314
1702059841688107300,15.031107177734375,-1.2568552494049072,-0.09437867999076843,0.38347065448760986
1702059841705101300,15.048101318359375,-1.1589640378952026,-0.09529497474431992,0.37827831506729126
1702059841722092800,15.0650927734375,-1.035416603088379,-0.14034628868103027,0.3675881624221802
1702059841739092000,15.082092041015626,-0.9221010804176331,-0.156686931848526,0.35750889778137207
1702059841756072400,15.099072509765625,-0.8623890280723572,-0.10308351367712021,0.34147366881370544
1702059841773077800,15.116077880859375,-0.8431467413902283,-0.058184914290905,0.3222314119338989
1702059841790072000,15.133072021484375,-0.8530732989311218,-0.11041389405727386,0.3052799105644226
1702059841807065900,15.15006591796875,-0.8654433488845825,-0.17180584371089935,0.2863430976867676
1702059841824060000,15.167059814453125,-0.8394815921783447,-0.13225232064723969,0.280539870262146
1702059841841054200,15.18405419921875,-0.8130616545677185,-0.14996741712093353,0.2968805134296417
1702059841858033700,15.20103369140625,-0.7834346890449524,-0.1459967941045761,0.3188716471195221
1702059841875042000,15.2180419921875,-0.7429648637771606,-0.13011430203914642,0.32788193225860596
1702059841892022300,15.235022216796875,-0.7144069075584412,-0.08781187981367111,0.3223841190338135
1702059841909030400,15.252030517578126,-0.6814202070236206,-0.04153883829712868,0.3078760802745819
1702059841926021600,15.269021728515625,-0.6207917928695679,-0.04001167416572571,0.3026837408542633
1702059841943021300,15.286021240234374,-0.5852088928222656,-0.0910189226269722,0.3136793076992035
1702059841960012800,15.3030126953125,-0.5874996781349182,-0.11636982858181,0.30695977807044983
1702059841977006600,15.320006591796876,-0.6107125282287598,-0.08720101416110992,0.2756529450416565
1702059841993988000,15.336988037109375,-0.6325509548187256,-0.034666601568460464,0.25244006514549255
1702059842010993400,15.353993408203126,-0.6348416805267334,-0.023060163483023643,0.23716843128204346
1702059842027990500,15.370990478515624,-0.6235406994819641,-0.10170906037092209,0.2102903574705124
1702059842044972500,15.38797265625,-0.6131559610366821,-0.1866193264722824,0.15790866315364838
1702059842061977000,15.40497705078125,-0.5881105065345764,-0.1996002197265625,0.10231992602348328
1702059842078971100,15.42197119140625,-0.5586362481117249,-0.16920967400074005,0.1007927656173706
1702059842095965400,15.43896533203125,-0.5319108963012695,-0.16584990918636322,0.12538009881973267
1702059842112959500,15.45595947265625,-0.5271766781806946,-0.13408492505550385,0.13775011897087097
1702059842129953500,15.47295361328125,-0.5442809462547302,-0.0705549344420433,0.14538592100143433
1702059842146947600,15.489947509765624,-0.5395467281341553,-0.058795779943466187,0.17256943881511688
1702059842163941600,15.506941650390624,-0.5236642360687256,-0.05925392732024193,0.19089539349079132
1702059842180931800,15.523931884765625,-0.5085453391075134,-0.06368270516395569,0.18325957655906677
1702059842197933800,15.540933837890625,-0.470060795545578,-0.023060163483023643,0.1388191282749176
1702059842214924000,15.557924072265624,-0.4173736870288849,0.05742133408784866,0.0757472887635231
1702059842231918000,15.57491796875,-0.3825543522834778,0.07498370856046677,0.04902193695306778
1702059842248912100,15.591912109375,-0.3845396637916565,0.05009094998240471,0.06291911751031876
1702059842265897700,15.608897705078125,-0.39187005162239075,0.04092797264456749,0.09651670604944229
1702059842282900200,15.625900146484375,-0.3761402666568756,0.05451972410082817,0.12476922571659088
1702059842299892000,15.64289208984375,-0.3318525552749634,0.050854530185461044,0.1414152979850769
1702059842316891100,15.65989111328125,-0.2919935882091522,-0.02382374368607998,0.1615738570690155
1702059842333882600,15.676882568359375,-0.2698497176170349,0.01160643994808197,0.1518000066280365
1702059842350877000,15.693876953125,-0.2669481039047241,0.009468411095440388,0.14767667651176453
1702059842367870700,15.71087060546875,-0.2741257846355438,-0.01817324012517929,0.17516560852527618
1702059842384864800,15.72786474609375,-0.26969701051712036,-0.07192938029766083,0.2203696370124817
1702059842401859000,15.744859130859375,-0.2321287989616394,0.0019853119738399982,0.21563543379306793
1702059842418852900,15.761852783203125,-0.22586742043495178,-0.06291911751031876,0.2200642079114914
1702059842435847200,15.77884716796875,-0.21838432550430298,-0.09239336848258972,0.2347249686717987
1702059842452841200,15.79584130859375,-0.2073887437582016,-0.009621127508580685,0.19486601650714874
1702059842469835300,15.812835205078125,-0.21563543379306793,0.044287730008363724,0.14569136500358582
1702059842486829600,15.82982958984375,-0.22968533635139465,-0.003512475173920393,0.12492194026708603
1702059842503824000,15.846823974609375,-0.23105977475643158,-0.033139441162347794,0.11927144229412079
1702059842520817400,15.8638173828125,-0.2070833146572113,-0.03634648025035858,0.11774427443742752
1702059842537811700,15.880811767578125,-0.1771509200334549,0.004734205547720194,0.09010262042284012
1702059842554806000,15.897805908203125,-0.13271047174930573,0.0734565481543541,0.04993823543190956
1702059842571799800,15.9147998046875,-0.09605856239795685,0.08017606288194656,0.03375030308961868
1702059842588793900,15.9317939453125,-0.0884227454662323,0.050854530185461044,0.047800205647945404
1702059842605777700,15.948777587890625,-0.09178250283002853,0.009162978269159794,0.07437284290790558
1702059842622780000,15.96577978515625,-0.06750060617923737,0.016035212203860283,0.06918048858642578
1702059842639767800,15.982767822265625,-0.03130684420466423,0.04657847434282303,0.03848451003432274
1702059842656759600,15.999759521484375,-0.011759156361222267,0.0708603709936142,0.01618792861700058
1702059842673759700,16.016759765625,-0.011301007121801376,0.05513058975338936,0.01725694350898266
1702059842690758400,16.03375830078125,-0.02474004216492176,0.007788531947880983,0.028405234217643738
1702059842707753000,16.0507529296875,-0.03756821155548096,0.008399397134780884,0.02519819140434265
1702059842724746800,16.067746826171874,-0.04688390716910362,0.04581489413976669,0.017562376335263252
1702059842741740800,16.08474072265625,-0.04046982154250145,0.052228979766368866,0.02687807008624077
1702059842758733600,16.101733642578125,-0.03390302136540413,0.02779436856508255,0.05009094998240471
1702059842775730400,16.11873046875,-0.04001167416572571,-0.0007635815418325365,0.07116580009460449
1702059842792723200,16.13572314453125,-0.02871066704392433,-0.0009162978967651725,0.05803219974040985
1702059842809717000,16.152717041015624,-0.013133603148162365,0.025503624230623245,0.013744467869400978
1702059842826707000,16.16970703125,-0.009926560334861279,0.022449297830462456,-0.013744467869400978
1702059842843705300,16.186705322265624,-0.038026362657547,-0.01466076634824276,-0.009773843921720982
1702059842860699600,16.20369970703125,-0.09758572280406952,-0.029932396486401558,0.018936822190880775
1702059842877693400,16.220693359375,-0.12140946835279465,-0.007635815534740686,0.03680463135242462
1702059842894687500,16.2376875,-0.09147707372903824,0.01618792861700058,0.02871066704392433
1702059842911681500,16.254681640625,-0.03527746722102165,-0.007788531947880983,0.010079276748001575
1702059842928675800,16.27167578125,0.0009162978967651725,-0.03039054572582245,-0.010079276748001575
1702059842945670100,16.288670166015624,-0.013439035043120384,-0.013897184282541275,-0.019547687843441963
1702059842962664000,16.305663818359374,-0.05543602257966995,-0.008704829961061478,-0.00733038317412138
1702059842979658000,16.322657958984376,-0.09208793938159943,-0.0064140851609408855,0.008399397134780884
1702059842996652300,16.33965234375,-0.10247264802455902,-0.02229658141732216,0.028405234217643738
1702059843013646300,16.356646240234376,-0.05910121276974678,-0.04214970022439957,0.038179077208042145
1702059843030640400,16.373640380859374,-0.005345070734620094,-0.04352414980530739,0.02076941914856434
1702059843047631600,16.390631591796875,0.005803219974040985,-0.014966198243200779,-0.005803219974040985
1702059843064631300,16.40763134765625,-0.031612277030944824,-0.007788531947880983,0.0003054326225537807
1702059843081615000,16.424614990234375,-0.08445212244987488,-0.015271631069481373,0.024892758578062057
1702059843098614000,16.441614013671874,-0.09941831976175308,-0.01038470957428217,0.036041051149368286
1702059843115613400,16.458613525390625,-0.05757404863834381,-0.009162978269159794,0.02687807008624077
1702059843132602400,16.475602294921874,0.0006108652451075613,0.0006108652451075613,-0.008246680721640587
1702059843149601500,16.4926015625,0.031154127791523933,-0.0010690141934901476,-0.027030786499381065
1702059843166593000,16.509593017578126,0.022907447069883347,-0.004123340360820293,-0.005650503560900688
1702059843183587000,16.526587158203125,-0.03039054572582245,-0.03588833287358284,0.02886338345706463
1702059843200581000,16.5435810546875,-0.08231408894062042,-0.05009094998240471,0.03985895588994026
1702059843217575400,16.560575439453125,-0.10094548016786575,-0.04535674303770065,0.013133603148162365
1702059843234569500,16.577569580078126,-0.07238753139972687,-0.039248090237379074,-0.015882495790719986
1702059843251563500,16.5945634765625,-0.040164388716220856,-0.04489859566092491,-0.03191770985722542
1702059843268557600,16.6115576171875,-0.013591751456260681,-0.04963280260562897,-0.04092797264456749
1702059843285550600,16.628550537109376,-0.0010690141934901476,-0.029626963660120964,-0.04092797264456749
1702059843302547000,16.645546875,-0.010537425056099892,-0.031001411378383636,-0.03329215571284294
1702059843319540000,16.6625400390625,-0.03848451003432274,-0.052381694316864014,-0.025503624230623245
1702059843336534000,16.679533935546875,-0.06520986557006836,-0.05268712714314461,-0.014813481830060482
1702059843353528000,16.696528076171877,-0.078343465924263,-0.06963863968849182,0.00733038317412138
1702059843370522400,16.7135224609375,-0.06918048858642578,-0.06719517707824707,0.006719517521560192
1702059843387516200,16.73051611328125,-0.029168816283345222,-0.04138612002134323,-0.01771509274840355
1702059843404499700,16.747499755859376,0.01725694350898266,-0.0065668015740811825,-0.038637228310108185
1702059843421504300,16.764504150390625,0.041691552847623825,-0.0025961773935705423,-0.04795292019844055
1702059843438498600,16.78149853515625,0.040622539818286896,-0.029168816283345222,-0.03527746722102165
1702059843455492600,16.79849267578125,0.013133603148162365,-0.05849034711718559,-0.012828170321881771
1702059843472486700,16.815486572265623,0.0003054326225537807,-0.04642575979232788,0.0003054326225537807
1702059843489493500,16.832493408203124,0.02428189292550087,-0.003817907767370343,-0.003054326167330146
1702059843506475800,16.849475830078124,0.08277224004268646,0.00366519158706069,-0.01572977937757969
1702059843523468300,16.86646826171875,0.14309518039226532,0.014355333521962166,-0.02382374368607998
1702059843540464400,16.88346435546875,0.15622878074645996,0.02275473065674305,-0.013133603148162365
1702059843557455000,16.900455078125,0.13530665636062622,0.0455094613134861,0.0010690141934901476
1702059843574453200,16.917453369140624,0.13255776464939117,0.06459899991750717,0.003054326167330146
1702059843591441200,16.934441162109376,0.18066339194774628,0.055741455405950546,-0.005650503560900688
1702059843608439600,16.951439453125,0.2652682363986969,0.04963280260562897,-0.02626720629632473
1702059843625433600,16.96843359375,0.3631593883037567,0.07757988572120667,-0.05390885844826698
1702059843642427600,16.985427734375,0.46471574902534485,0.1111774742603302,-0.08659014850854874
1702059843659411200,17.0024111328125,0.5539020895957947,0.1359175145626068,-0.1189660057425499
1702059843676415700,17.019415771484375,0.6369797587394714,0.1866193264722824,-0.15500704944133759
1702059843693409800,17.036409912109374,0.7434229850769043,0.21410827338695526,-0.18066339194774628
1702059843710412300,17.053412353515625,0.8445212244987488,0.23900102078914642,-0.20357084274291992
1702059843727396400,17.070396240234373,0.9369145631790161,0.2515237629413605,-0.23716843128204346
1702059843744394000,17.08739404296875,1.0757336616516113,0.2733621895313263,-0.2606867551803589
1702059843761386200,17.10438623046875,1.274570345878601,0.25564709305763245,-0.2701551616191864
1702059843778380300,17.12138037109375,1.459815263748169,0.25961771607398987,-0.31123584508895874
1702059843795374300,17.138374267578126,1.6221526861190796,0.3449861407279968,-0.394008070230484
1702059843812368400,17.155368408203124,1.741729497909546,0.4476115107536316,-0.49724429845809937
1702059843829362700,17.17236279296875,1.9028452634811401,0.5688682794570923,-0.5723807215690613
1702059843846356700,17.189356689453124,2.0722076892852783,0.5659666657447815,-0.5893322229385376
1702059843863350800,17.206350830078126,2.2406537532806396,0.5326744914054871,-0.6229298114776611
1702059843880342300,17.22334228515625,2.4084889888763428,0.5201517343521118,-0.7113525867462158
1702059843897341400,17.240341552734375,2.556471109390259,0.6050620079040527,-0.8521569967269897
1702059843914333000,17.2573330078125,2.685363531112671,0.575893223285675,-0.9531024694442749
1702059843931317000,17.27431689453125,2.7867672443389893,0.6013968586921692,-1.0465649366378784
1702059843948317000,17.29131689453125,2.883894920349121,0.7907650470733643,-1.0968085527420044
1702059843965319400,17.3083193359375,2.9413161277770996,0.884227454662323,-1.1331549882888794
1702059843982309400,17.325309326171876,2.9607112407684326,0.8834638595581055,-1.241125464439392
1702059843999303400,17.342303466796874,3.0639474391937256,0.7284567952156067,-1.39017653465271
1702059844016297500,17.35929736328125,3.134654998779297,0.504574716091156,-1.5022703409194946
1702059844033291800,17.376291748046874,3.1899383068084717,0.4512766897678375,-1.521359920501709
1702059844050285800,17.393285888671876,3.286454916000366,0.6368269920349121,-1.5121968984603882
1702059844067280000,17.41027978515625,3.3910655975341797,0.7382306456565857,-1.5566374063491821
1702059844084274000,17.42727392578125,3.4487924575805664,0.5684100985527039,-1.6032158136367798
1702059844101265400,17.444265380859374,3.4599406719207764,0.4639521539211273,-1.6076445579528809
1702059844118264600,17.4612646484375,3.4545955657958984,0.47189339995384216,-1.5880969762802124
1702059844135265500,17.478265625,3.4321463108062744,0.43539419770240784,-1.5729780197143555
1702059844152239900,17.495239990234374,3.3771684169769287,0.36422839760780334,-1.650099754333496
1702059844169243600,17.51224365234375,3.3115005493164062,0.3019201457500458,-1.790598750114441
1702059844186239500,17.529239501953125,3.277902841567993,0.20463985204696655,-1.863139033317566
1702059844203232500,17.546232421875,3.2751541137695312,0.23548854887485504,-1.8460347652435303
1702059844220226800,17.563226806640625,3.229339122772217,0.35521814227104187,-1.7414240837097168
1702059844237220900,17.580220947265627,3.1421380043029785,0.33536502718925476,-1.6007723808288574
1702059844254212000,17.597212158203124,3.0246992111206055,0.11453723162412643,-1.4143058061599731
1702059844271211500,17.61421142578125,2.91733980178833,0.09483683109283447,-1.3098478317260742
1702059844288203300,17.631203369140625,2.8376216888427734,0.10064005106687546,-1.236696720123291
1702059844305197000,17.648197021484375,2.8148670196533203,0.1872301995754242,-1.1808024644851685
1702059844322191000,17.665191162109377,2.7377452850341797,0.1586722433567047,-1.2194397449493408
1702059844339185400,17.682185302734375,2.5590672492980957,0.1264491081237793,-1.2510520219802856
1702059844356179500,17.699179443359377,2.314415693283081,0.06750060617923737,-1.1652255058288574
1702059844373174500,17.716174560546875,2.0842721462249756,0.0630718395113945,-0.9921978712081909
1702059844390167600,17.73316748046875,1.8733710050582886,0.07452555745840073,-0.8471173644065857
1702059844407161600,17.75016162109375,1.7597500085830688,0.08811730891466141,-0.8202393054962158
1702059844424156000,17.767156005859373,1.6945401430130005,-0.010231993161141872,-0.8600982427597046
1702059844441150000,17.78414990234375,1.5934419631958008,-0.08414668589830399,-0.8442157506942749
1702059844458144000,17.80114404296875,1.4388930797576904,-0.08475755155086517,-0.8022187948226929
1702059844475138000,17.818137939453123,1.2541064023971558,-0.0013744467869400978,-0.7098253965377808
1702059844492132400,17.83513232421875,1.0352638959884644,0.03741549700498581,-0.5965099334716797
1702059844509108000,17.85210791015625,0.8462010622024536,0.05467243865132332,-0.4918992519378662
1702059844526120400,17.869120361328125,0.737772524356842,-0.00015271631127689034,-0.4156937897205353
1702059844543114200,17.8861142578125,0.6502660512924194,-0.01817324012517929,-0.33307427167892456
1702059844560108800,17.90310888671875,0.5546656250953674,-0.038179077208042145,-0.21303924918174744
1702059844577102600,17.9201025390625,0.46303585171699524,0.004886921960860491,-0.10033461451530457
1702059844594086100,17.937086181640623,0.3724750876426697,0.03573561832308769,-0.01710422709584236
1702059844611090700,17.954090576171875,0.31322115659713745,0.07452555745840073,0.013744467869400978
1702059844628085000,17.9710849609375,0.2767219543457031,0.09468411654233932,0.006261368747800589
1702059844645079300,17.988079345703124,0.26771169900894165,0.08368854224681854,-0.012217304669320583
1702059844662073000,18.005072998046874,0.2646573781967163,0.09040805697441101,-0.019547687843441963
1702059844679067100,18.022067138671876,0.23945917189121246,0.09957103431224823,0.0013744467869400978
1702059844696061700,18.039061767578126,0.2015855312347412,0.0988074541091919,0.03084869496524334
1702059844713055200,18.05605517578125,0.18738290667533875,0.10323622822761536,0.031154127791523933
1702059844730049500,18.073049560546874,0.18799377977848053,0.10445795953273773,0.0032070425804704428
1702059844747043600,18.090043701171876,0.19822576642036438,0.09392052888870239,-0.03573561832308769
1702059844764037600,18.10703759765625,0.19394971430301666,0.0708603709936142,-0.06536258012056351
1702059844781031700,18.12403173828125,0.164170041680336,0.06536258012056351,-0.07635815441608429
1702059844798026000,18.14102587890625,0.12492194026708603,0.036651913076639175,-0.05619960278272629
1702059844815019800,18.158019775390624,0.09758572280406952,0.029016099870204926,-0.026419922709465027
1702059844832014000,18.17501416015625,0.07528914511203766,0.04046982154250145,0.005497787147760391
1702059844848995300,18.191995361328125,0.04795292019844055,0.04856378585100174,0.03497203439474106
1702059844865999400,18.208999267578125,0.021532999351620674,0.03649919852614403,0.05100724846124649
1702059844882999000,18.2259990234375,-0.004734205547720194,0.022449297830462456,0.06185010448098183
1702059844899990500,18.242990478515626,-0.02275473065674305,0.00809396430850029,0.07880161702632904
1702059844916980700,18.259980712890624,-0.02977968007326126,0.03741549700498581,0.0858265683054924
1702059844933983500,18.2769833984375,-0.03451388701796532,0.04886921867728233,0.0884227454662323
1702059844950971400,18.293971435546876,-0.04703662544488907,0.04230241850018501,0.08506298810243607
1702059844967966700,18.310966796875,-0.05772676691412926,0.03222314268350601,0.076052725315094
1702059844984960800,18.327960693359376,-0.06352998316287994,0.01542434748262167,0.06627888232469559
1702059845001957000,18.34495703125,-0.058795779943466187,-0.01572977937757969,0.06750060617923737
1702059845018946800,18.36194677734375,-0.044287730008363724,-0.003512475173920393,0.06612616032361984
1702059845035943200,18.378943115234375,-0.03405573591589928,0.020922135561704636,0.04657847434282303
1702059845052926700,18.3959267578125,-0.03375030308961868,0.013286318629980087,0.01863138936460018
1702059845069928700,18.4129287109375,-0.03084869496524334,0.0022907445672899485,-0.003512475173920393
1702059845086928000,18.429927978515625,-0.01817324012517929,-0.01114829070866108,-0.016340645030140877
1702059845103919400,18.44691943359375,-0.0039706239476799965,-0.029626963660120964,-0.024587325751781464
1702059845120913400,18.463913330078125,0.004886921960860491,-0.01572977937757969,-0.030543262138962746
1702059845137907700,18.48090771484375,-0.003817907767370343,-0.02015855349600315,-0.025656340643763542
1702059845154901800,18.49790185546875,-0.027947084978222847,-0.03222314268350601,-0.027183502912521362
1702059845171895800,18.514895751953127,-0.03497203439474106,-0.01817324012517929,-0.04108068719506264
1702059845188889900,18.531889892578125,-0.03573561832308769,-0.027488935738801956,-0.043676864355802536
1702059845205868500,18.54886865234375,-0.03497203439474106,-0.04764748737215996,-0.02474004216492176
1702059845222878200,18.565878173828125,-0.03741549700498581,-0.04001167416572571,0.00427605677396059
1702059845239872300,18.582872314453127,-0.04703662544488907,-0.033597588539123535,0.030237829312682152
1702059845256866300,18.5998662109375,-0.06169738993048668,-0.001832595793530345,0.0328340083360672
1702059845273860400,18.6168603515625,-0.08261952549219131,0.01725694350898266,0.029626963660120964
1702059845290854400,18.6338544921875,-0.10567969083786011,-0.005803219974040985,0.03680463135242462
1702059845307858200,18.650858154296873,-0.11942415684461594,-0.02076941914856434,0.04108068719506264
1702059845324840200,18.667840087890625,-0.12522737681865692,-0.040164388716220856,0.05009094998240471
1702059845341839400,18.68483935546875,-0.13775011897087097,-0.04153883829712868,0.05772676691412926
1702059845358830800,18.701830810546873,-0.16722436249256134,-0.031612277030944824,0.058184914290905
1702059845375825000,18.718824951171875,-0.1966986060142517,-0.038637228310108185,0.054367005825042725
1702059845392819000,18.73581884765625,-0.22892175614833832,-0.054825156927108765,0.05497787147760391
1702059845409813200,18.752813232421875,-0.30344730615615845,-0.08261952549219131,0.06062837690114975
1702059845426807300,18.769807373046874,-0.4314235746860504,-0.11270463466644287,0.06948592513799667
1702059845443801300,18.78680126953125,-0.5438227653503418,-0.1495092660188675,0.0887281745672226
1702059845460795400,18.80379541015625,-0.6012440919876099,-0.1846340149641037,0.10430523753166199
1702059845477789700,18.820789794921875,-0.6317873597145081,-0.1690569519996643,0.10491610318422318
1702059845494781000,18.837781005859377,-0.6902777552604675,-0.1647808998823166,0.12339477986097336
1702059845511780400,18.8547802734375,-0.7974845767021179,-0.13545936346054077,0.18784105777740479
1702059845528761300,18.87176123046875,-0.9379835724830627,-0.14095716178417206,0.27030786871910095
1702059845545763800,18.888763916015623,-1.088409185409546,-0.1814269721508026,0.3433062732219696
1702059845562762000,18.905761962890626,-1.2153164148330688,-0.2041817009449005,0.3758348524570465
1702059845579754000,18.92275390625,-1.3158037662506104,-0.1667662113904953,0.38698312640190125
1702059845596748000,18.939748046875,-1.4046846628189087,-0.0933096632361412,0.4193589985370636
1702059845613742600,18.95674267578125,-1.499216079711914,-0.0734565481543541,0.503047525882721
1702059845630736600,18.973736572265626,-1.6200146675109863,-0.08704829961061478,0.5929974317550659
1702059845647730400,18.99073046875,-1.7605136632919312,-0.08674286305904388,0.6444628238677979
1702059845664724700,19.007724853515626,-1.9132299423217773,-0.10323622822761536,0.6653849482536316
1702059845681718500,19.024718505859376,-2.063350200653076,-0.11041389405727386,0.6911939978599548
1702059845698726400,19.041726318359373,-2.1991147994995117,-0.09300423413515091,0.749531626701355
1702059845715705900,19.058705810546876,-2.3273966312408447,-0.08735372871160507,0.8223773241043091
1702059845732702000,19.075701904296874,-2.44559907913208,-0.11850785464048386,0.8741481900215149
1702059845749695000,19.092695068359376,-2.540283203125,-0.11407908797264099,0.8848382830619812
1702059845766689000,19.10968896484375,-2.6111435890197754,-0.11010845750570297,0.9224064946174622
1702059845783683000,19.12668310546875,-2.6537513732910156,-0.09560041129589081,1.0186177492141724
1702059845800677400,19.143677490234374,-2.6868908405303955,-0.11988230794668198,1.1484266519546509
1702059845817668900,19.1606689453125,-2.7322475910186768,-0.1618792861700058,1.2287554740905762
1702059845834668000,19.17766796875,-2.7821857929229736,-0.21090123057365417,1.2229522466659546
1702059845851661600,19.19466162109375,-2.814409017562866,-0.18738290667533875,1.204779028892517
1702059845868652500,19.211652587890626,-2.8600711822509766,-0.1644754707813263,1.2429580688476562
1702059845885647600,19.228647705078124,-2.908482074737549,-0.1794416606426239,1.3416128158569336
1702059845902642200,19.24564208984375,-2.9576568603515625,-0.2444988191127777,1.4482088088989258
1702059845919625500,19.26262548828125,-3.0224084854125977,-0.2883284091949463,1.4998269081115723
1702059845936630000,19.279630126953126,-3.068681478500366,-0.2269364446401596,1.516014814376831
1702059845953624000,19.2966240234375,-3.0615038871765137,-0.20754146575927734,1.538464069366455
1702059845970626300,19.313626220703124,-3.000875473022461,-0.2565633952617645,1.5462526082992554
1702059845987609600,19.330609619140624,-2.953686237335205,-0.31581732630729675,1.5152512788772583
1702059846004609300,19.347609375,-2.8932104110717773,-0.3170390725135803,1.4593570232391357
1702059846021590000,19.364590087890626,-2.786614418029785,-0.2799290120601654,1.3975069522857666
1702059846038594600,19.381594482421875,-2.654515027999878,-0.2848159074783325,1.320385217666626
1702059846055584000,19.398583984375,-2.4824037551879883,-0.3101668357849121,1.2105822563171387
1702059846072582700,19.415582763671875,-2.3180809020996094,-0.40225476026535034,1.0795515775680542
1702059846089577000,19.432576904296877,-2.11588454246521,-0.379652738571167,0.944855809211731
1702059846106569000,19.44956884765625,-1.9086484909057617,-0.2724458873271942,0.8446739315986633
1702059846123567600,19.466567626953125,-1.7148514986038208,-0.24266621470451355,0.7388415336608887
1702059846140563500,19.4835634765625,-1.5668693780899048,-0.2773328125476837,0.6284276247024536
1702059846157555700,19.5005556640625,-1.4634803533554077,-0.168751522898674,0.542142927646637
1702059846174547500,19.51754736328125,-1.4078916311264038,-0.15592335164546967,0.49464812874794006
1702059846191554000,19.534553955078124,-1.3449726104736328,-0.19715675711631775,0.4512766897678375
1702059846208533200,19.551533203125,-1.2870930433273315,-0.2762638032436371,0.3911064863204956
1702059846225532200,19.5685322265625,-1.2252429723739624,-0.26893341541290283,0.29336804151535034
1702059846242523600,19.585523681640623,-1.171334147453308,-0.23808473348617554,0.2002110779285431
1702059846259518000,19.60251806640625,-1.102611780166626,-0.16554448008537292,0.1310305893421173
1702059846276512000,19.619511962890623,-1.0283915996551514,-0.13301590085029602,0.10735956579446793
1702059846293506000,19.636506103515625,-1.0028879642486572,-0.17287486791610718,0.11774427443742752
1702059846310500000,19.6535,-0.9873109459877014,-0.18600846827030182,0.12965615093708038
1702059846327494400,19.670494384765625,-0.9411906003952026,-0.1699732542037964,0.1492038369178772
1702059846344488400,19.687488525390624,-0.9010262489318848,-0.19807305932044983,0.19043724238872528
1702059846361482500,19.704482421875,-0.892779529094696,-0.21303924918174744,0.22861631214618683
1702059846378476000,19.72147607421875,-0.8987354636192322,-0.18249599635601044,0.24159720540046692
1702059846395471000,19.73847119140625,-0.9045386910438538,-0.1492038369178772,0.2454151064157486
1702059846412473600,19.7554736328125,-0.9045386910438538,-0.1420261710882187,0.2664899528026581
1702059846429458700,19.772458740234374,-0.8860600590705872,-0.13958270847797394,0.299018532037735
1702059846446452700,19.78945263671875,-0.850171685218811,-0.15012013912200928,0.34437528252601624
1702059846463446800,19.80644677734375,-0.8104654550552368,-0.10048733651638031,0.37262779474258423
1702059846480441000,19.823441162109376,-0.7835873961448669,-0.05375614017248154,0.35781431198120117
1702059846497432600,19.8404326171875,-0.7409795522689819,-0.04596760869026184,0.30741792917251587
1702059846514431700,19.857431640625,-0.6635523438453674,-0.01725694350898266,0.23686300218105316
1702059846531423500,19.874423583984374,-0.5710062980651855,0.013286318629980087,0.18188512325286865
1702059846548417300,19.891417236328124,-0.5071708559989929,0.016798794269561768,0.16294831037521362
1702059846565411600,19.90841162109375,-0.5042692422866821,0.010079276748001575,0.168751522898674
1702059846582406000,19.925406005859376,-0.5309945940971375,0.024587325751781464,0.2054034322500229
1702059846599399700,19.942399658203126,-0.551305890083313,0.035124752670526505,0.2542726695537567
1702059846616393700,19.959393798828124,-0.5180137157440186,0.05146539583802223,0.25076019763946533
1702059846633374700,19.976374755859375,-0.42928555607795715,-0.0029016099870204926,0.20876319706439972
1702059846650379500,19.993379638671875,-0.31184670329093933,-0.03649919852614403,0.16142113506793976
1702059846667378700,20.010378662109375,-0.23411411046981812,-0.032070424407720566,0.13072516024112701
1702059846684370000,20.027369873046876,-0.2611449062824249,0.01572977937757969,0.1241583600640297
1702059846701361400,20.044361328125,-0.3381139039993286,0.06108652427792549,0.14767667651176453
1702059846718360800,20.06136083984375,-0.4127921760082245,0.0734565481543541,0.1889100819826126
1702059846735352600,20.0783525390625,-0.4665483236312866,0.02474004216492176,0.251218318939209
1702059846752346600,20.0953466796875,-0.4841107130050659,0.014813481830060482,0.2612976133823395
1702059846769340700,20.112340576171874,-0.47219884395599365,0.010231993161141872,0.24648413062095642
1702059846786335000,20.1293349609375,-0.45921793580055237,0.024434609338641167,0.23976461589336395
1702059846803328800,20.146328857421874,-0.44455718994140625,0.06734789162874222,0.2454151064157486
1702059846820320000,20.163320068359376,-0.42241331934928894,0.06780604273080826,0.2528982162475586
1702059846837319700,20.180319580078127,-0.4346306324005127,0.04459316283464432,0.25824329257011414
1702059846854308900,20.197308837890624,-0.456163614988327,0.010079276748001575,0.2629774808883667
1702059846871304000,20.214303955078126,-0.46441030502319336,-0.054367005825042725,0.28069257736206055
1702059846888297700,20.231297607421876,-0.4482223689556122,-0.08597928285598755,0.2776382565498352
1702059846905296100,20.248296142578123,-0.39416080713272095,-0.07635815441608429,0.25106561183929443
1702059846922287600,20.26528759765625,-0.31261029839515686,-0.02076941914856434,0.2002110779285431
1702059846939281700,20.28228173828125,-0.24694228172302246,0.002138028386980295,0.14477506279945374
1702059846956265000,20.299264892578126,-0.22098049521446228,-0.03130684420466423,0.10644327104091644
1702059846973269800,20.316269775390627,-0.2255619913339615,-0.07147123664617538,0.09560041129589081
1702059846990263800,20.333263916015625,-0.2249511331319809,-0.0630718395113945,0.08933904021978378
1702059847007258000,20.350258056640627,-0.21135938167572021,-0.04764748737215996,0.07422012835741043
1702059847024252200,20.367252197265625,-0.19868391752243042,-0.04581489413976669,0.04963280260562897
1702059847041243600,20.38424365234375,-0.18509216606616974,-0.05146539583802223,0.03649919852614403
1702059847058242800,20.401242919921874,-0.1745547503232956,-0.058795779943466187,0.04444044828414917
1702059847075234300,20.418234375,-0.1469130963087082,-0.05345070734620094,0.050243668258190155
1702059847092228400,20.435228271484377,-0.12751811742782593,-0.04596760869026184,0.035124752670526505
1702059847109215200,20.45221533203125,-0.10048733651638031,0.00015271631127689034,0.00931569468230009
1702059847126216700,20.469216796875,-0.058795779943466187,0.04688390716910362,-0.010537425056099892
1702059847143208200,20.486208251953126,-0.021380282938480377,0.06780604273080826,-0.003054326167330146
1702059847160207000,20.50320703125,0,0.02932153269648552,0.022143865004181862
1702059847177198800,20.52019873046875,0.0012217304902151227,0.010537425056099892,0.03695734590291977
1702059847194193200,20.537193115234373,-0.024129176512360573,0.02687807008624077,0.019394971430301666
1702059847211187200,20.554187255859375,-0.046273041516542435,0.024892758578062057,-0.003359758760780096
1702059847228181000,20.571180908203125,-0.040622539818286896,0.026572637259960175,-0.021838432177901268
1702059847245162200,20.588162353515624,-0.01725694350898266,0.02886338345706463,-0.022143865004181862
1702059847262172000,20.605171875,0.010537425056099892,0.022143865004181862,-0.005803219974040985
1702059847279160600,20.62216064453125,0.004886921960860491,-0.001832595793530345,0.005192354787141085
1702059847296162800,20.639162841796875,-0.030695978552103043,-0.020922135561704636,0.00733038317412138
1702059847313149200,20.656149169921875,-0.06291911751031876,-0.022907447069883347,-0.0009162978967651725
1702059847330145800,20.673145751953125,-0.06444628536701202,-0.024587325751781464,-0.014508049935102463
1702059847347140000,20.69014013671875,-0.05619960278272629,-0.047800205647945404,-0.023518312722444534
1702059847364134000,20.7071337890625,-0.03573561832308769,-0.05146539583802223,-0.01924225501716137
1702059847381128000,20.7241279296875,-0.02535090781748295,-0.05711590126156807,0.005497787147760391
1702059847398122200,20.741122314453126,-0.020463986322283745,-0.061391957104206085,0.0354301854968071
1702059847415116300,20.7581162109375,-0.03084869496524334,-0.038637228310108185,0.04352414980530739
1702059847432100000,20.77510009765625,-0.036651913076639175,-0.006261368747800589,0.02932153269648552
