time,seconds_elapsed,z,y,x
1702059694638759700,0.052759765625,-0.2664899528026581,-2.0786216259002686,2.3189971446990967
1702059694655458000,0.0694580078125,-0.16111570596694946,-2.2676844596862793,1.6653714179992676
1702059694672452400,0.086452392578125,-0.32879820466041565,-2.8959593772888184,1.404073715209961
1702059694689428500,0.103428466796875,-0.6192646622657776,-3.313180446624756,1.7783814668655396
1702059694706438000,0.12043798828125,-0.9410378932952881,-3.540422201156616,2.551889657974243
1702059694723423000,0.137423095703125,-1.1568260192871094,-3.389233112335205,2.778062343597412
1702059694740412200,0.154412109375,-1.514793038368225,-2.596788167953491,2.4824037551879883
1702059694757419300,0.171419189453125,-1.462716817855835,-1.836719036102295,2.197587728500366
1702059694774418000,0.18841796875,-0.963792622089386,-1.7985399961471558,1.653917670249939
1702059694791407600,0.20540771484375,-0.493731826543808,-1.702786922454834,0.9805914163589478
1702059694808404500,0.222404541015625,-0.5038111209869385,-2.014939069747925,0.7351763248443604
1702059694825395700,0.239395751953125,-0.6925684809684753,-1.6879733800888062,0.5535966157913208
1702059694842393300,0.256393310546875,-0.7000515460968018,-0.7458664774894714,0.42562034726142883
1702059694859383300,0.27338330078125,-0.6774495840072632,-0.2921462953090668,0.33658674359321594
1702059694876379600,0.290379638671875,-0.7060074806213379,-0.5665774941444397,0.06673702597618103
1702059694893375200,0.307375244140625,-0.7157813310623169,-1.1258246898651123,-0.6630942225456238
1702059694910365400,0.324365478515625,-0.8756753206253052,-1.7259997129440308,-0.3738495409488678
1702059694927362600,0.341362548828125,-0.9960157871246338,-0.8610145449638367,-0.09636399149894714
1702059694944356400,0.3583564453125,-0.9416487812995911,-0.08888089656829834,0.07742717117071152
1702059694961347800,0.375347900390625,-0.7971791625022888,-0.3332269787788391,-0.15347988903522491
1702059694978344700,0.3923447265625,-0.7745771408081055,-0.6172793507575989,-0.460897833108902
1702059694995338200,0.409338134765625,-0.8573493957519531,-0.5057964324951172,-0.42928555607795715
1702059695012331300,0.426331298828125,-0.6931793093681335,-0.2779437005519867,-0.32299500703811646
1702059695029319400,0.4433193359375,-0.5772676467895508,0.07162395119667053,-0.09498954564332962
1702059695046320000,0.460320068359375,-0.5787948369979858,0.19975294172763824,0.07254024595022202
1702059695063316000,0.47731591796875,-0.5955936312675476,0.16600263118743896,0.10293079167604446
1702059695080299300,0.49429931640625,-0.5728389024734497,0.027947084978222847,0.054367005825042725
1702059695097302000,0.511302001953125,-0.6218608021736145,-0.6904304623603821,0.08704829961061478
1702059695114296800,0.528296875,-0.7076873779296875,-0.6879869699478149,0.025045474991202354
1702059695131288000,0.5452880859375,-0.7602217793464661,-0.4983133375644684,-0.010995574295520782
1702059695148283600,0.56228369140625,-0.7472409009933472,-0.3854559659957886,-0.02321287989616394
1702059695165280800,0.57928076171875,-0.6598871946334839,-0.19074267148971558,-0.11972958594560623
1702059695182273500,0.5962734375,-0.5337435007095337,-0.07177666574716568,-0.3182607889175415
1702059695199263200,0.61326318359375,-0.38988474011421204,-0.08170322328805923,-0.48548516631126404
1702059695216260000,0.630260009765625,-0.18509216606616974,-0.007024950347840786,-0.49464812874794006
1702059695233256400,0.64725634765625,-0.07131851464509964,0.0907134860754013,-0.35521814227104187
1702059695250231800,0.664231689453125,-0.29016098380088806,-0.003512475173920393,-0.15729780495166779
1702059695267242800,0.68124267578125,-0.660192608833313,-0.25213462114334106,0.03894266113638878
1702059695284238600,0.698238525390625,-0.6801984310150146,-0.3773620128631592,0.14782938361167908
1702059695301226200,0.715226318359375,-0.6904304623603821,-0.4331034719944,0.2396118938922882
1702059695318227700,0.732227783203125,-0.7751879692077637,-0.5215262174606323,0.30482175946235657
1702059695335220000,0.749219970703125,-0.773202657699585,-0.569631814956665,0.3660610020160675
1702059695352215000,0.766215087890625,-0.6550002694129944,-0.6284276247024536,0.3937026560306549
1702059695369214200,0.783214111328125,-0.5448917746543884,-0.7374670505523682,0.3199406862258911
1702059695386203000,0.800202880859375,-0.5190827250480652,-0.8628471493721008,0.27641651034355164
1702059695403193300,0.817193359375,-0.579405665397644,-0.8452847599983215,0.3459024429321289
1702059695420189200,0.834189208984375,-0.7502952218055725,-0.7968736886978149,0.3914119005203247
1702059695437183500,0.85118359375,-0.9685268402099609,-0.7249443531036377,0.48716503381729126
1702059695454179000,0.868178955078125,-1.0994046926498413,-0.27718010544776917,0.08857546001672745
1702059695471169000,0.8851689453125,-0.9983065128326416,-0.1595885455608368,0.1459967941045761
1702059695488166400,0.90216650390625,-0.9332493543624878,-0.25182920694351196,0.09926560521125793
1702059695505159700,0.91915966796875,-0.9384417533874512,-0.22388210892677307,0.08888089656829834
1702059695522152700,0.936152587890625,-0.9950994849205017,-0.2165517359972,0.11331550031900406
1702059695539148000,0.95314794921875,-1.0639744997024536,-0.2018909603357315,0.1872301995754242
1702059695556141800,0.970141845703125,-1.1230757236480713,-0.1892155110836029,0.2571742534637451
1702059695573137400,0.987137451171875,-1.207069754600525,-0.2620611786842346,0.289702832698822
1702059695590127600,1.004127685546875,-1.2759448289871216,-0.260992169380188,0.3228422701358795
1702059695607124500,1.02112451171875,-1.374599575996399,-0.22098049521446228,0.3761402666568756
1702059695624119300,1.038119384765625,-1.516931176185608,-0.26939156651496887,0.40622538328170776
1702059695641109500,1.055109619140625,-1.688889741897583,-0.2919935882091522,0.44715335965156555
1702059695658107000,1.07210693359375,-1.8391625881195068,-0.3214678466320038,0.44623705744743347
1702059695675100200,1.08910009765625,-1.976454496383667,-0.28909197449684143,0.43188172578811646
1702059695692096000,1.106095947265625,-2.0806069374084473,-0.15806138515472412,0.45891252160072327
1702059695709086200,1.123086181640625,-2.1591031551361084,0.02535090781748295,0.5277875661849976
1702059695726082300,1.140082275390625,-2.2684481143951416,0.0887281745672226,0.5676465034484863
1702059695743078100,1.157078125,-2.390162944793701,0.020311269909143448,0.5593998432159424
1702059695760068000,1.174068115234375,-2.4634668827056885,-0.02535090781748295,0.554818332195282
1702059695777061000,1.19106103515625,-2.4833199977874756,-0.06291911751031876,0.5823072791099548
1702059695794057700,1.2080576171875,-2.487443208694458,-0.11881329119205475,0.6148358583450317
1702059695811050200,1.22505029296875,-2.4978280067443848,-0.2047925740480423,0.6152940392494202
1702059695828050000,1.2420498046875,-2.520582675933838,-0.2629774808883667,0.5774203538894653
1702059695845041000,1.259041015625,-2.507601737976074,-0.21395555138587952,0.5464189648628235
1702059695862021000,1.276021240234375,-2.4410176277160645,-0.17302757501602173,0.523511528968811
1702059695879023900,1.29302392578125,-2.373364210128784,-0.16600263118743896,0.49144110083580017
1702059695896025600,1.310025634765625,-2.2759311199188232,-0.15302173793315887,0.45142942667007446
1702059695913018600,1.3270185546875,-2.191478967666626,-0.11026117950677872,0.4335615932941437
1702059695930008600,1.344008544921875,-2.1430680751800537,-0.08567385375499725,0.4537201523780823
1702059695947005200,1.361005126953125,-2.1151208877563477,-0.096211276948452,0.4479169547557831
1702059695964000800,1.378000732421875,-2.073734760284424,-0.04001167416572571,0.4404338300228119
1702059695980991000,1.394990966796875,-2.0393736362457275,-0.03848451003432274,0.44806966185569763
1702059695997988000,1.411988037109375,-2.046245813369751,-0.08704829961061478,0.4888449013233185
1702059696014981400,1.4289814453125,-2.01509165763855,-0.13836097717285156,0.517250120639801
1702059696031960600,1.445960693359375,-1.9165897369384766,-0.16783522069454193,0.5158756971359253
1702059696048965600,1.462965576171875,-1.7683022022247314,-0.16691893339157104,0.5174028873443604
1702059696065964800,1.47996484375,-1.623374342918396,-0.20036379992961884,0.5499314665794373
1702059696082959400,1.49695947265625,-1.5184582471847534,-0.22143864631652832,0.6033821702003479
1702059696099949000,1.513948974609375,-1.4607315063476562,-0.18707747757434845,0.6149885654449463
1702059696116945700,1.530945556640625,-1.4966198205947876,-0.14553864300251007,0.6091853380203247
1702059696133941500,1.54794140625,-1.5749633312225342,-0.10690141469240189,0.5963571667671204
1702059696150915300,1.564915283203125,-1.6313155889511108,-0.06169738993048668,0.5972734689712524
1702059696167931400,1.581931396484375,-1.6644550561904907,-0.08491026610136032,0.593302845954895
1702059696184920000,1.598920166015625,-1.6658295392990112,-0.1644754707813263,0.6282749176025391
1702059696201919500,1.61591943359375,-1.6300939321517944,-0.1814269721508026,0.6073527932167053
1702059696218907600,1.63290771484375,-1.4776830673217773,-0.08933904021978378,0.607200026512146
1702059696235904000,1.649904052734375,-1.2834278345108032,0.031154127791523933,0.57436603307724
1702059696252900400,1.666900390625,-1.1064296960830688,0.005345070734620094,0.4833471179008484
1702059696269889300,1.68388916015625,-1.0493137836456299,-0.13408492505550385,0.3813326358795166
1702059696286882800,1.7008828125,-1.0551170110702515,-0.23686300218105316,0.26908615231513977
1702059696303879400,1.71787939453125,-1.08718740940094,-0.23396138846874237,0.17623461782932281
1702059696320874500,1.73487451171875,-1.074512004852295,-0.1362229436635971,0.15225815773010254
1702059696337869300,1.751869384765625,-1.0163270235061646,-0.12476922571659088,0.16554448008537292
1702059696354862600,1.768862548828125,-0.9879218339920044,-0.1950187236070633,0.15424346923828125
1702059696371862300,1.7858623046875,-0.9544769525527954,-0.27748554944992065,0.16340644657611847
1702059696388848400,1.802848388671875,-0.9250026941299438,-0.33017265796661377,0.20830504596233368
1702059696405860000,1.819860107421875,-0.7924449443817139,-0.23640485107898712,0.25014930963516235
1702059696422831600,1.83683154296875,-0.6204863786697388,-0.12018773704767227,0.20555615425109863
1702059696439829800,1.853829833984375,-0.46822822093963623,-0.045204028487205505,0.11133018881082535
1702059696456828700,1.87082861328125,-0.3880521357059479,-0.019853120669722557,0.03130684420466423
1702059696473815300,1.887815185546875,-0.3744603991508484,0.04046982154250145,0.014966198243200779
1702059696490819000,1.904819091796875,-0.4150829315185547,0.003359758760780096,-0.007177666760981083
1702059696507810600,1.921810546875,-0.45326200127601624,-0.038179077208042145,-0.04306599870324135
1702059696524791800,1.938791748046875,-0.41828998923301697,0.0003054326225537807,-0.04642575979232788
1702059696541799000,1.955798828125,-0.34376442432403564,0.06719517707824707,-0.030237829312682152
1702059696558788600,1.97278857421875,-0.2790127098560333,0.09514226019382477,0.002138028386980295
1702059696575783700,1.98978369140625,-0.22708915174007416,0.057879481464624405,0.05650503560900688
1702059696592782600,2.006782470703125,-0.197004035115242,-0.021838432177901268,0.07742717117071152
1702059696609770800,2.023770751953125,-0.18631389737129211,-0.04505131021142006,0.07406741380691528
1702059696626767600,2.040767578125,-0.18600846827030182,-0.005039638374000788,0.07406741380691528
1702059696643763200,2.05776318359375,-0.19349156320095062,0.030085112899541855,0.07269296050071716
1702059696660753000,2.0747529296875,-0.2217440903186798,-0.0039706239476799965,0.07864890247583389
1702059696677753300,2.09175341796875,-0.23548854887485504,-0.10903944820165634,0.07864890247583389
1702059696694743600,2.10874365234375,-0.20952677726745605,-0.12889257073402405,0.10125091671943665
1702059696711739400,2.125739501953125,-0.18310685455799103,-0.07024950534105301,0.098502017557621
1702059696728730600,2.142730712890625,-0.17867808043956757,-0.055894169956445694,0.08827003091573715
1702059696745725700,2.1597255859375,-0.17058411240577698,-0.0328340083360672,0.07971791177988052
1702059696762721800,2.1767216796875,-0.16752979159355164,-0.03375030308961868,0.06352998316287994
1702059696779711500,2.19371142578125,-0.13439035415649414,-0.014049900695681572,0.05161811411380768
1702059696796707800,2.210707763671875,-0.09193521738052368,0.006261368747800589,0.02015855349600315
1702059696813703700,2.22770361328125,-0.08185594528913498,-0.0025961773935705423,-0.0064140851609408855
1702059696830693600,2.244693603515625,-0.1010981947183609,-0.027030786499381065,-0.00366519158706069
1702059696847691000,2.26169091796875,-0.08720101416110992,-0.0064140851609408855,0.017562376335263252
1702059696864684300,2.278684326171875,-0.10323622822761536,0.07024950534105301,0.0328340083360672
1702059696881680000,2.295679931640625,-0.09941831976175308,0.1007927656173706,0.03329215571284294
1702059696898670000,2.312670166015625,-0.02321287989616394,0.09758572280406952,-0.017562376335263252
1702059696915666400,2.32966650390625,0.04108068719506264,0.06520986557006836,-0.07147123664617538
1702059696932664000,2.3466640625,0.02580905705690384,0.037110064178705215,-0.05360342562198639
1702059696949650200,2.363650146484375,-0.045204028487205505,0.03833179548382759,0.011453723534941673
1702059696966646800,2.380646728515625,-0.09575312584638596,0.05711590126156807,0.060475658625364304
1702059696983646200,2.397646240234375,-0.10384709388017654,0.046731192618608475,0.06414084881544113
1702059697000634000,2.414634033203125,-0.098502017557621,-0.01572977937757969,0.03237585723400116
1702059697017633000,2.431633056640625,-0.04092797264456749,-0.021532999351620674,0.020463986322283745
1702059697034623500,2.44862353515625,0.04581489413976669,0.009773843921720982,0.022602014243602753
1702059697051620600,2.46562060546875,0.12400564551353455,0.0455094613134861,0.031612277030944824
1702059697068611800,2.48261181640625,0.164170041680336,0.1036943718791008,0.012522737495601177
1702059697085606700,2.499606689453125,0.18127426505088806,0.09896016865968704,-0.0403171069920063
1702059697102602800,2.516602783203125,0.17073683440685272,0.018936822190880775,-0.08231408894062042
1702059697119596800,2.5335966796875,0.15592335164546967,-0.059406645596027374,-0.0936150997877121
1702059697136583700,2.550583740234375,0.1495092660188675,-0.05971207842230797,-0.09056077152490616
1702059697153586200,2.567586181640625,0.15531249344348907,-0.0029016099870204926,-0.08261952549219131
1702059697170579500,2.584579345703125,0.13301590085029602,0.0024434609804302454,-0.08414668589830399
1702059697187573200,2.6015732421875,0.08200865983963013,-0.03940080851316452,-0.07147123664617538
1702059697204565200,2.618565185546875,0.04398229718208313,-0.07483099400997162,-0.02932153269648552
1702059697221546800,2.635546630859375,0.0377209298312664,-0.08429940044879913,-0.004123340360820293
1702059697238552600,2.652552490234375,0.05467243865132332,-0.051770828664302826,-0.008246680721640587
1702059697255545000,2.669545166015625,0.07391469180583954,-0.014202617108821869,-0.017409659922122955
1702059697272534000,2.686533935546875,0.09392052888870239,-0.021532999351620674,-0.01664607785642147
1702059697289534500,2.703534423828125,0.12324206531047821,-0.03176499158143997,-0.016798794269561768
1702059697306527700,2.72052783203125,0.13744467496871948,-0.021532999351620674,-0.02580905705690384
1702059697323523600,2.737523681640625,0.16294831037521362,0.024892758578062057,-0.04642575979232788
1702059697340518400,2.754518310546875,0.2093740701675415,0.06505715101957321,-0.06276640295982361
1702059697357513000,2.771512939453125,0.25182920694351196,0.07269296050071716,-0.0685696229338646
1702059697374509300,2.78850927734375,0.30085113644599915,0.052839845418930054,-0.07391469180583954
1702059697391501300,2.805501220703125,0.3822489380836487,0.05513058975338936,-0.08307767659425735
1702059697408492000,2.822491943359375,0.49357911944389343,0.0806342139840126,-0.10216721147298813
1702059697425488400,2.83948828125,0.5928447246551514,0.08689557760953903,-0.12553280591964722
1702059697442484000,2.85648388671875,0.6572909951210022,0.08674286305904388,-0.1417207419872284
1702059697459474000,2.873473876953125,0.7215845584869385,0.13316862285137177,-0.18096883594989777
1702059697476470300,2.89047021484375,0.8799513578414917,0.29474249482154846,-0.18005253374576569
1702059697493465900,2.9074658203125,1.0386236906051636,0.3672827184200287,-0.156686931848526
1702059697510456000,2.9244560546875,1.1395691633224487,0.3669773042201996,-0.1359175145626068
1702059697527453400,2.941453369140625,1.231046199798584,0.38927388191223145,-0.16279558837413788
1702059697544436200,2.958436279296875,1.380402684211731,0.42699480056762695,-0.2451096773147583
1702059697561436400,2.9754365234375,1.6417003870010376,0.4586070775985718,-0.35659259557724
1702059697578438100,2.992438232421875,1.9465221166610718,0.44196099042892456,-0.460897833108902
1702059697595428600,3.0094287109375,2.1899518966674805,0.35185837745666504,-0.5590944290161133
1702059697612424400,3.026424560546875,2.420706272125244,0.308792382478714,-0.6275113224983215
1702059697629414700,3.04341455078125,2.6648995876312256,0.31230485439300537,-0.6947064995765686
1702059697646411000,3.060410888671875,2.922532081604004,0.3727805018424988,-0.7455610036849976
1702059697663406600,3.077406494140625,3.1789426803588867,0.5001459121704102,-0.8124507665634155
1702059697680396800,3.094396728515625,3.4174857139587402,0.6331618428230286,-0.8900306820869446
1702059697697394000,3.111393798828125,3.6911532878875732,0.7130324840545654,-0.9841039180755615
1702059697714388200,3.12838818359375,3.9319868087768555,0.5902485251426697,-1.1696542501449585
1702059697731382300,3.14538232421875,4.130823612213135,0.48059824109077454,-1.367727279663086
1702059697748376600,3.16237646484375,4.3308820724487305,0.5616905689239502,-1.4873042106628418
1702059697765369300,3.179369384765625,4.504825592041016,0.6806566119194031,-1.529911994934082
1702059697782365400,3.196365478515625,4.516584873199463,0.53328537940979,-1.596496343612671
1702059697799358500,3.2133583984375,4.449389934539795,0.25732699036598206,-1.6953037977218628
1702059697816351700,3.230351806640625,4.4542765617370605,0.24174992740154266,-1.6975945234298706
1702059697833347600,3.24734765625,4.531703948974609,0.5105306506156921,-1.5364787578582764
1702059697850328300,3.264328369140625,4.478711128234863,0.6913467645645142,-1.2589932680130005
1702059697867336400,3.28133642578125,4.27468204498291,0.47479501366615295,-1.0977247953414917
1702059697884328700,3.29832861328125,3.9400808811187744,0.0013744467869400978,-1.191950798034668
1702059697901320400,3.315320556640625,3.685655355453491,-0.12003502249717712,-1.2655600309371948
1702059697918319400,3.3323193359375,3.5517232418060303,0.012675453908741474,-1.1707231998443604
1702059697935310800,3.349310791015625,3.456275463104248,0.12232576310634613,-0.903775155544281
1702059697952305200,3.36630517578125,3.2980613708496094,-0.01038470957428217,-0.6957755088806152
1702059697969299000,3.383298828125,3.0909781455993652,-0.17928895354270935,-0.685390830039978
1702059697986289400,3.400289306640625,2.9523117542266846,-0.19028452038764954,-0.7331910133361816
1702059698003291000,3.417290771484375,2.956282377243042,-0.1414152979850769,-0.7108944058418274
1702059698020288300,3.434288330078125,2.9443705081939697,-0.06673702597618103,-0.5997169613838196
1702059698037272600,3.4512724609375,2.8237245082855225,-0.020311269909143448,-0.4766276180744171
1702059698054272000,3.46827197265625,2.568382978439331,-0.08506298810243607,-0.4657847583293915
1702059698071263500,3.485263427734375,2.2455406188964844,-0.11331550031900406,-0.47448956966400146
1702059698088257500,3.502257568359375,1.9619464874267578,-0.05497787147760391,-0.493731826543808
1702059698105251800,3.519251953125,1.7232508659362793,0.07819075137376785,-0.4482223689556122
1702059698122245600,3.53624560546875,1.454470157623291,0.12171489745378494,-0.3436116874217987
1702059698139238100,3.553238037109375,1.220050573348999,0.15882496535778046,-0.26771169900894165
1702059698156235500,3.570235595703125,1.0329731702804565,0.1319468915462494,-0.2664899528026581
1702059698173227800,3.587227783203125,0.8941540122032166,0.10247264802455902,-0.260992169380188
1702059698190221800,3.604221923828125,0.7735081315040588,0.059406645596027374,-0.25473082065582275
1702059698207216000,3.621216064453125,0.6989825367927551,0.07116580009460449,-0.24266621470451355
1702059698224207400,3.638207275390625,0.6230825781822205,0.0659734457731247,-0.22617286443710327
1702059698241206800,3.655206787109375,0.5215262174606323,-0.010537425056099892,-0.1849394589662552
1702059698258198300,3.6721982421875,0.44516804814338684,-0.051312681287527084,-0.09773843735456467
1702059698275192300,3.6891923828125,0.375529408454895,-0.043218716979026794,0.016951510682702065
1702059698292186000,3.70618603515625,0.2932153046131134,0.0009162978967651725,0.1189660057425499
1702059698309180700,3.7231806640625,0.18387043476104736,-0.009621127508580685,0.16783522069454193
1702059698326174500,3.740174560546875,0.09376781433820724,-0.047800205647945404,0.15974126756191254
1702059698343168500,3.75716845703125,0.06276640295982361,-0.0809396430850029,0.11927144229412079
1702059698360162600,3.77416259765625,0.07696902006864548,-0.09682214260101318,0.08567385375499725
1702059698377156600,3.791156494140625,0.08185594528913498,-0.06123924255371094,0.08552113175392151
1702059698394150400,3.808150390625,0.06673702597618103,-0.01542434748262167,0.09529497474431992
1702059698411144700,3.825144775390625,0.04688390716910362,0.006719517521560192,0.08368854224681854
1702059698428138200,3.84213818359375,0.04077525436878204,0.008704829961061478,0.048258353024721146
1702059698445133600,3.859133544921875,0.04795292019844055,0.0012217304902151227,0.004428773187100887
1702059698462135600,3.876135498046875,0.04886921867728233,-0.029474247246980667,-0.021991148591041565
1702059698479120100,3.8931201171875,0.015882495790719986,-0.04993823543190956,-0.017562376335263252
1702059698496115700,3.91011572265625,-0.038637228310108185,-0.04932736977934837,-0.007635815534740686
1702059698513109000,3.92710888671875,-0.06780604273080826,-0.025503624230623245,-0.008399397134780884
1702059698530099500,3.944099365234375,-0.057879481464624405,-0.0009162978967651725,-0.026114489883184433
1702059698547101000,3.961100830078125,-0.026419922709465027,-0.001527163083665073,-0.04535674303770065
1702059698564091100,3.978091064453125,0.01466076634824276,-0.004581489134579897,-0.06459899991750717
1702059698581085400,3.99508544921875,0.041691552847623825,-0.004123340360820293,-0.06963863968849182
1702059698598079500,4.01207958984375,0.058337632566690445,-0.007024950347840786,-0.06536258012056351
1702059698615073500,4.029073486328125,0.07238753139972687,-0.014049900695681572,-0.052381694316864014
1702059698632067300,4.0460673828125,0.08491026610136032,-0.006108652334660292,-0.05619960278272629
1702059698649060600,4.063060546875,0.08857546001672745,-0.013591751456260681,-0.0936150997877121
1702059698666056700,4.080056640625,0.08994990587234497,-0.026572637259960175,-0.12217304855585098
1702059698683049700,4.0970498046875,0.09178250283002853,-0.03833179548382759,-0.13240504264831543
1702059698700040700,4.114040771484375,0.09178250283002853,-0.01878410577774048,-0.11239920556545258
1702059698717041000,4.131041015625,0.06918048858642578,-0.009010262787342072,-0.08002334833145142
1702059698734022000,4.14802197265625,0.04077525436878204,-0.019547687843441963,-0.05406157299876213
1702059698751026200,4.165026123046875,0.018325956538319588,-0.03481931984424591,-0.04046982154250145
1702059698768020200,4.182020263671875,0.007635815534740686,-0.05696318298578262,-0.043676864355802536
1702059698785014000,4.199013916015625,0.0003054326225537807,-0.0731511116027832,-0.04382958263158798
1702059698802008300,4.21600830078125,-0.025961773470044136,-0.07712173461914062,-0.023976460099220276
1702059698819002400,4.23300244140625,-0.10033461451530457,-0.06062837690114975,0.008246680721640587
1702059698835985700,4.249985595703125,-0.21624629199504852,-0.07483099400997162,0.02825251780450344
1702059698852987600,4.266987548828125,-0.3436116874217987,-0.11789698898792267,0.014202617108821869
1702059698869987000,4.283987060546875,-0.4737260043621063,-0.17211128771305084,-0.012522737495601177
1702059698886968800,4.30096875,-0.5957463383674622,-0.18051068484783173,-0.0013744467869400978
1702059698903972600,4.31797265625,-0.7011205554008484,-0.1414152979850769,0.06688974797725677
1702059698920969000,4.334968994140625,-0.7988590002059937,-0.08643743395805359,0.14966198801994324
1702059698937970700,4.351970703125,-0.9188940525054932,-0.07024950534105301,0.2246456891298294
1702059698954954800,4.368954833984375,-1.0852020978927612,-0.17287486791610718,0.2733621895313263
1702059698971948800,4.38594873046875,-1.288162112236023,-0.3397938013076782,0.2719877362251282
1702059698988942800,4.40294287109375,-1.4582880735397339,-0.4401284158229828,0.22846360504627228
1702059699005933000,4.41993310546875,-1.6070337295532227,-0.4433354437351227,0.1569923609495163
1702059699022933500,4.43693359375,-1.757459282875061,-0.39187005162239075,0.10949759185314178
1702059699039925000,4.453925048828125,-1.9005545377731323,-0.40714168548583984,0.08536841720342636
1702059699056930000,4.470929931640625,-2.02425479888916,-0.4389066696166992,0.10445795953273773
1702059699073913300,4.487913330078125,-2.157881498336792,-0.4492913782596588,0.15286903083324432
1702059699090907400,4.504907470703125,-2.322356939315796,-0.42867469787597656,0.22999076545238495
1702059699107895800,4.521895751953125,-2.500576972961426,-0.38667771220207214,0.3130684494972229
1702059699124894000,4.53889404296875,-2.6397013664245605,-0.31810808181762695,0.3956879675388336
1702059699141890800,4.555890869140625,-2.7348437309265137,-0.2532036304473877,0.47418415546417236
1702059699158883600,4.572883544921875,-2.8180739879608154,-0.2984076738357544,0.5198463201522827
1702059699175877400,4.58987744140625,-2.90008282661438,-0.380721777677536,0.5433646440505981
1702059699192871700,4.60687158203125,-2.998584747314453,-0.4352414906024933,0.5801692605018616
1702059699209865700,4.62386572265625,-3.0952541828155518,-0.395077109336853,0.6623306274414062
1702059699226859800,4.64085986328125,-3.1671836376190186,-0.337044894695282,0.7492262125015259
1702059699243853800,4.657853759765625,-3.1835241317749023,-0.31413745880126953,0.7735081315040588
1702059699260847900,4.674847900390625,-3.109609603881836,-0.30894508957862854,0.7225008606910706
1702059699277831400,4.69183154296875,-2.9739973545074463,-0.31031954288482666,0.6281222105026245
1702059699294836000,4.7088359375,-2.8356363773345947,-0.27947086095809937,0.5523748993873596
1702059699311829800,4.725829833984375,-2.7531697750091553,-0.25305092334747314,0.5079344511032104
1702059699328824300,4.74282421875,-2.715754270553589,-0.2692388594150543,0.49327367544174194
1702059699345818000,4.759818115234375,-2.6560420989990234,-0.20402899384498596,0.5340489149093628
1702059699362812200,4.776812255859375,-2.5700628757476807,-0.08475755155086517,0.5858197808265686
1702059699379804200,4.79380419921875,-2.459343433380127,-0.023060163483023643,0.570853590965271
1702059699396800500,4.810800537109375,-2.322204113006592,-0.044745877385139465,0.49846604466438293
1702059699413794300,4.827794189453125,-2.1736111640930176,-0.09010262042284012,0.41523563861846924
1702059699430788600,4.84478857421875,-2.0360138416290283,-0.03573561832308769,0.3828597962856293
1702059699447782400,4.861782470703125,-1.930334210395813,-0.027641652151942253,0.3845396637916565
1702059699464777000,4.87877685546875,-1.850616216659546,-0.128434419631958,0.3813326358795166
1702059699481770800,4.895770751953125,-1.8205311298370361,-0.24694228172302246,0.3669773042201996
1702059699498764800,4.912764892578125,-1.782657504081726,-0.1892155110836029,0.38988474011421204
1702059699515748400,4.929748291015625,-1.7881553173065186,-0.032528575509786606,0.4242459237575531
1702059699532745700,4.946745849609375,-1.8402315378189087,-0.012522737495601177,0.42638394236564636
1702059699549744400,4.963744384765625,-1.8330538272857666,-0.096211276948452,0.4335615932941437
1702059699566743600,4.98074365234375,-1.7724255323410034,-0.16630806028842926,0.44974952936172485
1702059699583735000,4.997735107421875,-1.7434093952178955,-0.1644754707813263,0.43829581141471863
1702059699600731600,5.014731689453125,-1.6997325420379639,-0.054367005825042725,0.4231768846511841
1702059699617720600,5.031720458984375,-1.6615535020828247,0.036651913076639175,0.3985895812511444
1702059699634717200,5.04871728515625,-1.6404786109924316,0.04306599870324135,0.3836233615875244
1702059699651711200,5.065711181640625,-1.621999979019165,-0.03084869496524334,0.3349068760871887
1702059699668705500,5.08270556640625,-1.5627460479736328,-0.11239920556545258,0.2942843437194824
1702059699685699600,5.099699462890625,-1.4599679708480835,-0.1437060534954071,0.27122417092323303
1702059699702690800,5.11669091796875,-1.3483322858810425,-0.12140946835279465,0.26313021779060364
1702059699719690200,5.133690185546875,-1.2457069158554077,-0.05650503560900688,0.24144448339939117
1702059699736665000,5.1506650390625,-1.1847730875015259,-0.05161811411380768,0.2002110779285431
1702059699753673000,5.1676728515625,-1.1676689386367798,-0.12034045159816742,0.17119498550891876
1702059699770676500,5.184676513671875,-1.1797335147857666,-0.20326541364192963,0.15500704944133759
1702059699787653400,5.2016533203125,-1.1908818483352661,-0.25702154636383057,0.15943582355976105
1702059699804658000,5.218657958984375,-1.1343767642974854,-0.144622340798378,0.2217440903186798
1702059699821652000,5.23565185546875,-1.0798569917678833,-0.06276640295982361,0.2606867551803589
1702059699838646000,5.25264599609375,-1.030071496963501,-0.07254024595022202,0.25595253705978394
1702059699855622000,5.269621826171875,-1.0041097402572632,-0.16249015927314758,0.20357084274291992
1702059699872631600,5.286631591796875,-0.9975429177284241,-0.2269364446401596,0.16401731967926025
1702059699889628400,5.30362841796875,-1.0131200551986694,-0.1722639948129654,0.17119498550891876
1702059699906612000,5.320612060546875,-1.0031934976577759,-0.09224065393209457,0.20463985204696655
1702059699923616300,5.3376162109375,-0.9796751141548157,-0.016951510682702065,0.24159720540046692
1702059699940610600,5.354610595703125,-0.9631817936897278,-0.010690141469240189,0.24205535650253296
1702059699957604400,5.371604248046875,-0.9489791393280029,-0.07376197725534439,0.2252565622329712
1702059699974598700,5.3885986328125,-0.9370672702789307,-0.13866640627384186,0.18799377977848053
1702059699991592700,5.4055927734375,-0.9057604670524597,-0.13805554807186127,0.1745547503232956
1702059700008587000,5.4225869140625,-0.8820894360542297,-0.11255192011594772,0.17119498550891876
1702059700025580800,5.439580810546875,-0.8741481900215149,-0.09346238523721695,0.15241087973117828
1702059700042574800,5.456574951171875,-0.8472700715065002,-0.02519819140434265,0.12736541032791138
1702059700059569000,5.47356884765625,-0.7968736886978149,0.03985895588994026,0.09315694868564606
1702059700076563000,5.49056298828125,-0.7371616363525391,0.005803219974040985,0.05421429127454758
1702059700093557200,5.50755712890625,-0.6721044778823853,-0.0754418596625328,0.04657847434282303
1702059700110551300,5.52455126953125,-0.6067419052124023,-0.09834930300712585,0.0679587572813034
1702059700127534600,5.54153466796875,-0.5419901609420776,-0.043218716979026794,0.09193521738052368
1702059700144539100,5.5585390625,-0.483957976102829,0.023976460099220276,0.07269296050071716
1702059700161544000,5.5755439453125,-0.4386012554168701,0.01664607785642147,0.02779436856508255
1702059700178511000,5.592510986328125,-0.42119157314300537,-0.058184914290905,0.001679879380390048
1702059700195519000,5.60951904296875,-0.437226802110672,-0.10674870014190674,0.01542434748262167
1702059700212518100,5.62651806640625,-0.45173484086990356,-0.10995574295520782,0.043218716979026794
1702059700229509600,5.643509521484375,-0.43905940651893616,-0.13316862285137177,0.046731192618608475
1702059700246503700,5.660503662109375,-0.38377609848976135,-0.14492778480052948,0.015118914656341076
1702059700263497700,5.677497802734375,-0.3306308090686798,-0.13775011897087097,-0.02321287989616394
1702059700280491800,5.69449169921875,-0.30695977807044983,-0.1062905490398407,-0.036193765699863434
1702059700297486000,5.711486083984375,-0.3113885521888733,-0.08704829961061478,-0.005803219974040985
1702059700314479900,5.72847998046875,-0.33719760179519653,-0.07681630551815033,0.03375030308961868
1702059700331474000,5.745473876953125,-0.3651446998119354,-0.0354301854968071,0.05543602257966995
1702059700348459000,5.762458984375,-0.3675881624221802,-0.07147123664617538,0.04688390716910362
1702059700365462000,5.7794619140625,-0.2987131178379059,-0.032070424407720566,0.03787364438176155
1702059700382456000,5.7964560546875,-0.25274550914764404,-0.0656680166721344,0.01191187184303999
1702059700399450000,5.8134501953125,-0.2396118938922882,-0.08506298810243607,0.02122756652534008
1702059700416444200,5.830444091796875,-0.2402227520942688,-0.024129176512360573,0.046273041516542435
1702059700433438200,5.847438232421875,-0.2220495194196701,0.036651913076639175,0.06322455406188965
1702059700450432800,5.864432861328125,-0.18600846827030182,0.022449297830462456,0.05451972410082817
1702059700467426300,5.88142626953125,-0.15806138515472412,-0.027488935738801956,0.020922135561704636
1702059700484420600,5.898420654296875,-0.16630806028842926,-0.06169738993048668,-0.0065668015740811825
1702059700501414700,5.91541455078125,-0.19165897369384766,-0.041233405470848083,-0.0013744467869400978
1702059700518408700,5.93240869140625,-0.19883663952350616,0.016035212203860283,0.02733621932566166
1702059700535402800,5.94940283203125,-0.20357084274291992,0.029168816283345222,0.03741549700498581
1702059700552408300,5.966408203125,-0.206777885556221,0.01771509274840355,0.023976460099220276
1702059700569390000,5.98339013671875,-0.20845776796340942,-0.002138028386980295,0.01664607785642147
1702059700586385700,6.0003857421875,-0.23487769067287445,-0.04382958263158798,0.027641652151942253
1702059700603370500,6.01737060546875,-0.2739730477333069,-0.0910189226269722,0.02932153269648552
1702059700620375800,6.034375732421875,-0.3032945990562439,-0.08720101416110992,0.02977968007326126
1702059700637364500,6.051364501953125,-0.299018532037735,-0.05390885844826698,0.035124752670526505
1702059700654371800,6.068371826171875,-0.23380866646766663,-0.022602014243602753,0.04214970022439957
1702059700671355100,6.085355224609375,-0.14584407210350037,0.0006108652451075613,0.021074850112199783
1702059700688349400,6.102349365234375,-0.08170322328805923,-0.010079276748001575,-0.006872233934700489
1702059700705346000,6.119345947265625,-0.05757404863834381,-0.027030786499381065,-0.025656340643763542
1702059700722337500,6.136337646484375,-0.07987063378095627,-0.019853120669722557,-0.029016099870204926
1702059700739331300,6.153331298828125,-0.11178833991289139,-0.014355333521962166,-0.020463986322283745
1702059700756325600,6.17032568359375,-0.11514809727668762,0.00015271631127689034,-0.012064588256180286
1702059700773309000,6.187308837890625,-0.07269296050071716,0.018936822190880775,-0.009468411095440388
1702059700790313700,6.204313720703125,-0.024434609338641167,0.007635815534740686,-0.01725694350898266
1702059700807308000,6.22130810546875,-0.014202617108821869,-0.030237829312682152,-0.037110064178705215
1702059700824314400,6.238314453125,-0.044135015457868576,-0.04886921867728233,-0.04001167416572571
1702059700841296000,6.2552958984375,-0.09926560521125793,-0.03451388701796532,-0.014355333521962166
1702059700858290000,6.2722900390625,-0.1385136991739273,-0.005955935921519995,0.013744467869400978
1702059700875273700,6.289273681640625,-0.1518000066280365,-0.0039706239476799965,0.02076941914856434
1702059700892278000,6.306278076171875,-0.1774563491344452,-0.027488935738801956,0.00809396430850029
1702059700909272300,6.323272216796875,-0.18555031716823578,-0.05971207842230797,0.009468411095440388
1702059700926266400,6.340266357421875,-0.16630806028842926,-0.04505131021142006,0.03039054572582245
1702059700943251200,6.357251220703125,-0.13744467496871948,-0.011759156361222267,0.038026362657547
1702059700960254500,6.37425439453125,-0.07009678333997726,0.03649919852614403,0.02871066704392433
1702059700977246000,6.391245849609375,0.010079276748001575,0.04932736977934837,0.006719517521560192
1702059700994245000,6.4082451171875,0.06154467165470123,0.023976460099220276,-0.014049900695681572
1702059701011231200,6.425231201171875,0.07437284290790558,0,-0.02367102913558483
1702059701028217900,6.4422177734375,0.08216137439012527,0.01038470957428217,-0.02367102913558483
1702059701045217500,6.459217529296875,0.09651670604944229,0.0529925599694252,-0.016340645030140877
1702059701062218800,6.47621875,0.12919799983501434,0.0910189226269722,-0.005650503560900688
1702059701079210200,6.493210205078125,0.16081027686595917,0.09697485715150833,0.0007635815418325365
1702059701096209400,6.51020947265625,0.2002110779285431,0.0757472887635231,-0.011453723534941673
1702059701113201000,6.527200927734375,0.25335636734962463,0.06459899991750717,-0.03695734590291977
1702059701130195000,6.54419482421875,0.3016147017478943,0.07422012835741043,-0.05513058975338936
1702059701147189000,6.56118896484375,0.34116822481155396,0.09758572280406952,-0.05360342562198639
1702059701164183300,6.578183349609375,0.4008803069591522,0.13011430203914642,-0.050243668258190155
1702059701181177300,6.59517724609375,0.5277875661849976,0.17409659922122955,-0.07941248267889023
1702059701198172000,6.612171875,0.698066234588623,0.21059578657150269,-0.15241087973117828
1702059701215165200,6.629165283203125,0.907898485660553,0.22831088304519653,-0.23258693516254425
1702059701232159200,6.6461591796875,1.0448850393295288,0.21273382008075714,-0.2788599729537964
1702059701249155000,6.663155029296875,1.050840973854065,0.21914790570735931,-0.27488934993743896
1702059701266146000,6.68014599609375,1.0227410793304443,0.20922134816646576,-0.23976461589336395
1702059701283141600,6.6971416015625,1.024726390838623,0.13484850525856018,-0.2542726695537567
1702059701300133600,6.714133544921875,1.136362075805664,0.07208210229873657,-0.327271044254303
1702059701317131800,6.7311318359375,1.3674218654632568,0.0705549344420433,-0.4101960062980652
1702059701334113300,6.74811328125,1.617876648902893,0.07880161702632904,-0.4634940028190613
1702059701351117800,6.765117919921875,1.7570011615753174,0.023060163483023643,-0.4938845634460449
1702059701368111900,6.78211181640625,1.8093829154968262,-0.04856378585100174,-0.48090365529060364
1702059701385106000,6.79910595703125,1.8064812421798706,-0.005039638374000788,-0.447000652551651
1702059701402100200,6.816100341796875,1.866040587425232,0.22067506611347198,-0.4173736870288849
1702059701419094300,6.83309423828125,1.9816468954086304,0.4118759036064148,-0.41233405470848083
1702059701436088300,6.85008837890625,2.1012237071990967,0.31230485439300537,-0.4645630121231079
1702059701453092900,6.8670927734375,2.1507039070129395,0.055894169956445694,-0.5322163701057434
1702059701470076700,6.88407666015625,2.1671972274780273,-0.11728613078594208,-0.5632177591323853
1702059701487070000,6.901070068359375,2.2229385375976562,-0.04963280260562897,-0.5233588218688965
1702059701504064500,6.918064453125,2.3319780826568604,0.08200865983963013,-0.44318273663520813
1702059701521060600,6.935060546875,2.4442245960235596,0.07284568250179291,-0.365755558013916
1702059701538050600,6.952050537109375,2.4668266773223877,-0.03176499158143997,-0.365755558013916
1702059701555045600,6.969045654296875,2.504700183868408,-0.021074850112199783,-0.40882155299186707
1702059701572040700,6.986040771484375,2.5900685787200928,0.10491610318422318,-0.43478333950042725
1702059701589034800,7.00303466796875,2.7097983360290527,0.24587325751781464,-0.44577890634536743
1702059701606029300,7.020029296875,2.8179214000701904,0.18707747757434845,-0.5239696502685547
1702059701623022800,7.03702294921875,2.9013044834136963,0.07223481684923172,-0.622624397277832
1702059701640014300,7.054014404296875,2.9827022552490234,0.11163562536239624,-0.6655376553535461
1702059701657013800,7.071013671875,3.0524935722351074,0.26022860407829285,-0.6453791260719299
1702059701673999400,7.087999267578125,3.082273244857788,0.29168814420700073,-0.6224716901779175
1702059701690997000,7.1049970703125,3.0298917293548584,0.21151208877563477,-0.5812382698059082
1702059701707995600,7.12199560546875,2.9491047859191895,0.23396138846874237,-0.48747047781944275
1702059701724977000,7.138976806640625,2.8709139823913574,0.37430769205093384,-0.38347065448760986
1702059701741980400,7.15598046875,2.7876834869384766,0.44180828332901,-0.3594942092895508
1702059701758976300,7.172976318359375,2.6975808143615723,0.3289509415626526,-0.4196644127368927
1702059701775969500,7.189969482421875,2.674826145172119,0.16493362188339233,-0.48548516631126404
1702059701792963600,7.206963623046875,2.6977336406707764,0.027030786499381065,-0.5306891798973083
1702059701809957600,7.22395751953125,2.7128524780273438,0.078343465924263,-0.4966334402561188
1702059701826951700,7.24095166015625,2.702773332595825,0.3199406862258911,-0.40653082728385925
1702059701843945700,7.25794580078125,2.696969985961914,0.5187773108482361,-0.3263547718524933
1702059701860951000,7.274950927734375,2.7597365379333496,0.6215553879737854,-0.30146199464797974
1702059701877943300,7.291943359375,2.8211283683776855,0.5462662577629089,-0.31612277030944824
1702059701894928000,7.308927978515625,2.853504180908203,0.5062545537948608,-0.32589662075042725
1702059701911922000,7.325921875,2.8483119010925293,0.6704245805740356,-0.25671613216400146
1702059701928916200,7.342916259765625,2.725222587585449,0.707840085029602,-0.1869247704744339
1702059701945904400,7.359904296875,2.5361597537994385,0.6304129362106323,-0.13866640627384186
1702059701962904000,7.376904052734375,2.4214699268341064,0.5203045010566711,-0.19456058740615845
1702059701979898000,7.393898193359375,2.383596181869507,0.3300199508666992,-0.35873061418533325
1702059701996882000,7.4108818359375,2.358703374862671,0.2915354371070862,-0.46273043751716614
1702059702013886500,7.427886474609375,2.27852725982666,0.44852781295776367,-0.44226643443107605
1702059702030880300,7.44488037109375,2.1181752681732178,0.5505422949790955,-0.4086688458919525
1702059702047874600,7.46187451171875,1.9138407707214355,0.6394231915473938,-0.42271876335144043
1702059702064868600,7.47886865234375,1.7707456350326538,0.5919284224510193,-0.4550946056842804
1702059702081870300,7.495870361328125,1.7146987915039062,0.4495968222618103,-0.5016731023788452
1702059702098856700,7.512856689453125,1.695609211921692,0.3309362530708313,-0.5009095072746277
1702059702115836700,7.529836669921875,1.603826642036438,0.34315356612205505,-0.47708576917648315
1702059702132848000,7.54684814453125,1.4130840301513672,0.33017265796661377,-0.46211954951286316
1702059702149838800,7.5638388671875,1.197906732559204,0.26633724570274353,-0.45326200127601624
1702059702166833000,7.5808330078125,1.0250319242477417,0.1313360333442688,-0.42562034726142883
1702059702183827000,7.597826904296875,0.9082038998603821,-0.0019853119738399982,-0.36621370911598206
1702059702200821000,7.614821044921875,0.8168795704841614,0.004428773187100887,-0.29856038093566895
1702059702217815000,7.63181494140625,0.6863071322441101,0.0354301854968071,-0.2571742534637451
1702059702234809300,7.648809326171875,0.547182559967041,0.05253441259264946,-0.23548854887485504
1702059702251793000,7.66579296875,0.45326200127601624,0.046273041516542435,-0.2174680233001709
1702059702268797400,7.68279736328125,0.3900374472141266,0.021991148591041565,-0.182648703455925
1702059702285791500,7.69979150390625,0.3520110845565796,-0.0024434609804302454,-0.1443169116973877
1702059702302785500,7.71678564453125,0.3219259977340698,0.013439035043120384,-0.1033889427781105
1702059702319789600,7.73378955078125,0.2773328125476837,-0.002138028386980295,-0.08445212244987488
1702059702336771800,7.750771728515625,0.22540926933288574,-0.0027488935738801956,-0.07299839705228806
1702059702353769500,7.76776953125,0.18005253374576569,-0.00045814894838258624,-0.059406645596027374
1702059702370761700,7.78476171875,0.1485929638147354,-0.0024434609804302454,-0.037110064178705215
1702059702387756000,7.801756103515625,0.11698069423437119,-0.008399397134780884,-0.013133603148162365
1702059702404750000,7.81875,0.0858265683054924,-0.017562376335263252,-0.004581489134579897
1702059702421743900,7.835743896484375,0.059864792972803116,-0.027947084978222847,-0.01817324012517929
1702059702438738000,7.852738037109375,0.03848451003432274,-0.04948008432984352,-0.04230241850018501
1702059702455732000,7.86973193359375,0.021838432177901268,-0.03481931984424591,-0.03420845419168472
1702059702472726000,7.88672607421875,-0.004428773187100887,-0.04046982154250145,-0.014508049935102463
1702059702489728500,7.903728515625,-0.02672535367310047,-0.04688390716910362,-0.009162978269159794
1702059702506703600,7.92070361328125,-0.03039054572582245,-0.03787364438176155,-0.020922135561704636
1702059702523708200,7.937708251953125,-0.02122756652534008,-0.05054909735918045,-0.04092797264456749
1702059702540702500,7.954702392578125,-0.02076941914856434,-0.08796459436416626,-0.04902193695306778
1702059702557696500,7.971696533203125,-0.03390302136540413,-0.11713340878486633,-0.043218716979026794
1702059702574690600,7.988690673828125,-0.0529925599694252,-0.12171489745378494,-0.028405234217643738
1702059702591684600,8.0056845703125,-0.06627888232469559,-0.09407325088977814,-0.010079276748001575
1702059702608678700,8.0226787109375,-0.07528914511203766,-0.08750644326210022,0.0019853119738399982
1702059702625667300,8.039667236328125,-0.08261952549219131,-0.09804387390613556,0.005803219974040985
1702059702642666800,8.056666748046876,-0.0806342139840126,-0.11514809727668762,0.001679879380390048
1702059702659660800,8.073660888671874,-0.0685696229338646,-0.08689557760953903,-0.0019853119738399982
1702059702676654800,8.09065478515625,-0.07147123664617538,-0.0685696229338646,-0.012522737495601177
1702059702693649200,8.107649169921874,-0.09651670604944229,-0.060322944074869156,-0.011301007121801376
1702059702710637800,8.124637939453125,-0.13820825517177582,-0.08109235763549805,-0.006261368747800589
1702059702727637000,8.141636962890624,-0.18555031716823578,-0.09498954564332962,0.009468411095440388
1702059702744631600,8.158631591796874,-0.22327125072479248,-0.07498370856046677,0.03497203439474106
1702059702761624800,8.175624755859374,-0.26969701051712036,-0.06673702597618103,0.06444628536701202
1702059702778619100,8.192619140625,-0.347276896238327,-0.05971207842230797,0.07376197725534439
1702059702795613200,8.20961328125,-0.4834998548030853,-0.07254024595022202,0.052228979766368866
1702059702812607500,8.226607421875,-0.6667594313621521,-0.12400564551353455,0.03237585723400116
1702059702829601500,8.2436015625,-0.8463537693023682,-0.18020524084568024,0.045204028487205505
1702059702846595600,8.260595703125,-0.9909761548042297,-0.19593502581119537,0.08429940044879913
1702059702863589600,8.277589599609374,-1.123533844947815,-0.20463985204696655,0.11591167747974396
1702059702880583700,8.294583740234375,-1.2797627449035645,-0.19792033731937408,0.14340060949325562
1702059702897570300,8.3115703125,-1.4732542037963867,-0.1950187236070633,0.1736384481191635
1702059702914568700,8.328568603515626,-1.6843081712722778,-0.15363261103630066,0.22571471333503723
1702059702931568600,8.345568603515625,-1.8894062042236328,-0.14569136500358582,0.26893341541290283
1702059702948561400,8.3625615234375,-2.0610592365264893,-0.17837265133857727,0.28069257736206055
1702059702965552400,8.379552490234374,-2.188424825668335,-0.2382374405860901,0.27641651034355164
1702059702982548000,8.3965478515625,-2.294562578201294,-0.26633724570274353,0.3214678466320038
1702059702999544000,8.4135439453125,-2.383901596069336,-0.23747386038303375,0.4334088861942291
1702059703016538600,8.43053857421875,-2.4549148082733154,-0.18875735998153687,0.546571671962738
1702059703033530000,8.447530029296875,-2.515084981918335,-0.18997909128665924,0.6058256030082703
1702059703050524200,8.464524169921875,-2.5773932933807373,-0.3397938013076782,0.588874101638794
1702059703067518200,8.481518310546875,-2.6314547061920166,-0.4593706727027893,0.5650503635406494
1702059703084512300,8.49851220703125,-2.685974597930908,-0.4456261992454529,0.5687155723571777
1702059703101506300,8.51550634765625,-2.743701219558716,-0.37797287106513977,0.6029239892959595
1702059703118500600,8.53250048828125,-2.7907378673553467,-0.36621370911598206,0.6195700764656067
1702059703135494400,8.549494384765625,-2.81960129737854,-0.4155410826206207,0.5919284224510193
1702059703152488700,8.56648876953125,-2.8101327419281006,-0.4164573848247528,0.5656611919403076
1702059703169482800,8.583482666015625,-2.764165163040161,-0.3597996234893799,0.5505422949790955
1702059703186476800,8.600476806640625,-2.7065911293029785,-0.3113885521888733,0.5545129179954529
1702059703203470800,8.617470947265625,-2.644282817840576,-0.29626965522766113,0.5592471361160278
1702059703220454700,8.63445458984375,-2.584723472595215,-0.2945897579193115,0.5424483418464661
1702059703237459000,8.651458984375,-2.5386033058166504,-0.25274550914764404,0.5297728776931763
1702059703254453000,8.668452880859375,-2.5132522583007812,-0.12431107461452484,0.5340489149093628
1702059703271447000,8.685447021484375,-2.507601737976074,0.020463986322283745,0.5193881988525391
1702059703288440600,8.702440673828125,-2.4972171783447266,0.07192938029766083,0.47510045766830444
1702059703305447400,8.719447509765626,-2.4072673320770264,0.03130684420466423,0.4222606122493744
1702059703322429200,8.73642919921875,-2.2846360206604004,0.022602014243602753,0.4407392740249634
1702059703339423200,8.75342333984375,-2.157423257827759,0.018020525574684143,0.5120577812194824
1702059703356416500,8.77041650390625,-2.0778582096099854,-0.050243668258190155,0.5532912015914917
1702059703373412600,8.78741259765625,-2.041053533554077,-0.05619960278272629,0.547182559967041
1702059703390405400,8.8044052734375,-2.0056233406066895,-0.03375030308961868,0.49877145886421204
1702059703407397600,8.821397705078125,-1.93598473072052,-0.07284568250179291,0.4355469346046448
1702059703424395800,8.838395751953126,-1.8422168493270874,-0.11835514008998871,0.4075998365879059
1702059703441387800,8.8553876953125,-1.7753270864486694,-0.10323622822761536,0.4271475374698639
1702059703458381800,8.8723818359375,-1.780824899673462,-0.10522153973579407,0.4444044530391693
1702059703475375900,8.8893759765625,-1.8072447776794434,-0.12476922571659088,0.43829581141471863
1702059703492368400,8.906368408203125,-1.8043432235717773,-0.16019940376281738,0.3878994286060333
1702059703509365500,8.923365478515626,-1.7522670030593872,-0.2018909603357315,0.3240640163421631
1702059703526358000,8.94035791015625,-1.660942554473877,-0.30711251497268677,0.2616030275821686
1702059703543352000,8.95735205078125,-1.5661057233810425,-0.28955012559890747,0.24648413062095642
1702059703560346400,8.974346435546876,-1.5346461534500122,-0.1788308024406433,0.26404649019241333
1702059703577340200,8.991340087890626,-1.5480852127075195,-0.144622340798378,0.28787025809288025
1702059703594332200,9.008332275390625,-1.534035325050354,-0.16569720208644867,0.32131510972976685
1702059703611330300,9.025330322265624,-1.4877623319625854,-0.19853121042251587,0.35445454716682434
1702059703628324900,9.042324951171874,-1.4285084009170532,-0.25793784856796265,0.35124751925468445
1702059703645314000,9.05931396484375,-1.3738359212875366,-0.18509216606616974,0.32940909266471863
1702059703662310400,9.076310302734376,-1.3400856256484985,-0.13805554807186127,0.3017674386501312
1702059703679310800,9.093310791015625,-1.2912163734436035,-0.1869247704744339,0.2828305959701538
1702059703696298500,9.110298583984376,-1.2026410102844238,-0.23808473348617554,0.26374107599258423
1702059703713292500,9.12729248046875,-1.107040524482727,-0.20143280923366547,0.25931230187416077
1702059703730286600,9.14428662109375,-1.0590876340866089,-0.16630806028842926,0.251676470041275
1702059703747281000,9.161281005859376,-1.004873275756836,-0.1310305893421173,0.24342979490756989
1702059703764275000,9.17827490234375,-0.9425650835037231,-0.09147707372903824,0.2356412708759308
1702059703781269000,9.19526904296875,-0.8998045325279236,-0.07773260027170181,0.22999076545238495
1702059703798261800,9.21226171875,-0.8868235945701599,-0.06673702597618103,0.23090706765651703
1702059703815258400,9.22925830078125,-0.9104946255683899,-0.08857546001672745,0.2292271852493286
1702059703832262000,9.246261962890625,-0.9812023043632507,-0.1267545372247696,0.23228150606155396
1702059703849245200,9.2632451171875,-1.0462594032287598,-0.09773843735456467,0.23457226157188416
1702059703866237000,9.28023681640625,-1.0590876340866089,-0.047800205647945404,0.235030397772789
1702059703883235800,9.29723583984375,-1.000749945640564,0.001679879380390048,0.23686300218105316
1702059703900224800,9.314224853515626,-0.9068294763565063,0.0022907445672899485,0.22907446324825287
1702059703917224000,9.331223876953125,-0.8651378750801086,-0.022602014243602753,0.2203696370124817
1702059703934205000,9.348204833984376,-0.8642216324806213,-0.020005837082862854,0.23151792585849762
1702059703951209500,9.36520947265625,-0.8384125232696533,0.030237829312682152,0.23808473348617554
1702059703968203800,9.382203857421874,-0.7907650470733643,0.04459316283464432,0.2278527319431305
1702059703985197600,9.399197509765624,-0.7246388792991638,0.01878410577774048,0.2054034322500229
1702059704002192000,9.41619189453125,-0.6525567770004272,0.00809396430850029,0.18509216606616974
1702059704019185700,9.433185546875,-0.5963571667671204,-0.015118914656341076,0.18295414745807648
1702059704036179700,9.4501796875,-0.5737552046775818,-0.05451972410082817,0.17516560852527618
1702059704053174000,9.467174072265625,-0.5763513445854187,-0.05497787147760391,0.16783522069454193
1702059704070152200,9.484152099609375,-0.5861251950263977,-0.027183502912521362,0.1846340149641037
1702059704087162000,9.501162109375,-0.5850561857223511,-0.005955935921519995,0.21578814089298248
1702059704104145700,9.518145751953124,-0.531147301197052,0.029168816283345222,0.21242839097976685
1702059704121150200,9.535150146484375,-0.4573853611946106,0.030085112899541855,0.17241671681404114
1702059704138144300,9.552144287109375,-0.4098905920982361,-0.009010262787342072,0.13454307615756989
1702059704155138600,9.569138671875,-0.3897320330142975,-0.005497787147760391,0.11698069423437119
1702059704172132400,9.58613232421875,-0.3982841372489929,0.0354301854968071,0.1108720451593399
1702059704189126400,9.60312646484375,-0.41661009192466736,0.035582900047302246,0.0910189226269722
1702059704206120700,9.62012060546875,-0.4141666293144226,0.023518312722444534,0.07208210229873657
1702059704223116300,9.6371162109375,-0.37369680404663086,0.04337143152952194,0.07483099400997162
1702059704240100900,9.654100830078125,-0.3335324227809906,0.060475658625364304,0.09743300825357437
1702059704257102800,9.671102783203125,-0.28038713335990906,0.07651086896657944,0.10797043144702911
1702059704274096600,9.6880966796875,-0.22647829353809357,0.10506882518529892,0.08888089656829834
1702059704291081000,9.7050810546875,-0.192422553896904,0.11224649101495743,0.058184914290905
1702059704308085000,9.7220849609375,-0.17027868330478668,0.10125091671943665,0.04260785132646561
1702059704325079300,9.739079345703125,-0.15012013912200928,0.08827003091573715,0.04902193695306778
1702059704342072800,9.75607275390625,-0.12186761945486069,0.06673702597618103,0.055894169956445694
1702059704359067100,9.773067138671875,-0.07971791177988052,0.058795779943466187,0.052381694316864014
1702059704376061200,9.790061279296875,-0.03436116874217987,0.03741549700498581,0.03436116874217987
1702059704393055200,9.80705517578125,0.0019853119738399982,0.03726277872920036,0.020005837082862854
1702059704410049000,9.824049072265625,0.005345070734620094,0.007788531947880983,0.020311269909143448
1702059704427043600,9.841043701171875,-0.019394971430301666,-0.018936822190880775,0.03237585723400116
1702059704444035800,9.858035888671875,-0.039095375686883926,-0.005497787147760391,0.036193765699863434
1702059704461024000,9.87502392578125,-0.02367102913558483,0.009773843921720982,0.034666601568460464
1702059704478025500,9.892025390625,-0.00809396430850029,-0.0010690141934901476,0.03039054572582245
1702059704495019500,9.90901953125,-0.02580905705690384,-0.039095375686883926,0.035124752670526505
1702059704512013600,9.926013671875,-0.07635815441608429,-0.06505715101957321,0.05910121276974678
1702059704529007600,9.943007568359375,-0.1362229436635971,-0.06704246252775192,0.08307767659425735
1702059704546001400,9.96000146484375,-0.15851953625679016,-0.036651913076639175,0.0780380368232727
1702059704562996000,9.976995849609375,-0.1290452778339386,-0.011301007121801376,0.05421429127454758
1702059704579989800,9.99398974609375,-0.06062837690114975,-0.017562376335263252,0.03481931984424591
1702059704596984000,10.010984130859375,-0.012064588256180286,-0.0064140851609408855,0.027488935738801956
1702059704613977900,10.027977783203125,-0.01572977937757969,0.0025961773935705423,0.021532999351620674
1702059704630972200,10.04497216796875,-0.02321287989616394,-0.0007635815418325365,0.02122756652534008
1702059704647967700,10.0619677734375,-0.001679879380390048,-0.0025961773935705423,0.015118914656341076
1702059704664960300,10.078960205078126,0.04948008432984352,-0.01191187184303999,0.007177666760981083
1702059704681954000,10.0959541015625,0.09758572280406952,-0.004734205547720194,-0.0010690141934901476
1702059704698948000,10.112947998046875,0.10384709388017654,0.029626963660120964,-0.006261368747800589
1702059704715942400,10.1299423828125,0.06001751124858856,0.034666601568460464,-0.006261368747800589
1702059704732929500,10.146929443359374,-0.002138028386980295,0.024434609338641167,0.01542434748262167
1702059704749930200,10.16393017578125,-0.045204028487205505,0.00045814894838258624,0.029168816283345222
1702059704766924500,10.180924560546876,-0.058337632566690445,-0.02275473065674305,0.032070424407720566
1702059704783918600,10.197918701171876,-0.04856378585100174,-0.02076941914856434,0.026572637259960175
1702059704800912600,10.21491259765625,-0.020311269909143448,0.008857546374201775,0.019853120669722557
1702059704817906700,10.23190673828125,0.012064588256180286,0.02886338345706463,0.021991148591041565
1702059704834900700,10.248900634765626,0.04841107130050659,0.04902193695306778,0.027641652151942253
1702059704851893000,10.26589306640625,0.07208210229873657,0.044287730008363724,0.021838432177901268
1702059704868878300,10.28287841796875,0.08567385375499725,0.0025961773935705423,0.008246680721640587
1702059704885880300,10.29988037109375,0.11026117950677872,-0.04398229718208313,-0.0010690141934901476
1702059704902879700,10.316879638671875,0.1495092660188675,-0.04184427112340927,0.0003054326225537807
1702059704919875000,10.333875,0.2321287989616394,0.008399397134780884,-0.013439035043120384
1702059704936862700,10.35086279296875,0.31413745880126953,0.05849034711718559,-0.0607810914516449
1702059704953861600,10.367861572265625,0.3804163336753845,0.08750644326210022,-0.08857546001672745
1702059704970854000,10.38485400390625,0.3882048726081848,0.07925976812839508,-0.06551529467105865
1702059704987847400,10.401847412109374,0.3199406862258911,0.033597588539123535,-0.02168571576476097
1702059705004841200,10.41884130859375,0.24556782841682434,-0.009621127508580685,-0.008246680721640587
1702059705021835500,10.43583544921875,0.22021691501140594,0.019394971430301666,-0.017867809161543846
1702059705038829300,10.452829345703124,0.24465152621269226,0.04505131021142006,-0.039248090237379074
1702059705055823600,10.46982373046875,0.2788599729537964,0.043676864355802536,-0.04337143152952194
1702059705072817700,10.486817626953124,0.2993239760398865,0.020005837082862854,-0.03527746722102165
1702059705089811700,10.503811767578124,0.3211624026298523,0.017867809161543846,-0.012828170321881771
1702059705106795300,10.520795166015626,0.365755558013916,0.052839845418930054,0.002138028386980295
1702059705123803000,10.537802978515625,0.42149701714515686,0.08231408894062042,-0.004886921960860491
1702059705140790800,10.554790771484376,0.47311514616012573,0.0734565481543541,-0.041691552847623825
1702059705157788000,10.571787841796874,0.5375614166259766,0.06658431142568588,-0.08827003091573715
1702059705174782000,10.588781982421875,0.651029646396637,0.11209376901388168,-0.1391245573759079
1702059705191776000,10.60577587890625,0.8229882121086121,0.1560760736465454,-0.206777885556221
1702059705208770000,10.62277001953125,1.0059423446655273,0.16050484776496887,-0.27488934993743896
1702059705225764400,10.639764404296875,1.1475104093551636,0.12996158003807068,-0.327271044254303
1702059705242758100,10.656758056640625,1.229824423789978,0.1589776873588562,-0.33887749910354614
1702059705259752200,10.673752197265625,1.2712105512619019,0.235030397772789,-0.3271183371543884
1702059705276746200,10.690746337890625,1.2796099185943604,0.3384193480014801,-0.32971450686454773
1702059705293740300,10.707740234375,1.3544409275054932,0.4118759036064148,-0.35155296325683594
1702059705310734600,10.724734619140625,1.5054774284362793,0.3591887652873993,-0.4024074673652649
1702059705327728600,10.741728759765625,1.7878499031066895,0.33628132939338684,-0.455705463886261
1702059705344722700,10.75872265625,2.0946569442749023,0.36193767189979553,-0.5461135506629944
1702059705361723000,10.775722900390624,2.334116220474243,0.3358231782913208,-0.6597344875335693
1702059705378708000,10.7927080078125,2.5327999591827393,0.3419318199157715,-0.6728680729866028
1702059705395702800,10.809702880859374,2.654820442199707,0.35842517018318176,-0.6385068893432617
1702059705412705300,10.826705322265624,2.7853927612304688,0.4378376603126526,-0.6247624158859253
1702059705429693000,10.84369287109375,2.917797803878784,0.4940372705459595,-0.6995934247970581
1702059705446687000,10.86068701171875,2.9611692428588867,0.41630467772483826,-0.7938193678855896
1702059705463681000,10.877680908203125,2.9410107135772705,0.30772337317466736,-0.8529205918312073
1702059705480675000,10.894675048828125,2.961322069168091,0.31031954288482666,-0.884227454662323
1702059705497669000,10.911669189453125,3.017827033996582,0.38438695669174194,-0.9378308653831482
1702059705514663200,10.9286630859375,3.0666961669921875,0.37797287106513977,-1.0062477588653564
1702059705531646700,10.945646728515625,3.040276288986206,0.33017265796661377,-1.062294602394104
1702059705548651500,10.962651611328125,3.009122133255005,0.3646865487098694,-1.0816895961761475
1702059705565645000,10.97964501953125,3.051882743835449,0.4804455041885376,-1.095739483833313
1702059705582639400,10.996639404296875,3.1419854164123535,0.43020185828208923,-1.165683627128601
1702059705599633400,11.01363330078125,3.1415271759033203,0.11224649101495743,-1.2909109592437744
1702059705616627500,11.03062744140625,3.0547842979431152,-0.17256943881511688,-1.3478741645812988
1702059705633621500,11.04762158203125,2.9721648693084717,-0.1319468915462494,-1.2809844017028809
1702059705650615600,11.064615478515625,2.900540828704834,0.06459899991750717,-1.1969904899597168
1702059705667609600,11.081609619140625,2.8570168018341064,0.21991148591041565,-1.134834885597229
1702059705684603600,11.098603759765625,2.7898216247558594,0.10781771689653397,-1.0891727209091187
1702059705701597700,11.11559765625,2.718961238861084,-0.16890424489974976,-0.9944885969161987
1702059705718592000,11.132592041015625,2.71376895904541,-0.38087448477745056,-0.8498662710189819
1702059705735575600,11.149575439453125,2.7369816303253174,-0.31932979822158813,-0.6826419234275818
1702059705752577300,11.166577392578125,2.6447410583496094,-0.1270599663257599,-0.5117523670196533
1702059705769576400,11.183576416015624,2.596635341644287,0.2047925740480423,-0.38499781489372253
1702059705786579700,11.200579833984374,2.587777853012085,0.3121521472930908,-0.3462078869342804
1702059705803560700,11.217560791015625,2.6389379501342773,0.1875356286764145,-0.40454551577568054
1702059705820557800,11.234557861328126,2.724000930786133,0.038179077208042145,-0.493731826543808
1702059705837550300,11.25155029296875,2.699413537979126,0.09972374886274338,-0.5238169431686401
1702059705854544400,11.26854443359375,2.5305092334747314,0.23747386038303375,-0.5106833577156067
1702059705871538700,11.28553857421875,2.2284364700317383,0.31383201479911804,-0.451582133769989
1702059705888532500,11.302532470703126,1.9468275308609009,0.2379320114850998,-0.37079519033432007
1702059705905516300,11.319516357421875,1.7773123979568481,0.14966198801994324,-0.3013092875480652
1702059705922520600,11.3365205078125,1.763109803199768,0.15103642642498016,-0.24419337511062622
1702059705939514600,11.3535146484375,1.781130313873291,0.13515393435955048,-0.1892155110836029
1702059705956508700,11.3705087890625,1.6852245330810547,0.08827003091573715,-0.12446379661560059
1702059705973502700,11.387502685546876,1.4789047241210938,0.06429356336593628,-0.05955936014652252
1702059705990494200,11.404494140625,1.2350168228149414,0.11591167747974396,-0.02687807008624077
1702059706007494000,11.421493896484375,1.0613783597946167,0.15577064454555511,-0.04459316283464432
1702059706024484900,11.43848486328125,0.9812023043632507,0.1696678251028061,-0.07376197725534439
1702059706041479000,11.45547900390625,0.9511171579360962,0.16890424489974976,-0.09376781433820724
1702059706058456800,11.472456787109374,0.917672336101532,0.20341812074184418,-0.09651670604944229
1702059706075467000,11.489467041015626,0.8530732989311218,0.2915354371070862,-0.08811730891466141
1702059706092461300,11.50646142578125,0.7681630253791809,0.32986724376678467,-0.07330382615327835
1702059706109455400,11.523455322265624,0.6966918110847473,0.3271183371543884,-0.038179077208042145
1702059706126449200,11.54044921875,0.6097962260246277,0.2921462953090668,-0.012522737495601177
1702059706143443500,11.557443359375,0.5250386595726013,0.2583959996700287,-0.008399397134780884
1702059706160437500,11.5744375,0.4586070775985718,0.1846340149641037,-0.014813481830060482
1702059706177431300,11.591431396484374,0.4017966091632843,0.14905111491680145,-0.005650503560900688
1702059706194422000,11.608422119140625,0.32971450686454773,0.12538009881973267,0.0025961773935705423
1702059706211423000,11.625423095703125,0.2506074607372284,0.12003502249717712,0.01710422709584236
1702059706228413400,11.642413330078124,0.1892155110836029,0.09666942805051804,0.030237829312682152
1702059706245408000,11.659407958984374,0.14752395451068878,0.05421429127454758,0.03878994286060333
1702059706262402000,11.676402099609374,0.11652254313230515,-0.012828170321881771,0.024434609338641167
1702059706279395800,11.693395751953124,0.08796459436416626,-0.06872233748435974,-0.01114829070866108
1702059706296390000,11.710389892578124,0.04535674303770065,-0.09010262042284012,-0.04260785132646561
1702059706313384200,11.72738427734375,0.015118914656341076,-0.07681630551815033,-0.04764748737215996
1702059706330366500,11.744366455078126,-0.015118914656341076,-0.06291911751031876,-0.0328340083360672
1702059706347374000,11.7613740234375,-0.03726277872920036,-0.04841107130050659,-0.015577063895761967
1702059706364366300,11.778366455078125,-0.03940080851316452,-0.05910121276974678,-0.007177666760981083
1702059706381348600,11.7953486328125,-0.029626963660120964,-0.059406645596027374,-0.013286318629980087
1702059706398354200,11.812354248046875,-0.039095375686883926,-0.05100724846124649,-0.022907447069883347
1702059706415348200,11.82934814453125,-0.059864792972803116,-0.048716504126787186,-0.027947084978222847
1702059706432329700,11.846329833984376,-0.0633772686123848,-0.038637228310108185,-0.025656340643763542
1702059706449339000,11.8633388671875,-0.048258353024721146,-0.03878994286060333,-0.02168571576476097
1702059706466330600,11.88033056640625,-0.014508049935102463,-0.04382958263158798,-0.016493361443281174
1702059706483324400,11.897324462890625,0.0022907445672899485,-0.0455094613134861,-0.00427605677396059
1702059706500318700,11.914318603515625,-0.014355333521962166,-0.02977968007326126,0.010842857882380486
1702059706517312500,11.9313125,-0.043676864355802536,-0.02672535367310047,0.009926560334861279
1702059706534306600,11.948306640625,-0.06352998316287994,-0.020463986322283745,-0.0012217304902151227
1702059706551300900,11.96530078125,-0.0757472887635231,-0.021991148591041565,-0.020463986322283745
1702059706568295000,11.982294921875,-0.08888089656829834,-0.023976460099220276,-0.02626720629632473
1702059706585288700,11.999288818359375,-0.08857546001672745,-0.01114829070866108,-0.01710422709584236
1702059706602282800,12.01628271484375,-0.08139779418706894,-0.012675453908741474,0.002138028386980295
1702059706619277600,12.033277587890625,-0.07101308554410934,-0.03191770985722542,0.02474004216492176
1702059706636270300,12.050270263671875,-0.060933809727430344,-0.03451388701796532,0.03191770985722542
1702059706653247000,12.0672470703125,-0.04001167416572571,-0.02168571576476097,0.023365596309304237
1702059706670256400,12.08425634765625,-0.036651913076639175,-0.029168816283345222,0.014508049935102463
1702059706687255800,12.101255859375,-0.053297992795705795,-0.0429132841527462,0.0013744467869400978
1702059706704247300,12.118247314453125,-0.06933320313692093,-0.04642575979232788,-0.008399397134780884
1702059706721241300,12.135241455078125,-0.0754418596625328,-0.04734205827116966,-0.015577063895761967
1702059706738235600,12.152235595703125,-0.07024950534105301,-0.043218716979026794,-0.016493361443281174
1702059706755229400,12.1692294921875,-0.0685696229338646,0.00427605677396059,-0.0029016099870204926
1702059706772223500,12.186223388671875,-0.10018189996480942,0.020005837082862854,0.008704829961061478
1702059706789217500,12.203217529296875,-0.15454891324043274,0.001679879380390048,0.016493361443281174
1702059706806211800,12.2202119140625,-0.22403483092784882,-0.03848451003432274,0.023976460099220276
1702059706823189500,12.237189453125,-0.2929098904132843,-0.0809396430850029,0.03039054572582245
1702059706840199700,12.25419970703125,-0.35246923565864563,-0.08231408894062042,0.03878994286060333
1702059706857193700,12.27119384765625,-0.40256020426750183,-0.044745877385139465,0.05100724846124649
1702059706874181000,12.28818115234375,-0.4616613984107971,-0.0065668015740811825,0.08216137439012527
1702059706891182000,12.30518212890625,-0.5363397002220154,-0.004886921960860491,0.13545936346054077
1702059706908176100,12.322176025390625,-0.6363688707351685,-0.04046982154250145,0.1771509200334549
1702059706925181200,12.33918115234375,-0.759916365146637,-0.08643743395805359,0.20082195103168488
1702059706942164000,12.3561640625,-0.8967501521110535,-0.14126259088516235,0.20128010213375092
1702059706959158000,12.373157958984375,-1.0447323322296143,-0.16844609379768372,0.20357084274291992
1702059706976152000,12.390152099609375,-1.1917980909347534,-0.1927279829978943,0.2076941877603531
1702059706993146000,12.40714599609375,-1.3348932266235352,-0.1696678251028061,0.23854288458824158
1702059707010140400,12.424140380859376,-1.4770721197128296,-0.16752979159355164,0.2817615866661072
1702059707027134000,12.441134033203125,-1.6218472719192505,-0.2093740701675415,0.3214678466320038
1702059707044129000,12.45812890625,-1.7457001209259033,-0.251218318939209,0.3234531581401825
1702059707061122600,12.47512255859375,-1.849547266960144,-0.25732699036598206,0.3179553747177124
1702059707078116400,12.492116455078126,-1.9482020139694214,-0.26083946228027344,0.3113885521888733
1702059707095110400,12.5091103515625,-2.0592267513275146,-0.25213462114334106,0.3384193480014801
1702059707112104700,12.526104736328126,-2.189035654067993,-0.26603180170059204,0.3975205719470978
1702059707129098800,12.5430986328125,-2.300823926925659,-0.26939156651496887,0.4450153410434723
1702059707146092800,12.5600927734375,-2.3817636966705322,-0.32421672344207764,0.4392121136188507
1702059707163086800,12.5770869140625,-2.45674729347229,-0.3891211748123169,0.41630467772483826
1702059707180081000,12.594080810546876,-2.537534236907959,-0.45631635189056396,0.43249258399009705
1702059707197064400,12.611064453125,-2.5998425483703613,-0.4544837474822998,0.5079344511032104
1702059707214069000,12.628069091796876,-2.671160936355591,-0.3741549551486969,0.6102544069290161
1702059707231063000,12.64506298828125,-2.730414867401123,-0.31551191210746765,0.6884451508522034
1702059707248051000,12.662051025390625,-2.749504566192627,-0.30543261766433716,0.7309002876281738
1702059707265051100,12.679051025390624,-2.7072019577026367,-0.32330042123794556,0.7438811659812927
1702059707282045200,12.696045166015624,-2.615114212036133,-0.3254384696483612,0.7449501752853394
1702059707299039000,12.7130390625,-2.571284532546997,-0.28985556960105896,0.718224823474884
1702059707316033300,12.730033203125,-2.5466971397399902,-0.19608774781227112,0.6959282159805298
1702059707333016800,12.747016845703126,-2.5674667358398438,-0.0858265683054924,0.7055493593215942
1702059707350021400,12.764021484375,-2.58762526512146,-0.07651086896657944,0.7484626173973083
1702059707367015400,12.781015380859374,-2.551584243774414,-0.16722436249256134,0.7799221873283386
1702059707384009500,12.798009521484374,-2.462397813796997,-0.21930062770843506,0.7615962624549866
1702059707400990700,12.81499072265625,-2.3631322383880615,-0.2064724564552307,0.6753115057945251
1702059707417993700,12.83199365234375,-2.266157388687134,-0.16019940376281738,0.574976921081543
1702059707434991600,12.84899169921875,-2.147191286087036,-0.08750644326210022,0.5093088746070862
1702059707451985700,12.865985595703124,-2.037999153137207,-0.026114489883184433,0.4889976382255554
1702059707468969200,12.88296923828125,-1.9538525342941284,-0.043676864355802536,0.4934264123439789
1702059707485972200,12.89997216796875,-1.88864266872406,-0.10170906037092209,0.4873177409172058
1702059707502969300,12.91696923828125,-1.8434386253356934,-0.11209376901388168,0.4795292317867279
1702059707519961900,12.9339619140625,-1.8138116598129272,-0.07238753139972687,0.4560109078884125
1702059707536956000,12.950955810546875,-1.7901406288146973,-0.03527746722102165,0.41523563861846924
1702059707553954600,12.96795458984375,-1.75303053855896,-0.03420845419168472,0.38728857040405273
1702059707570944000,12.984944091796875,-1.6768250465393066,-0.05513058975338936,0.37171149253845215
1702059707587938000,13.00193798828125,-1.5862643718719482,-0.11194105446338654,0.3433062732219696
1702059707604932000,13.01893212890625,-1.532508134841919,-0.18524488806724548,0.30925053358078003
1702059707621926100,13.035926025390625,-1.4989105463027954,-0.23808473348617554,0.2945897579193115
1702059707638920400,13.05292041015625,-1.5167783498764038,-0.18417587876319885,0.3254384696483612
1702059707655914500,13.06991455078125,-1.5752687454223633,-0.11759155988693237,0.37720927596092224
1702059707672908300,13.086908203125,-1.616349458694458,-0.10537425428628922,0.40943244099617004
1702059707689902600,13.103902587890625,-1.5722143650054932,-0.16844609379768372,0.38698312640190125
1702059707706894600,13.12089453125,-1.4741705656051636,-0.24373523890972137,0.3205515444278717
1702059707723892500,13.137892578125,-1.3628404140472412,-0.21639901399612427,0.27779096364974976
1702059707740884500,13.154884521484375,-1.3019065856933594,-0.18249599635601044,0.2883284091949463
1702059707757878800,13.171878662109375,-1.2738068103790283,-0.12202033400535583,0.346818745136261
1702059707774872600,13.18887255859375,-1.2849550247192383,-0.11362093687057495,0.38667771220207214
1702059707791864300,13.2058642578125,-1.3072515726089478,-0.11545353382825851,0.417679101228714
1702059707808863700,13.22286376953125,-1.2997685670852661,-0.11682797968387604,0.41599923372268677
1702059707825855000,13.23985498046875,-1.2663236856460571,-0.12736541032791138,0.3995058834552765
1702059707842849000,13.25684912109375,-1.190423607826233,-0.09178250283002853,0.37720927596092224
1702059707859843000,13.273843017578125,-1.1062769889831543,-0.06673702597618103,0.3617849349975586
1702059707876837000,13.290837158203125,-1.0267117023468018,-0.06368270516395569,0.33689218759536743
1702059707893831200,13.3078310546875,-0.9863946437835693,-0.01114829070866108,0.30375275015830994
1702059707910825200,13.3248251953125,-0.9747881889343262,0.004886921960860491,0.27229318022727966
1702059707927819300,13.3418193359375,-0.9854783415794373,0.0003054326225537807,0.2617557644844055
1702059707944813300,13.358813232421875,-1.0016663074493408,0.010231993161141872,0.2577851414680481
1702059707961807400,13.375807373046875,-0.988990843296051,0.010690141469240189,0.2603813111782074
1702059707978784500,13.392784423828125,-0.9608910083770752,-0.017409659922122955,0.251676470041275
1702059707995795500,13.40979541015625,-0.9140071272850037,0.012064588256180286,0.23945917189121246
1702059708012789500,13.42678955078125,-0.8987354636192322,0.01572977937757969,0.22250767052173615
1702059708029784800,13.443784912109376,-0.9069821834564209,0.005650503560900688,0.2295326143503189
1702059708046776600,13.460776611328125,-0.9132435321807861,-0.013439035043120384,0.2675589919090271
1702059708063772000,13.47777197265625,-0.8947648406028748,0.005650503560900688,0.28557950258255005
1702059708080764200,13.49476416015625,-0.8494081497192383,0.0354301854968071,0.26481008529663086
1702059708097761300,13.51176123046875,-0.7976372838020325,0.027488935738801956,0.22372940182685852
1702059708114753800,13.52875390625,-0.7431175708770752,-0.0039706239476799965,0.1869247704744339
1702059708131745300,13.545745361328125,-0.6800457239151001,-0.05910121276974678,0.15363261103630066
1702059708148744400,13.562744384765624,-0.6206390857696533,-0.1137736514210701,0.12400564551353455
1702059708165730000,13.57972998046875,-0.5820018649101257,-0.13729196786880493,0.11423180252313614
1702059708182726100,13.59672607421875,-0.5503895878791809,-0.05757404863834381,0.13225232064723969
1702059708199726600,13.6137265625,-0.5146539807319641,0.027030786499381065,0.13759739696979523
1702059708216718000,13.630718017578126,-0.4743368625640869,0.011759156361222267,0.1359175145626068
1702059708233712000,13.647712158203126,-0.43829581141471863,-0.06123924255371094,0.11957687139511108
1702059708250706400,13.66470654296875,-0.4054618179798126,-0.05375614017248154,0.10384709388017654
1702059708267700200,13.6817001953125,-0.36392298340797424,-0.03726277872920036,0.08017606288194656
1702059708284694300,13.6986943359375,-0.31291571259498596,-0.01237002108246088,0.07238753139972687
1702059708301688600,13.7156884765625,-0.2721404731273651,-0.019853120669722557,0.06475171446800232
1702059708318682600,13.7326826171875,-0.25045475363731384,-0.02886338345706463,0.06582073122262955
1702059708335683300,13.749683349609375,-0.23594669997692108,-0.04886921867728233,0.06215553730726242
1702059708352673300,13.76667333984375,-0.21471913158893585,-0.07208210229873657,0.04948008432984352
1702059708369664800,13.783664794921876,-0.17852537333965302,-0.04688390716910362,0.020922135561704636
1702059708386644700,13.800644775390625,-0.1212567538022995,-0.013591751456260681,0.005345070734620094
1702059708403650300,13.817650390625,-0.10552696883678436,-0.0009162978967651725,0.01710422709584236
1702059708420649500,13.8346494140625,-0.13301590085029602,0.0019853119738399982,0.03894266113638878
1702059708437630500,13.85163037109375,-0.1621847152709961,0.005192354787141085,0.04734205827116966
1702059708454635000,13.868635009765624,-0.17043140530586243,0.007788531947880983,0.04184427112340927
1702059708471629000,13.885629150390624,-0.1696678251028061,-0.0006108652451075613,0.028557950630784035
1702059708488623000,13.902623046875,-0.154396191239357,0.005039638374000788,0.02122756652534008
1702059708505607000,13.91960693359375,-0.15515977144241333,-0.004123340360820293,0.03985895588994026
1702059708522611200,13.936611083984374,-0.18448130786418915,-0.02733621932566166,0.060933809727430344
1702059708539605200,13.953605224609374,-0.18814650177955627,0.0027488935738801956,0.06276640295982361
1702059708556591900,13.970591796875,-0.13668109476566315,0.020463986322283745,0.04108068719506264
1702059708573587700,13.987587646484375,-0.07757988572120667,-0.01237002108246088,0.010231993161141872
1702059708590589700,14.004589599609375,-0.014049900695681572,-0.048105638474226,-0.004886921960860491
1702059708607594000,14.021593994140625,0.015271631069481373,-0.07238753139972687,0.003512475173920393
1702059708624573000,14.038572998046876,0.004581489134579897,-0.06551529467105865,0.021380282938480377
1702059708641572000,14.055572021484375,-0.030543262138962746,-0.0503963828086853,0.042760565876960754
1702059708658563600,14.0725634765625,-0.06276640295982361,-0.03039054572582245,0.04306599870324135
1702059708675557600,14.0895576171875,-0.06062837690114975,-0.005955935921519995,0.03191770985722542
1702059708692551700,14.1065517578125,-0.058795779943466187,0.014049900695681572,0.032681290060281754
1702059708709545700,14.123545654296874,-0.07040221989154816,-0.002138028386980295,0.044135015457868576
1702059708726529300,14.140529296875,-0.09086620807647705,-0.014508049935102463,0.043218716979026794
1702059708743533800,14.157533935546875,-0.11499538272619247,-0.011453723534941673,0.016951510682702065
1702059708760528100,14.174528076171875,-0.144622340798378,-0.0013744467869400978,-0.00427605677396059
1702059708777519600,14.19151953125,-0.13454307615756989,-0.003359758760780096,-0.0022907445672899485
1702059708794513700,14.208513671875,-0.06979135423898697,-0.022907447069883347,0.0027488935738801956
1702059708811512600,14.2255126953125,-0.02535090781748295,-0.03649919852614403,-0.01038470957428217
1702059708828485600,14.242485595703124,0.014813481830060482,-0.006261368747800589,-0.020311269909143448
1702059708845495600,14.25949560546875,0.042760565876960754,0.03237585723400116,-0.012217304669320583
1702059708862495000,14.276494873046875,0.042760565876960754,0.039095375686883926,-0.001679879380390048
1702059708879486200,14.293486328125,0.02519819140434265,0.01038470957428217,-0.0003054326225537807
1702059708896480300,14.310480224609375,0.0065668015740811825,-0.01114829070866108,-0.017409659922122955
1702059708913474300,14.327474365234375,0.02015855349600315,0.00855211354792118,-0.04459316283464432
1702059708930468400,14.34446826171875,0.05100724846124649,0.05772676691412926,-0.06780604273080826
1702059708947459800,14.3614599609375,0.04260785132646561,0.06627888232469559,-0.08414668589830399
1702059708964459300,14.378459228515625,0.022602014243602753,0.047189339995384216,-0.09636399149894714
1702059708981450500,14.395450439453125,0.024587325751781464,0.05619960278272629,-0.09208793938159943
1702059708998442800,14.41244287109375,0.05726861581206322,0.04046982154250145,-0.07696902006864548
1702059709015438600,14.4294384765625,0.11224649101495743,0.01771509274840355,-0.0682641938328743
1702059709032432600,14.4464326171875,0.1791362315416336,0.0039706239476799965,-0.07147123664617538
1702059709049426200,14.46342626953125,0.24862214922904968,0.02779436856508255,-0.07299839705228806
1702059709066421000,14.4804208984375,0.3039054572582245,0.06185010448098183,-0.07131851464509964
1702059709083415000,14.4974150390625,0.3364340364933014,0.05849034711718559,-0.0806342139840126
1702059709100398600,14.514398681640625,0.3689626157283783,0.040622539818286896,-0.10231992602348328
1702059709117403100,14.531403076171875,0.4356996417045593,0.021074850112199783,-0.1189660057425499
1702059709134397200,14.548397216796875,0.5592471361160278,-0.005650503560900688,-0.13698652386665344
1702059709151391200,14.56539111328125,0.7382306456565857,-0.012980886735022068,-0.14996741712093353
1702059709168385300,14.58238525390625,0.9086620807647705,0.013439035043120384,-0.13545936346054077
1702059709185379300,14.59937939453125,1.0155634880065918,0.009468411095440388,-0.12538009881973267
1702059709202375200,14.616375244140626,1.060614824295044,0.017409659922122955,-0.1459967941045761
1702059709219363000,14.633363037109374,1.1239920854568481,0.024434609338641167,-0.18341228365898132
1702059709236364000,14.650364013671876,1.2136365175247192,-0.003817907767370343,-0.23640485107898712
1702059709253351700,14.6673515625,1.3180944919586182,0.01817324012517929,-0.30573806166648865
1702059709270353400,14.684353515625,1.497994303703308,0.14324790239334106,-0.35521814227104187
1702059709287343600,14.701343505859375,1.7035504579544067,0.28649580478668213,-0.34956762194633484
1702059709304324900,14.718324951171875,1.905441403388977,0.31184670329093933,-0.3494149148464203
1702059709321331700,14.735331787109375,2.0560197830200195,0.2496911734342575,-0.4329507350921631
1702059709338323200,14.7523232421875,2.1933116912841797,0.23900102078914642,-0.5658139586448669
1702059709355322400,14.769322265625,2.3327417373657227,0.256868839263916,-0.674089789390564
1702059709372313900,14.78631396484375,2.5189027786254883,0.18875735998153687,-0.7391469478607178
1702059709389308000,14.803307861328125,2.6981918811798096,0.09498954564332962,-0.7296785116195679
1702059709406302000,14.820302001953126,2.880535125732422,0.10613783448934555,-0.7021896243095398
1702059709423293400,14.83729345703125,3.071277618408203,0.25366178154945374,-0.7211264371871948
1702059709440292600,14.854292724609374,3.2311716079711914,0.4092797040939331,-0.783892810344696
1702059709457284000,14.8712841796875,3.3040173053741455,0.33857205510139465,-0.8239045143127441
1702059709474267600,14.888267578125,3.3284521102905273,0.1996002197265625,-0.8217664957046509
1702059709491265000,14.90526513671875,3.4150421619415283,0.22113321721553802,-0.8487972617149353
1702059709508263700,14.922263671875,3.570812702178955,0.3228422701358795,-0.99250328540802
1702059709525262800,14.939262939453124,3.6502251625061035,0.361174076795578,-1.2037099599838257
1702059709542254300,14.95625439453125,3.690084218978882,0.2837468981742859,-1.3487904071807861
1702059709559248400,14.973248291015626,3.7163515090942383,0.25641068816185,-1.4110987186431885
1702059709576242700,14.99024267578125,3.779728651046753,0.19120082259178162,-1.4926491975784302
1702059709593239800,15.00723974609375,3.7727036476135254,0.14233160018920898,-1.588555097579956
1702059709610227200,15.024227294921875,3.6164748668670654,0.16493362188339233,-1.577254056930542
1702059709627224600,15.041224609375,3.469561815261841,0.22418753802776337,-1.4341589212417603
1702059709644218600,15.058218505859376,3.3881640434265137,0.12996158003807068,-1.2525792121887207
1702059709661202700,15.07520263671875,3.333338975906372,-0.11514809727668762,-1.1493430137634277
1702059709678207000,15.09220703125,3.234989643096924,-0.3228422701358795,-1.1612548828125
1702059709695200800,15.10920068359375,3.170848846435547,-0.22113321721553802,-1.1691961288452148
1702059709712194800,15.12619482421875,3.1638238430023193,0.06261368840932846,-1.1166616678237915
1702059709729186300,15.143186279296875,3.2058207988739014,0.25992316007614136,-1.018923282623291
1702059709746185700,15.160185791015625,3.176651954650879,0.14706580340862274,-0.9433286786079407
1702059709763177000,15.177177001953124,3.073721170425415,-0.14844025671482086,-0.9682214260101318
1702059709780171000,15.1941708984375,3.056922435760498,-0.2275473028421402,-0.9963212013244629
1702059709797165000,15.2111650390625,3.0923526287078857,-0.06215553730726242,-0.9970847964286804
1702059709814159000,15.2281591796875,3.082120656967163,0.1443169116973877,-0.9210320711135864
1702059709831153200,15.245153076171874,2.984382152557373,0.15317445993423462,-0.794277548789978
1702059709848147200,15.262147216796874,2.7656924724578857,-0.00855211354792118,-0.6998988389968872
1702059709865141500,15.2791416015625,2.5329527854919434,-0.1333213448524475,-0.575893223285675
1702059709882135300,15.29613525390625,2.308154344558716,-0.10461067408323288,-0.4634940028190613
1702059709899129300,15.31312939453125,2.1673498153686523,0.11850785464048386,-0.3604104816913605
1702059709916123400,15.330123291015624,2.1293234825134277,0.22999076545238495,-0.3240640163421631
1702059709933117700,15.34711767578125,2.0700695514678955,0.08979719132184982,-0.33047810196876526
1702059709950111500,15.364111572265625,1.9245309829711914,-0.04214970022439957,-0.31581732630729675
1702059709967103000,15.38110302734375,1.8014415502548218,-0.03039054572582245,-0.29184088110923767
1702059709984102700,15.3981025390625,1.6461291313171387,-0.030543262138962746,-0.20815233886241913
1702059710001094700,15.4150947265625,1.4720325469970703,0.001679879380390048,-0.13118331134319305
1702059710018087200,15.432087158203124,1.301142930984497,0.056810468435287476,-0.08979719132184982
1702059710035082000,15.44908203125,1.1511754989624023,0.07299839705228806,-0.09941831976175308
1702059710052075800,15.46607568359375,0.9877691268920898,0.0007635815418325365,-0.1492038369178772
1702059710069068300,15.483068359375,0.8370380997657776,-0.09865473955869675,-0.2116648107767105
1702059710086066000,15.50006591796875,0.7296785116195679,-0.06383541971445084,-0.22220222651958466
1702059710103058400,15.517058349609375,0.5844452977180481,0.021838432177901268,-0.17547103762626648
1702059710120049400,15.53404931640625,0.43936482071876526,0.07040221989154816,-0.0913243517279625
1702059710137049000,15.551049072265625,0.3194825351238251,0.06612616032361984,-0.02275473065674305
1702059710154029800,15.56802978515625,0.23029619455337524,0.04398229718208313,0.046731192618608475
1702059710171034400,15.585034423828125,0.19608774781227112,0.03329215571284294,0.08536841720342636
1702059710188028400,15.6020283203125,0.18448130786418915,0.02428189292550087,0.09636399149894714
1702059710205022700,15.619022705078125,0.15546520054340363,0.0027488935738801956,0.08720101416110992
1702059710222016500,15.6360166015625,0.10201449692249298,-0.009162978269159794,0.09025534242391586
1702059710239010600,15.653010498046875,0.048716504126787186,0.01924225501716137,0.1238529309630394
1702059710256004600,15.670004638671875,-0.005039638374000788,0.03222314268350601,0.164170041680336
1702059710272998700,15.68699853515625,-0.04505131021142006,0.06291911751031876,0.19914206862449646
1702059710289992700,15.70399267578125,-0.058948494493961334,0.05757404863834381,0.20341812074184418
1702059710306986500,15.720986572265625,-0.05726861581206322,0.036041051149368286,0.17959438264369965
1702059710323981300,15.737981201171875,-0.07009678333997726,-0.0039706239476799965,0.14049901068210602
1702059710340974800,15.754974853515625,-0.11285735666751862,-0.009010262787342072,0.11224649101495743
1702059710357969000,15.771968994140625,-0.1615738570690155,0.02535090781748295,0.11270463466644287
1702059710374961400,15.78896142578125,-0.19364428520202637,0.05268712714314461,0.13118331134319305
1702059710391957200,15.805957275390625,-0.21410827338695526,0.05726861581206322,0.1485929638147354
1702059710408951300,15.822951416015625,-0.21441370248794556,0.054367005825042725,0.14355333149433136
1702059710425942300,15.8399423828125,-0.21441370248794556,0.05100724846124649,0.11682797968387604
1702059710442939100,15.856939208984375,-0.22449298202991486,0.04459316283464432,0.09407325088977814
1702059710459933200,15.87393310546875,-0.22617286443710327,0.04108068719506264,0.08918632566928864
1702059710476927200,15.89092724609375,-0.22632557153701782,0.05345070734620094,0.10201449692249298
1702059710493921500,15.907921630859375,-0.23900102078914642,0.05100724846124649,0.10567969083786011
1702059710510914800,15.924914794921875,-0.26221391558647156,0.039095375686883926,0.10583240538835526
1702059710527910100,15.94191015625,-0.28695395588874817,0.04856378585100174,0.10293079167604446
1702059710544903400,15.9589033203125,-0.30772337317466736,0.06765332818031311,0.09789115190505981
1702059710561899000,15.97589892578125,-0.33139440417289734,0.07101308554410934,0.1014036312699318
1702059710578890200,15.99289013671875,-0.3700316250324249,0.04902193695306778,0.11667526513338089
1702059710595872500,16.00987255859375,-0.3985895812511444,0.03848451003432274,0.14324790239334106
1702059710612882700,16.026882568359376,-0.41233405470848083,0.017562376335263252,0.16890424489974976
1702059710629873700,16.043873779296874,-0.44028112292289734,-0.00427605677396059,0.19532416760921478
1702059710646867700,16.06086767578125,-0.47739118337631226,-0.014813481830060482,0.21013765037059784
1702059710663861800,16.07786181640625,-0.5105306506156921,-0.00855211354792118,0.20204368233680725
1702059710680856000,16.09485595703125,-0.5335907936096191,-0.03573561832308769,0.17806722223758698
1702059710697849900,16.111849853515626,-0.5690209865570068,-0.0780380368232727,0.16203200817108154
1702059710714845000,16.128844970703124,-0.6383541822433472,-0.05803219974040985,0.1765400618314743
1702059710731837000,16.1458369140625,-0.7101308703422546,0.021074850112199783,0.20234911143779755
1702059710748832300,16.162832275390624,-0.7600690722465515,0.05192354694008827,0.20402899384498596
1702059710765822000,16.179822021484377,-0.7695375084877014,0.002138028386980295,0.1771509200334549
1702059710782817300,16.1968173828125,-0.7812966704368591,-0.0731511116027832,0.13484850525856018
1702059710799817200,16.213817138671875,-0.8275696635246277,-0.1111774742603302,0.10430523753166199
1702059710816808200,16.23080810546875,-0.9135489463806152,-0.0959058403968811,0.09896016865968704
1702059710833802500,16.247802490234374,-1.0299187898635864,-0.06627888232469559,0.11743884533643723
1702059710850796500,16.264796630859376,-1.136362075805664,-0.029474247246980667,0.1612684279680252
1702059710867790600,16.28179052734375,-1.2189816236495972,-0.08857546001672745,0.19578230381011963
1702059710884784600,16.29878466796875,-1.3025174140930176,-0.16325373947620392,0.21303924918174744
1702059710901778400,16.3157783203125,-1.4049900770187378,-0.17989981174468994,0.25106561183929443
1702059710918773000,16.33277294921875,-1.4772248268127441,-0.15332718193531036,0.30695977807044983
1702059710935766800,16.349766845703126,-1.538464069366455,-0.1518000066280365,0.35292738676071167
1702059710952760600,16.366760498046876,-1.6519323587417603,-0.21319197118282318,0.37461310625076294
1702059710969755000,16.3837548828125,-1.7967073917388916,-0.2981022298336029,0.37629300355911255
1702059710986749000,16.4007490234375,-1.9281961917877197,-0.26145032048225403,0.40256020426750183
1702059711003742700,16.41774267578125,-1.9828685522079468,-0.16523905098438263,0.4651738703250885
1702059711020736800,16.43473681640625,-1.9978348016738892,-0.10995574295520782,0.5180137157440186
1702059711037726200,16.451726318359373,-2.0528125762939453,-0.13057245314121246,0.5473352670669556
1702059711054725000,16.46872509765625,-2.1306979656219482,-0.20799961686134338,0.5551238059997559
1702059711071719000,16.485718994140626,-2.211026668548584,-0.23915374279022217,0.554818332195282
1702059711088713200,16.502713134765624,-2.289828300476074,-0.17333301901817322,0.5636758804321289
1702059711105697000,16.519697021484376,-2.34480619430542,-0.13118331134319305,0.5871942043304443
1702059711122701300,16.536701416015624,-2.3606886863708496,-0.14645494520664215,0.5923865437507629
1702059711139695400,16.5536953125,-2.3293819427490234,-0.21731531620025635,0.5821545720100403
1702059711156689400,16.570689453125,-2.267226457595825,-0.2347249686717987,0.5829181671142578
1702059711173683500,16.587683349609375,-2.2262983322143555,-0.20570887625217438,0.6018549799919128
1702059711190675000,16.604675048828124,-2.194075345993042,-0.2076941877603531,0.6188064813613892
1702059711207674000,16.621674072265623,-2.1488711833953857,-0.20265454053878784,0.6195700764656067
1702059711224665600,16.63866552734375,-2.096794843673706,-0.18387043476104736,0.6117815375328064
1702059711241657000,16.655656982421874,-2.0563251972198486,-0.19379699230194092,0.6212499737739563
1702059711258656300,16.67265625,-1.9926424026489258,-0.23686300218105316,0.6186537742614746
1702059711275643600,16.6896435546875,-1.9144517183303833,-0.24846944212913513,0.5870414972305298
1702059711292641800,16.706641845703125,-1.868789553642273,-0.23548854887485504,0.5100724697113037
1702059711309636000,16.723635986328127,-1.8474092483520508,-0.21074850857257843,0.44226643443107605
1702059711326630000,16.7406298828125,-1.834122896194458,-0.18188512325286865,0.43218716979026794
1702059711343624000,16.7576240234375,-1.8544341325759888,-0.20402899384498596,0.4538728892803192
1702059711360618000,16.774617919921877,-1.8813122510910034,-0.2028072625398636,0.46593746542930603
1702059711377612000,16.791612060546875,-1.886810064315796,-0.14355333149433136,0.45692721009254456
1702059711394606000,16.808606201171877,-1.8680258989334106,-0.09208793938159943,0.4334088861942291
1702059711411600100,16.82560009765625,-1.819003939628601,-0.12507465481758118,0.41523563861846924
1702059711428594200,16.84259423828125,-1.7566957473754883,-0.2047925740480423,0.3911064863204956
1702059711445588200,16.859588134765627,-1.7033977508544922,-0.24373523890972137,0.3543018400669098
1702059711462582300,16.876582275390625,-1.6881260871887207,-0.24174992740154266,0.32910364866256714
1702059711479576300,16.893576416015627,-1.7205020189285278,-0.19288070499897003,0.31001409888267517
1702059711496570400,16.9105703125,-1.7624989748001099,-0.1895209401845932,0.2727513313293457
1702059711513564400,16.927564453125,-1.7230981588363647,-0.2356412708759308,0.21807889640331268
1702059711530558500,16.944558349609373,-1.5485434532165527,-0.2929098904132843,0.18112154304981232
1702059711547552500,16.961552490234375,-1.3978123664855957,-0.318566232919693,0.18616119027137756
1702059711564546600,16.978546630859373,-1.3878858089447021,-0.3341432809829712,0.20143280923366547
1702059711581540600,16.99554052734375,-1.4828753471374512,-0.32330042123794556,0.21868975460529327
1702059711598534700,17.01253466796875,-1.5853480100631714,-0.2974913716316223,0.2203696370124817
1702059711615518200,17.029518310546877,-1.6516269445419312,-0.2565633952617645,0.19608774781227112
1702059711632522800,17.046522705078125,-1.6380351781845093,-0.23655757308006287,0.17088955640792847
1702059711649516800,17.063516845703123,-1.5427402257919312,-0.20082195103168488,0.17867808043956757
1702059711666510800,17.0805107421875,-1.4978415966033936,-0.23594669997692108,0.1950187236070633
1702059711683503400,17.09750341796875,-1.4799737930297852,-0.2701551616191864,0.22189679741859436
1702059711700500700,17.114500732421874,-1.5108224153518677,-0.266642689704895,0.25503623485565186
1702059711717493200,17.1314931640625,-1.5431983470916748,-0.24572055041790009,0.2762638032436371
1702059711734487000,17.148487060546874,-1.5537357330322266,-0.24190263450145721,0.25854870676994324
1702059711751481000,17.165481201171875,-1.5431983470916748,-0.22968533635139465,0.21838432550430298
1702059711768475100,17.18247509765625,-1.5028811693191528,-0.20112738013267517,0.20005837082862854
1702059711785469200,17.19946923828125,-1.4808900356292725,-0.18325957655906677,0.20295998454093933
1702059711802463200,17.216463134765625,-1.47844660282135,-0.21670444309711456,0.2093740701675415
1702059711819457000,17.23345703125,-1.4453071355819702,-0.2477058619260788,0.21120665967464447
1702059711836450600,17.250450439453125,-1.3698652982711792,-0.19914206862449646,0.20357084274291992
1702059711853447400,17.267447509765624,-1.2823588848114014,-0.13255776464939117,0.2122756689786911
1702059711870437600,17.284437744140625,-1.2067643404006958,-0.12064588814973831,0.23808473348617554
1702059711887433500,17.30143359375,-1.1734721660614014,-0.1713477075099945,0.2541199326515198
1702059711904417300,17.318417236328123,-1.17240309715271,-0.2402227520942688,0.24404066801071167
1702059711921421800,17.335421875,-1.1580477952957153,-0.2002110779285431,0.21792617440223694
1702059711938415600,17.35241552734375,-1.1084150075912476,-0.0685696229338646,0.1693623960018158
1702059711955409700,17.36940966796875,-1.0471757650375366,0.04153883829712868,0.12079860270023346
1702059711972403700,17.38640380859375,-1.0157161951065063,0.03191770985722542,0.09453139454126358
1702059711989397800,17.403397705078124,-0.9863946437835693,-0.020005837082862854,0.1062905490398407
1702059712006391800,17.420391845703126,-0.9515753388404846,-0.06398813426494598,0.11071932315826416
1702059712023386000,17.43738623046875,-0.8758280277252197,-0.08338310569524765,0.09697485715150833
1702059712040375600,17.45437548828125,-0.778853178024292,0.0032070425804704428,0.06017022579908371
1702059712057382400,17.47138232421875,-0.7017314434051514,0.04917465150356293,0.0403171069920063
1702059712074368300,17.4883681640625,-0.6444628238677979,0.05406157299876213,0.04444044828414917
1702059712091362000,17.505362060546876,-0.6113234162330627,0.00855211354792118,0.04917465150356293
1702059712108356400,17.5223564453125,-0.6061310172080994,-0.07773260027170181,0.04734205827116966
1702059712125350100,17.53935009765625,-0.5821545720100403,-0.10705413669347763,0.02977968007326126
1702059712142344200,17.55634423828125,-0.5410739183425903,-0.04352414980530739,-0.0039706239476799965
1702059712159351600,17.5733515625,-0.5018258094787598,0.030543262138962746,-0.018020525574684143
1702059712176332300,17.590332275390626,-0.4784601926803589,0.028405234217643738,-0.004428773187100887
1702059712193326300,17.607326416015624,-0.4612032473087311,-0.02382374368607998,0.01771509274840355
1702059712210320400,17.6243203125,-0.45753806829452515,-0.09285151958465576,0.04260785132646561
1702059712227314400,17.641314453125,-0.45036038756370544,-0.04581489413976669,0.049785517156124115
1702059712244308500,17.65830859375,-0.4259257912635803,0.0064140851609408855,0.043676864355802536
1702059712261302500,17.675302490234376,-0.38835757970809937,0.01618792861700058,0.03649919852614403
1702059712278283000,17.692282958984375,-0.3675881624221802,-0.04749477282166481,0.03084869496524334
1702059712295289300,17.709289306640624,-0.3741549551486969,-0.07712173461914062,0.044135015457868576
1702059712312286200,17.7262861328125,-0.40424007177352905,-0.08292495459318161,0.04566217586398125
1702059712329279000,17.743279052734376,-0.4317290186882019,-0.07467827945947647,0.044287730008363724
1702059712346273000,17.76027294921875,-0.3810271918773651,-0.030085112899541855,0.04459316283464432
1702059712363266800,17.777266845703124,-0.2710714638233185,0.003359758760780096,0.04581489413976669
1702059712380260900,17.7942607421875,-0.18096883594989777,0.012217304669320583,0.046731192618608475
1702059712397255000,17.8112548828125,-0.16554448008537292,0.00733038317412138,0.04657847434282303
1702059712414249200,17.828249267578126,-0.1846340149641037,0.024129176512360573,0.03039054572582245
1702059712431243000,17.845242919921876,-0.204487144947052,0.03191770985722542,0.01817324012517929
1702059712448237000,17.862237060546875,-0.18417587876319885,0.03756821155548096,0.03985895588994026
1702059712465231400,17.8792314453125,-0.14569136500358582,0.03405573591589928,0.06200282275676727
1702059712482214700,17.896214599609376,-0.10567969083786011,0.04230241850018501,0.050243668258190155
1702059712499219200,17.91321923828125,-0.08964447677135468,0.06948592513799667,0.018936822190880775
1702059712516213200,17.930213134765626,-0.12476922571659088,0.040164388716220856,0.00427605677396059
1702059712533218300,17.94721826171875,-0.18585574626922607,0.002138028386980295,0.020922135561704636
1702059712550201300,17.964201416015626,-0.2370157092809677,0.0025961773935705423,0.04642575979232788
1702059712567195400,17.9811953125,-0.26419922709465027,0.021838432177901268,0.06001751124858856
1702059712584189400,17.998189453125,-0.26221391558647156,0.03176499158143997,0.057879481464624405
1702059712601181000,18.015180908203124,-0.22586742043495178,0.044745877385139465,0.05619960278272629
1702059712618180400,18.032180419921875,-0.17073683440685272,0.0377209298312664,0.052228979766368866
1702059712635171600,18.049171630859377,-0.13775011897087097,0.004428773187100887,0.03940080851316452
1702059712652165600,18.06616552734375,-0.11988230794668198,-0.008246680721640587,0.024587325751781464
1702059712669159700,18.08315966796875,-0.12186761945486069,0.014966198243200779,0.014202617108821869
1702059712686153700,18.10015380859375,-0.1365283876657486,0.026419922709465027,0.01970040425658226
1702059712703147800,18.117147705078125,-0.1241583600640297,0.013286318629980087,0.021838432177901268
1702059712720140300,18.134140380859375,-0.08338310569524765,-0.02519819140434265,0.010995574295520782
1702059712737137400,18.151137451171873,-0.011453723534941673,-0.03222314268350601,-0.008857546374201775
1702059712754130200,18.168130126953123,0.06979135423898697,0.006261368747800589,-0.026419922709465027
1702059712771124000,18.1851240234375,0.10430523753166199,0.03741549700498581,-0.027183502912521362
1702059712788118000,18.202117919921875,0.09789115190505981,0.03756821155548096,-0.011301007121801376
1702059712805112300,18.2191123046875,0.05451972410082817,0.01114829070866108,0.004428773187100887
1702059712822106000,18.236106201171875,-0.012522737495601177,-0.005192354787141085,0.007024950347840786
1702059712839100400,18.253100341796873,-0.06994406878948212,-0.00015271631127689034,0.003054326167330146
1702059712856094200,18.27009423828125,-0.08827003091573715,0.005039638374000788,-0.005650503560900688
1702059712873088300,18.287088134765625,-0.09941831976175308,-0.01160643994808197,-0.006261368747800589
1702059712890082300,18.304082275390623,-0.11621711403131485,-0.010995574295520782,0.012522737495601177
1702059712907083300,18.321083251953127,-0.13775011897087097,-0.006261368747800589,0.044745877385139465
1702059712924072200,18.338072265625,-0.14874568581581116,0.00045814894838258624,0.04856378585100174
1702059712941064400,18.355064453125,-0.13866640627384186,0.0074830991216003895,0.01725694350898266
1702059712958061300,18.372061279296876,-0.10476338863372803,-0.03436116874217987,-0.012675453908741474
1702059712975052800,18.389052734375,-0.05467243865132332,-0.05910121276974678,-0.013439035043120384
1702059712992046800,18.406046875,0.0009162978967651725,-0.03680463135242462,0.007177666760981083
1702059713009040600,18.42304052734375,0.05803219974040985,-0.01542434748262167,0.01114829070866108
1702059713026035000,18.440034912109375,0.11209376901388168,-0.004428773187100887,-0.003817907767370343
1702059713043029000,18.457029052734374,0.1287398487329483,-0.013897184282541275,-0.024587325751781464
1702059713060022800,18.474022705078124,0.11224649101495743,-0.019547687843441963,-0.019547687843441963
1702059713077016800,18.491016845703125,0.10247264802455902,-0.00931569468230009,0.00366519158706069
1702059713094011000,18.508010986328124,0.08933904021978378,-0.003817907767370343,0.005650503560900688
1702059713111005000,18.5250048828125,0.04963280260562897,-0.01710422709584236,0.001527163083665073
1702059713127988500,18.541988525390625,-0.001679879380390048,-0.03222314268350601,0.018478672951459885
1702059713144990200,18.558990234375,-0.04566217586398125,-0.03191770985722542,0.04352414980530739
1702059713161993000,18.575992919921877,-0.07437284290790558,-0.02321287989616394,0.05604688450694084
1702059713178981000,18.592981201171874,-0.057879481464624405,-0.016493361443281174,0.048105638474226
1702059713195975200,18.60997509765625,0.029932396486401558,-0.005039638374000788,0.01771509274840355
1702059713212969500,18.626969482421874,0.1235474944114685,-0.012522737495601177,-0.008399397134780884
1702059713229963300,18.64396337890625,0.18081611394882202,-0.022449297830462456,-0.013286318629980087
1702059713246957300,18.660957275390626,0.18875735998153687,-0.022143865004181862,-0.005955935921519995
1702059713263951400,18.677951416015624,0.16783522069454193,-0.010079276748001575,-0.006108652334660292
1702059713280945400,18.6949453125,0.15806138515472412,-0.00015271631127689034,-0.011759156361222267
1702059713297939500,18.711939453125,0.17409659922122955,-0.010842857882380486,-0.01466076634824276
1702059713314935600,18.728935546875,0.23609942197799683,-0.02275473065674305,-0.017867809161543846
1702059713331927600,18.745927490234376,0.31780263781547546,-0.0074830991216003895,-0.019089538604021072
1702059713348921900,18.762921875,0.3735440969467163,0.0429132841527462,-0.01114829070866108
1702059713365915400,18.779915283203124,0.3868304193019867,0.10323622822761536,-0.0027488935738801956
1702059713382910000,18.796909912109374,0.3908010423183441,0.14263702929019928,-0.0007635815418325365
1702059713399904800,18.81390478515625,0.4124867618083954,0.12400564551353455,-0.013591751456260681
1702059713416897800,18.830897705078126,0.4815145432949066,0.10797043144702911,-0.03329215571284294
1702059713433894700,18.847894775390625,0.6192646622657776,0.11652254313230515,-0.04596760869026184
1702059713450876400,18.86487646484375,0.7733554244041443,0.10842858254909515,-0.044287730008363724
1702059713467880000,18.8818798828125,0.8987354636192322,0.09834930300712585,-0.04886921867728233
1702059713484874000,18.8988740234375,0.9738719463348389,0.12538009881973267,-0.07910704612731934
1702059713501868000,18.915867919921876,1.0390818119049072,0.1941024363040924,-0.12202033400535583
1702059713518862000,18.932862060546874,1.1154398918151855,0.23151792585849762,-0.16294831037521362
1702059713535856400,18.9498564453125,1.2432634830474854,0.2557998299598694,-0.1866193264722824
1702059713552850200,18.96685009765625,1.404226541519165,0.2733621895313263,-0.18799377977848053
1702059713569833500,18.98383349609375,1.589624047279358,0.2987131178379059,-0.1713477075099945
1702059713586838300,19.00083837890625,1.7715091705322266,0.25076019763946533,-0.17287486791610718
1702059713603832300,19.017832275390624,1.8793269395828247,0.15393804013729095,-0.21899518370628357
1702059713620826400,19.034826416015626,1.9170478582382202,0.1492038369178772,-0.2580905556678772
1702059713637820400,19.0518203125,1.9562959671020508,0.2122756689786911,-0.29336804151535034
1702059713654814500,19.068814453125,2.069000482559204,0.34636059403419495,-0.33658674359321594
1702059713671799600,19.085799560546874,2.2953262329101562,0.36483925580978394,-0.4219551682472229
1702059713688802600,19.102802490234374,2.5973989963531494,0.14752395451068878,-0.48716503381729126
1702059713705786400,19.119786376953126,2.8851165771484375,-0.11759155988693237,-0.4870123267173767
1702059713722790700,19.136790771484375,3.034473180770874,-0.1921171247959137,-0.4433354437351227
1702059713739784700,19.15378466796875,3.1285462379455566,-0.07330382615327835,-0.45265114307403564
1702059713756779000,19.170779052734375,3.2227723598480225,0.23625212907791138,-0.523511528968811
1702059713773761300,19.18776123046875,3.3423492908477783,0.5079344511032104,-0.6001750826835632
1702059713790762000,19.204761962890625,3.4762814044952393,0.3988949954509735,-0.646295428276062
1702059713807761000,19.221760986328125,3.5576791763305664,0.07956519722938538,-0.6557638645172119
1702059713824755200,19.238755126953127,3.6033413410186768,-0.009926560334861279,-0.6499606370925903
1702059713841748700,19.255748779296876,3.6635115146636963,0.16432274878025055,-0.7082982659339905
1702059713858743000,19.272742919921875,3.7171149253845215,0.3747658133506775,-0.8071057200431824
1702059713875734500,19.289734619140624,3.699399948120117,0.2838996350765228,-0.877966046333313
1702059713892733700,19.306733642578124,3.687793493270874,0.0455094613134861,-0.8449793457984924
1702059713909725200,19.32372509765625,3.6494617462158203,-0.17898350954055786,-0.7790058851242065
1702059713926719200,19.34071923828125,3.562108039855957,-0.12018773704767227,-0.7603744864463806
1702059713943713300,19.35771337890625,3.4455854892730713,0.1866193264722824,-0.7695375084877014
1702059713960707300,19.374707275390627,3.3298263549804688,0.4285219609737396,-0.7524332404136658
1702059713977701400,19.391701416015625,3.1642820835113525,0.4268420934677124,-0.6702718734741211
1702059713994693000,19.408693115234374,2.9820914268493652,0.3104722499847412,-0.508087158203125
1702059714011691800,19.42569189453125,2.861140012741089,0.20952677726745605,-0.3706424832344055
1702059714028683500,19.44268359375,2.8857274055480957,0.2718350291252136,-0.3162754774093628
1702059714045677600,19.459677490234377,2.922990083694458,0.34147366881370544,-0.25641068816185
1702059714062672000,19.476671875,2.9798007011413574,0.45204028487205505,-0.16142113506793976
1702059714079671600,19.493671630859374,2.93154239654541,0.3937026560306549,-0.03436116874217987
1702059714096652500,19.510652587890625,2.816852331161499,0.34406983852386475,0.06429356336593628
1702059714113653800,19.52765380859375,2.702467918395996,0.3500257730484009,0.08124507963657379
1702059714130647800,19.544647705078123,2.5804474353790283,0.3604104816913605,0.038026362657547
1702059714147641900,19.561641845703125,2.443002939224243,0.2997821271419525,-0.005955935921519995
1702059714164636000,19.578635986328123,2.25791072845459,0.19822576642036438,-0.016493361443281174
1702059714181630200,19.595630126953125,2.0671679973602295,0.14233160018920898,-0.03039054572582245
1702059714198624300,19.612624267578123,1.8733710050582886,0.13545936346054077,-0.08827003091573715
1702059714215618000,19.6296181640625,1.703092336654663,0.168751522898674,-0.16340644657611847
1702059714232601600,19.6466015625,1.609171748161316,0.2025018334388733,-0.2073887437582016
1702059714249606100,19.663606201171874,1.6296358108520508,0.29245173931121826,-0.19333885610103607
1702059714266596400,19.680596435546875,1.5708400011062622,0.3039054572582245,-0.1592831164598465
1702059714283598000,19.69759814453125,1.3698652982711792,0.30344730615615845,-0.1359175145626068
1702059714300585700,19.714585693359375,1.125366449356079,0.2226603776216507,-0.10965031385421753
1702059714317585000,19.7315849609375,0.9065240025520325,0.14996741712093353,-0.08155050873756409
1702059714334576400,19.748576416015624,0.7704538106918335,0.1385136991739273,-0.05360342562198639
1702059714351570400,19.7655703125,0.7057020664215088,0.1293507218360901,-0.0354301854968071
1702059714368564700,19.782564697265624,0.6716463565826416,0.10995574295520782,-0.02580905705690384
1702059714385558500,19.79955859375,0.6293439269065857,0.11194105446338654,-0.016798794269561768
1702059714402552600,19.816552490234375,0.5508477091789246,0.11010845750570297,0.004581489134579897
1702059714419546600,19.833546630859374,0.4502076804637909,0.14874568581581116,0.03298672288656235
1702059714436540700,19.850540771484376,0.34437528252601624,0.15653422474861145,0.04245513305068016
1702059714453525500,19.867525390625,0.24419337511062622,0.1336267739534378,0.031001411378383636
1702059714470527500,19.884527587890624,0.16523905098438263,0.06872233748435974,0.012064588256180286
1702059714487510500,19.901510498046875,0.13561208546161652,0.043676864355802536,0.012828170321881771
1702059714504504000,19.918504150390625,0.14156801998615265,0.059406645596027374,0.03497203439474106
1702059714521513500,19.935513427734374,0.14019356667995453,0.05161811411380768,0.06398813426494598
1702059714538506000,19.952506103515624,0.11270463466644287,0.04077525436878204,0.07147123664617538
1702059714555499000,19.9694990234375,0.06780604273080826,0.005345070734620094,0.051770828664302826
1702059714572490800,19.98649072265625,0.029168816283345222,-0.031612277030944824,0.0354301854968071
1702059714589489700,20.00348974609375,0.003512475173920393,-0.06414084881544113,0.019547687843441963
1702059714606481200,20.020481201171876,-0.007941247895359993,-0.043218716979026794,-0.0012217304902151227
1702059714623475200,20.03747509765625,-0.03084869496524334,-0.01542434748262167,-0.010842857882380486
1702059714640469200,20.05446923828125,-0.06017022579908371,-0.016951510682702065,-0.0065668015740811825
1702059714657455400,20.071455322265624,-0.08674286305904388,-0.03420845419168472,0.0039706239476799965
1702059714674457300,20.088457275390624,-0.10476338863372803,-0.04505131021142006,0.011453723534941673
1702059714691451400,20.105451416015626,-0.10934487730264664,-0.050243668258190155,0.007635815534740686
1702059714708445700,20.12244580078125,-0.0981965884566307,-0.04688390716910362,0.01237002108246088
1702059714725439500,20.139439453125,-0.07238753139972687,-0.052228979766368866,0.007941247895359993
1702059714742433500,20.15643359375,-0.041233405470848083,-0.026114489883184433,0.00427605677396059
1702059714759425000,20.173425048828125,-0.01817324012517929,-0.014202617108821869,0.005650503560900688
1702059714776421600,20.190421630859376,-0.004581489134579897,0.006872233934700489,0.007941247895359993
1702059714793415700,20.207415771484374,-0.022907447069883347,0.017867809161543846,0.00809396430850029
1702059714810409700,20.22440966796875,-0.05451972410082817,0.038179077208042145,0.008857546374201775
1702059714827403800,20.24140380859375,-0.07498370856046677,0.0377209298312664,0.003359758760780096
1702059714844397800,20.258397705078124,-0.06780604273080826,0.014813481830060482,-0.00015271631127689034
1702059714861392000,20.275391845703126,-0.04993823543190956,0.0003054326225537807,0.01114829070866108
1702059714878375400,20.29237548828125,-0.0403171069920063,-0.005039638374000788,0.022907447069883347
1702059714895377200,20.309377197265626,-0.05665775015950203,0.005955935921519995,0.007788531947880983
1702059714912376600,20.32637646484375,-0.08949175477027893,0.03527746722102165,-0.019853120669722557
1702059714929368000,20.3433681640625,-0.12079860270023346,0.036193765699863434,-0.036651913076639175
1702059714946362000,20.360362060546876,-0.13500121235847473,0.00045814894838258624,-0.046731192618608475
1702059714963356200,20.377356201171875,-0.1443169116973877,-0.039248090237379074,-0.052381694316864014
1702059714980350500,20.3943505859375,-0.16203200817108154,-0.08048149943351746,-0.05192354694008827
1702059714997344300,20.41134423828125,-0.18707747757434845,-0.09162978827953339,-0.05054909735918045
1702059715014338300,20.42833837890625,-0.2330450862646103,-0.08292495459318161,-0.04581489413976669
1702059715031332400,20.445332275390626,-0.3139847218990326,-0.050854530185461044,-0.04444044828414917
1702059715048326100,20.462326171875,-0.4106541574001312,-0.04795292019844055,-0.03940080851316452
1702059715065320700,20.47932080078125,-0.48288896679878235,-0.07360926270484924,-0.019089538604021072
1702059715082314500,20.496314453125,-0.5364924073219299,-0.09086620807647705,0.02687807008624077
1702059715099307800,20.513307861328126,-0.6206390857696533,-0.10720685124397278,0.0809396430850029
1702059715116303400,20.530303466796877,-0.7365507483482361,-0.07910704612731934,0.11927144229412079
1702059715133298700,20.547298583984375,-0.8477282524108887,-0.06444628536701202,0.11575896292924881
1702059715150288100,20.5642880859375,-0.9399688839912415,-0.0910189226269722,0.08048149943351746
1702059715167287300,20.581287353515624,-1.0065531730651855,-0.13484850525856018,0.050243668258190155
1702059715184278800,20.59827880859375,-1.05404794216156,-0.16310101747512817,0.059864792972803116
1702059715201270300,20.615270263671874,-1.0997101068496704,-0.15653422474861145,0.09346238523721695
1702059715218259000,20.632259033203123,-1.183398723602295,-0.1134682223200798,0.13775011897087097
1702059715235261000,20.649260986328127,-1.2999212741851807,-0.08643743395805359,0.17623461782932281
1702059715252254700,20.666254638671877,-1.4314099550247192,-0.12522737681865692,0.17531833052635193
1702059715269238300,20.68323828125,-1.536784291267395,-0.2142609804868698,0.1385136991739273
1702059715286243300,20.700243408203125,-1.6297885179519653,-0.2535090744495392,0.10995574295520782
1702059715303227100,20.71722705078125,-1.7353154420852661,-0.19333885610103607,0.1339322030544281
1702059715320229600,20.734229736328125,-1.8651243448257446,-0.13011430203914642,0.1820378452539444
1702059715337226500,20.7512265625,-2.006844997406006,-0.09224065393209457,0.20952677726745605
1702059715354216200,20.76821630859375,-2.1343631744384766,-0.10842858254909515,0.1843285858631134
1702059715371210800,20.785210693359375,-2.2371411323547363,-0.16050484776496887,0.11759155988693237
