time,seconds_elapsed,z,y,x
1702140034344297700,0.011297607421875,0.6668052673339844,-0.7814044952392578,-0.03565317392349243
1702140034429250000,0.09625,-0.69793701171875,-0.4677717685699463,-0.36866888403892517
1702140034446243300,0.113243408203125,0.43756580352783203,-0.6197030544281006,0.09055498242378235
1702140034463234000,0.130234130859375,0.239776611328125,0.3065052032470703,0.07068559527397156
1702140034480219100,0.14721923828125,-1.2367753982543945,0.48114490509033203,-0.2463204562664032
1702140034497217800,0.1642177734375,-1.0120906829833984,0.054762840270996094,-0.30421844124794006
1702140034514207000,0.18120703125,-0.6580419540405273,-0.0018401145935058594,-0.6678223609924316
1702140034531192300,0.1981923828125,-1.6522636413574219,0.6091351509094238,-1.2122068405151367
1702140034548190700,0.215190673828125,-3.216468334197998,1.3566787242889404,-1.7302203178405762
1702140034565176800,0.2321767578125,-3.3728766441345215,2.4067652225494385,-2.1700713634490967
1702140034582172200,0.249172119140625,-2.8930091857910156,1.9260644912719727,-2.8913960456848145
1702140034599158300,0.266158203125,-1.639610767364502,0.9605879783630371,-3.02199125289917
1702140034616151000,0.283151123046875,-0.8254470825195312,0.09252691268920898,-2.9783997535705566
1702140034633143600,0.3001435546875,-0.17601490020751953,-0.23057818412780762,-1.7219042778015137
1702140034650130200,0.317130126953125,-0.7018232345581055,-0.8811652660369873,-0.38503050804138184
1702140034667124000,0.3341240234375,-1.6174383163452148,-1.3481528759002686,0.18718385696411133
1702140034684116000,0.351115966796875,-1.7108092308044434,-1.1265287399291992,0.334057092666626
1702140034701102800,0.368102783203125,-1.7988057136535645,-0.9961092472076416,-0.4871556758880615
1702140034718094300,0.38509423828125,-2.5246434211730957,-0.8682873249053955,-0.5863115787506104
1702140034735075300,0.402075439453125,-3.315631866455078,-1.3652703762054443,-0.6173608303070068
1702140034752079600,0.41907958984375,-3.245565414428711,-1.2983338832855225,-0.5476422309875488
1702140034769062100,0.436062255859375,-2.5699715614318848,-1.9623942375183105,-0.33473777770996094
1702140034786053400,0.453053466796875,-2.1402969360351562,-2.103846549987793,-0.28173017501831055
1702140034803052500,0.470052490234375,-1.9488277435302734,-2.1088967323303223,-0.754328727722168
1702140034820036000,0.4870361328125,-2.052511692047119,-1.8808972835540771,-1.0916996002197266
1702140034837035000,0.504034912109375,-2.339052438735962,-2.323925733566284,-1.410830020904541
1702140034854024200,0.521024169921875,-2.031550407409668,-2.581807851791382,-1.4651799201965332
1702140034871011800,0.53801171875,-0.6945285797119141,-2.8600142002105713,-1.1003804206848145
1702140034888005400,0.55500537109375,-0.0743098258972168,-2.351080894470215,-0.4200906753540039
1702140034904995600,0.57199560546875,-1.7719396352767944,-1.7494778633117676,0.8144493103027344
1702140034921985300,0.5889853515625,-2.920057773590088,-1.7355470657348633,1.8629999160766602
1702140034938975200,0.605975341796875,-2.8306479454040527,-2.1322453022003174,2.043309211730957
1702140034955970600,0.622970458984375,-0.7693624496459961,-2.0546164512634277,1.6135263442993164
1702140034972960500,0.63996044921875,1.6534862518310547,-1.0842976570129395,1.381300926208496
1702140034989952800,0.656952880859375,1.2096139192581177,-0.14923816919326782,2.2146778106689453
1702140035006930400,0.673930419921875,-0.3373177647590637,-0.06113770604133606,3.593337059020996
1702140035023933400,0.690933349609375,-0.6892846822738647,-0.08208930492401123,4.507663726806641
1702140035040920000,0.707920166015625,0.887317419052124,0.29754239320755005,4.430060386657715
1702140035057917200,0.724917236328125,2.5780062675476074,1.1106410026550293,3.2456607818603516
1702140035074904600,0.741904541015625,3.2689359188079834,1.8160537481307983,2.6311817169189453
1702140035091896600,0.758896484375,2.4193663597106934,2.226133108139038,2.9257125854492188
1702140035108884000,0.775884033203125,1.4117686748504639,2.284518003463745,2.968747138977051
1702140035125889000,0.792888916015625,1.0184457302093506,2.5111594200134277,2.344557762145996
1702140035142860800,0.80986083984375,1.0472636222839355,2.6595873832702637,1.9479961395263672
1702140035159858700,0.826858642578125,1.6321439743041992,3.2042055130004883,1.875901222229004
1702140035176868900,0.843868896484375,1.8021690845489502,3.6549696922302246,2.3725271224975586
1702140035193839000,0.860839111328125,1.5898540019989014,3.8447844982147217,2.8448991775512695
1702140035210829000,0.8778291015625,1.0765972137451172,3.807997941970825,3.0517473220825195
1702140035227822800,0.89482275390625,0.9966310262680054,3.944986581802368,3.1394500732421875
1702140035244812800,0.911812744140625,0.6455322504043579,4.096630096435547,2.8892860412597656
1702140035261805300,0.928805419921875,0.13689187169075012,4.250538349151611,2.3107824325561523
1702140035278789400,0.945789306640625,-0.19862326979637146,4.346270561218262,1.7337932586669922
1702140035295785700,0.96278564453125,-0.4601258635520935,4.445707321166992,1.5625410079956055
1702140035312775700,0.979775634765625,-0.8729244470596313,4.39333963394165,1.7483673095703125
1702140035329767200,0.99676708984375,-1.5418442487716675,4.575562000274658,2.0155630111694336
1702140035346757000,1.013757080078125,-2.343921184539795,4.787570953369141,2.2681093215942383
1702140035363752200,1.030752197265625,-3.023668050765991,5.027866840362549,2.744462013244629
1702140035380737500,1.047737548828125,-3.2496020793914795,4.870285511016846,3.427821159362793
1702140035397731600,1.064731689453125,-2.859776496887207,4.787285327911377,3.5856704711914062
1702140035414721800,1.0817216796875,-2.3126206398010254,4.745678901672363,3.96395206451416
1702140035431714000,1.098714111328125,-1.8975958824157715,4.586553573608398,4.760237693786621
1702140035448693000,1.11569287109375,-1.5575779676437378,4.169568061828613,5.65877628326416
1702140035465694000,1.13269384765625,-0.7348139882087708,3.8929014205932617,6.342719078063965
1702140035482687200,1.149687255859375,0.6225943565368652,3.839621067047119,6.670305252075195
1702140035499668500,1.16666845703125,1.471830129623413,3.9143800735473633,7.078802108764648
1702140035516667000,1.1836669921875,2.1661550998687744,4.048028469085693,7.81655216217041
1702140035533659400,1.200659423828125,2.1997439861297607,3.884833335876465,8.585040092468262
1702140035550646500,1.217646484375,2.229715347290039,3.3925859928131104,8.788676261901855
1702140035567643100,1.23464306640625,2.0341906547546387,2.668302059173584,8.201086044311523
1702140035584627200,1.251627197265625,1.646763563156128,1.0567320585250854,7.247620582580566
1702140035601635300,1.26863525390625,1.249776840209961,-0.4794018268585205,5.6433820724487305
1702140035618615600,1.285615478515625,1.335383415222168,-1.679738163948059,4.015361785888672
1702140035635604700,1.302604736328125,1.6007083654403687,-2.413684606552124,2.6178951263427734
1702140035652595000,1.319594970703125,1.89285147190094,-2.823606491088867,1.1407756805419922
1702140035669581300,1.336581298828125,2.1752147674560547,-2.990370512008667,-0.45722103118896484
1702140035686574000,1.353573974609375,2.306443691253662,-3.1332223415374756,-1.8391022682189941
1702140035703565600,1.370565673828125,2.5112624168395996,-3.2706661224365234,-2.9010725021362305
1702140035720555300,1.38755517578125,2.7919921875,-3.3650271892547607,-3.548367500305176
1702140035737546800,1.404546630859375,3.1423704624176025,-3.3559606075286865,-4.1294732093811035
1702140035754539000,1.4215390625,3.334878921508789,-3.3022472858428955,-4.584941387176514
1702140035771521300,1.438521240234375,3.4314026832580566,-3.3591866493225098,-4.680393695831299
1702140035788522000,1.45552197265625,3.443129301071167,-3.346473217010498,-4.746213912963867
1702140035805511400,1.472511474609375,3.5751259326934814,-3.3293070793151855,-4.915563106536865
1702140035822499000,1.4894990234375,3.5031306743621826,-3.3345723152160645,-5.20250129699707
1702140035839491000,1.506490966796875,3.680863380432129,-3.3557238578796387,-5.427371501922607
1702140035856484400,1.523484375,3.8026461601257324,-3.618652582168579,-5.23726749420166
1702140035873476400,1.540476318359375,3.951018810272217,-3.849304676055908,-4.709944248199463
1702140035890464000,1.557464111328125,4.291532516479492,-3.9604737758636475,-3.942049503326416
1702140035907457800,1.574457763671875,4.634789943695068,-4.046319007873535,-3.2422189712524414
1702140035924437500,1.5914375,4.737744331359863,-4.006227493286133,-3.0348591804504395
1702140035941436700,1.608436767578125,4.345975875854492,-4.039970397949219,-3.180983543395996
1702140035958430700,1.6254306640625,3.762192487716675,-4.209495544433594,-3.387105941772461
1702140035975420200,1.642420166015625,3.2664949893951416,-4.497248649597168,-3.2191877365112305
1702140035992413000,1.659412841796875,2.7938528060913086,-4.88518762588501,-3.10310697555542
1702140036009399600,1.676399658203125,2.450737714767456,-5.3344573974609375,-2.598538398742676
1702140036026393300,1.693393310546875,2.2883388996124268,-5.98479700088501,-2.261068344116211
1702140036043385600,1.710385498046875,2.1017489433288574,-5.983060836791992,-2.7744693756103516
1702140036060369700,1.72736962890625,1.8832528591156006,-6.041587829589844,-2.7454957962036133
1702140036077372200,1.7443720703125,1.7263703346252441,-6.3859148025512695,-0.7363796234130859
1702140036094354200,1.761354248046875,1.2383383512496948,-6.6884050369262695,1.716543197631836
1702140036111342300,1.77834228515625,0.7718666791915894,-6.694665908813477,2.974942207336426
1702140036128341500,1.795341552734375,0.4648035764694214,-7.373857498168945,4.379648208618164
1702140036145329000,1.812328857421875,0.03304600715637207,-7.694565296173096,5.604884147644043
1702140036162321200,1.829321044921875,-0.051703810691833496,-6.760322570800781,5.747795104980469
1702140036179309000,1.84630908203125,0.19316494464874268,-4.53869104385376,5.773686408996582
1702140036196302800,1.863302734375,0.3311910629272461,-2.1931519508361816,6.45517635345459
1702140036213294600,1.880294677734375,0.08954060077667236,-0.38940858840942383,6.638673782348633
1702140036230281000,1.897281005859375,-0.6560355424880981,0.45160722732543945,6.2236433029174805
1702140036247274200,1.914274169921875,-1.328770399093628,0.6442461013793945,5.503059387207031
1702140036264266500,1.9312666015625,-1.5333701372146606,0.9733638763427734,4.605687618255615
1702140036281253000,1.948253173828125,-1.263587474822998,1.5604496002197266,4.251654148101807
1702140036298248000,1.965248046875,-0.9632457494735718,2.4562301635742188,4.463979721069336
1702140036315238000,1.98223779296875,-0.960640013217926,3.5515358448028564,4.732523441314697
1702140036332230100,1.999230224609375,-1.809078335762024,4.591691017150879,4.406748294830322
1702140036349216000,2.016216064453125,-2.853154420852661,5.208430290222168,3.838014602661133
1702140036366211600,2.033211669921875,-3.0636215209960938,5.606746673583984,3.3821182250976562
1702140036383202800,2.050202880859375,-2.3403677940368652,5.633264541625977,3.3776845932006836
1702140036400190000,2.06718994140625,-1.1837048530578613,5.593413829803467,3.6096229553222656
1702140036417183200,2.084183349609375,-0.21880459785461426,5.696667671203613,4.003914833068848
1702140036434175700,2.10117578125,0.08745419979095459,5.888492584228516,4.276000499725342
1702140036451162400,2.118162353515625,0.06107652187347412,6.023556709289551,4.442857265472412
1702140036468156400,2.135156494140625,-0.11651819944381714,6.349844932556152,4.631585121154785
1702140036485146600,2.152146728515625,-0.02615976333618164,6.367788314819336,5.227893352508545
1702140036502139400,2.169139404296875,0.12653017044067383,6.470645904541016,5.93633508682251
1702140036519126000,2.1861259765625,-0.22163993120193481,6.6914215087890625,6.849758148193359
1702140036536117000,2.203116943359375,-0.9770402312278748,6.774126052856445,7.458442687988281
1702140036553113300,2.22011328125,-1.7835161685943604,6.77314567565918,7.556246280670166
1702140036570091500,2.237091552734375,-2.123462677001953,6.365523338317871,7.498727321624756
1702140036587092000,2.254092041015625,-1.869561791419983,5.705458641052246,7.461659908294678
1702140036604084200,2.271084228515625,-1.602039098739624,5.058595180511475,7.299015045166016
1702140036621070600,2.288070556640625,-1.7980701923370361,4.515242576599121,7.261170864105225
1702140036638065400,2.3050654296875,-2.1620633602142334,3.3597865104675293,7.460777759552002
1702140036655053300,2.32205322265625,-2.150546073913574,2.1050596237182617,7.658202171325684
1702140036672049400,2.33904931640625,-1.5246789455413818,1.535567283630371,7.585913181304932
1702140036689034500,2.356034423828125,-0.8080894351005554,0.3099088668823242,8.526412963867188
1702140036706028300,2.3730283203125,-0.48467326164245605,-1.062629222869873,9.6316499710083
1702140036723020500,2.3900205078125,-0.26888489723205566,-1.5719971656799316,10.083269119262695
1702140036740007200,2.407007080078125,-0.022835493087768555,-1.9329776763916016,10.081428527832031
1702140036757000400,2.42400048828125,0.08940958976745605,-2.479705810546875,9.532731056213379
1702140036773993200,2.4409931640625,0.5129377841949463,-3.3731160163879395,8.798330307006836
1702140036790979800,2.457979736328125,1.193507432937622,-4.605946063995361,7.871990203857422
1702140036807978500,2.474978515625,1.8779321908950806,-5.490139007568359,6.392499923706055
1702140036824964000,2.491964111328125,2.54146409034729,-5.9747843742370605,4.544075012207031
1702140036841956600,2.50895654296875,3.1124484539031982,-5.9280500411987305,2.4621410369873047
1702140036858943500,2.525943603515625,3.6314961910247803,-5.589333534240723,0.533024787902832
1702140036875936500,2.5429365234375,3.9794812202453613,-5.1280107498168945,-0.9114303588867188
1702140036892929000,2.559928955078125,4.217759132385254,-4.743964195251465,-1.9621105194091797
1702140036909916000,2.576916015625,4.4083991050720215,-4.428974628448486,-2.851454257965088
1702140036926909200,2.5939091796875,4.384879112243652,-4.336477756500244,-3.4266982078552246
1702140036943890400,2.610890380859375,4.27127742767334,-4.308053016662598,-3.8398332595825195
1702140036960888300,2.627888427734375,4.009700298309326,-4.339267730712891,-4.062050819396973
1702140036977878800,2.644878662109375,3.949359893798828,-4.361517429351807,-4.170013904571533
1702140036994866200,2.6618662109375,4.150261402130127,-4.304574489593506,-4.249814033508301
1702140037011860500,2.678860595703125,4.32705020904541,-4.287176609039307,-4.439475059509277
1702140037028853200,2.695853271484375,4.517557144165039,-4.31038236618042,-4.579343795776367
1702140037045851600,2.7128515625,4.705403804779053,-4.299472808837891,-4.924098968505859
1702140037062838500,2.729838623046875,4.802870750427246,-4.414976596832275,-5.328458786010742
1702140037079824600,2.74682470703125,4.656981945037842,-4.7522172927856445,-5.253373146057129
1702140037096817700,2.763817626953125,4.877069473266602,-4.8840460777282715,-5.201574802398682
1702140037113811200,2.780811279296875,5.203692436218262,-4.994195938110352,-5.1535139083862305
1702140037130798600,2.797798583984375,5.145830154418945,-5.121064186096191,-4.953738212585449
1702140037147790300,2.814790283203125,4.791628360748291,-5.399928092956543,-4.712953567504883
1702140037164792800,2.831792724609375,4.296631813049316,-5.841344833374023,-4.047633171081543
1702140037181763800,2.848763916015625,3.853224277496338,-6.114079475402832,-3.6901473999023438
1702140037198758400,2.86575830078125,3.6445136070251465,-6.479287147521973,-3.47261905670166
1702140037215754000,2.88275390625,3.242429494857788,-7.214845657348633,-2.3870649337768555
1702140037232746500,2.89974658203125,2.8268096446990967,-7.158900260925293,-1.2527103424072266
1702140037249734000,2.91673388671875,1.7056211233139038,-7.3408918380737305,-0.4389791488647461
1702140037266727000,2.933726806640625,0.07699227333068848,-7.537437438964844,0.18827247619628906
1702140037283719700,2.9507197265625,-0.5715799331665039,-7.2764201164245605,0.5725908279418945
1702140037300706000,2.9677060546875,-0.026500463485717773,-6.182466506958008,0.615875244140625
1702140037317700900,2.984700927734375,0.23784160614013672,-5.319868564605713,1.5539512634277344
1702140037334690300,3.001690185546875,0.040033578872680664,-4.688074111938477,3.4139137268066406
1702140037351686000,3.018685791015625,-0.4117734432220459,-4.14891242980957,4.837411880493164
1702140037368666400,3.035666259765625,-1.2714555263519287,-3.850672960281372,5.851820945739746
1702140037385663200,3.052663330078125,-1.9694515466690063,-3.3205182552337646,6.125262260437012
1702140037402655500,3.069655517578125,-2.2627553939819336,-2.25076961517334,5.934170722961426
1702140037419642400,3.086642333984375,-2.2026515007019043,-0.9916048049926758,5.717105865478516
1702140037436633300,3.10363330078125,-1.9696356058120728,0.2538638114929199,5.7860565185546875
1702140037453630200,3.120630126953125,-1.2070975303649902,1.3891406059265137,5.340376853942871
1702140037470618400,3.137618408203125,-0.41782820224761963,2.4959027767181396,4.338601589202881
1702140037487609000,3.154609130859375,-0.8054690361022949,3.2131760120391846,3.33842134475708
1702140037504599800,3.171599853515625,-1.504656195640564,3.487456798553467,2.683948040008545
1702140037521588700,3.188588623046875,-1.2487359046936035,3.8397481441497803,2.264835834503174
1702140037538584300,3.205584228515625,-0.5159111022949219,4.120246887207031,2.166412830352783
1702140037555572700,3.22257275390625,0.11585080623626709,4.311640739440918,2.642021656036377
1702140037572574700,3.23957470703125,0.6742789149284363,4.897221565246582,3.2769179344177246
1702140037589540000,3.2565400390625,0.05434608459472656,5.520867824554443,3.699223041534424
1702140037606547700,3.273547607421875,-0.8411322832107544,5.884061336517334,4.0052385330200195
1702140037623532300,3.2905322265625,-1.2073345184326172,6.304924488067627,4.364986896514893
1702140037640531200,3.30753125,-1.126044511795044,6.606743812561035,4.853565216064453
1702140037657507800,3.3245078125,-0.8511929512023926,6.927272319793701,5.5323920249938965
1702140037674508800,3.3415087890625,-0.9212144613265991,7.303201675415039,5.8865885734558105
1702140037691499800,3.358499755859375,-1.3834260702133179,7.5502543449401855,6.053922653198242
1702140037708490500,3.375490478515625,-1.91170334815979,7.408044815063477,6.4414896965026855
1702140037725479200,3.392479248046875,-2.1541357040405273,7.159646987915039,7.237093925476074
1702140037742474800,3.409474853515625,-2.1455905437469482,7.09567928314209,7.831470489501953
1702140037759463400,3.42646337890625,-2.295970916748047,6.463479042053223,8.357980728149414
1702140037776452900,3.443452880859375,-2.1029648780822754,5.157883644104004,8.817205429077148
1702140037793443600,3.460443603515625,-1.2885527610778809,4.590170860290527,8.902511596679688
1702140037810438400,3.4774384765625,-0.8731807470321655,3.5136876106262207,9.744569778442383
1702140037827426800,3.4944267578125,-0.9139916896820068,2.7900304794311523,10.217089653015137
1702140037844419600,3.511419677734375,-1.0609276294708252,2.225830078125,10.19070053100586
1702140037861406500,3.528406494140625,-1.4111334085464478,1.53214693069458,9.969877243041992
1702140037878399200,3.545399169921875,-1.3903809785842896,0.4821157455444336,9.876642227172852
1702140037895390500,3.562390380859375,-0.9189667701721191,-0.7823882102966309,9.801689147949219
1702140037912380200,3.579380126953125,-0.007000327110290527,-2.4055843353271484,9.784198760986328
1702140037929373200,3.596373291015625,0.8912020325660706,-3.7725658416748047,9.314583778381348
1702140037946363100,3.613363037109375,1.4206616878509521,-4.472525119781494,8.173388481140137
1702140037963353900,3.630353759765625,1.5124289989471436,-4.548447608947754,6.300518989562988
1702140037980330800,3.647330810546875,1.7280455827713013,-4.6590704917907715,4.223940849304199
1702140037997335800,3.664335693359375,2.439297676086426,-4.604639053344727,2.273848533630371
1702140038014326300,3.681326171875,2.8847224712371826,-4.798802375793457,0.7748613357543945
1702140038031317000,3.69831689453125,3.1562726497650146,-4.873159408569336,-0.6697626113891602
1702140038048308200,3.71530810546875,3.288128614425659,-4.923330307006836,-1.9815974235534668
1702140038065295400,3.73229541015625,3.4270811080932617,-4.929412364959717,-3.0766549110412598
1702140038082294300,3.749294189453125,3.6478166580200195,-4.887073040008545,-3.89448881149292
1702140038099280600,3.76628076171875,3.8226146697998047,-4.851552963256836,-4.421309471130371
1702140038116270300,3.783270263671875,3.7801613807678223,-4.762294292449951,-5.037237644195557
1702140038133262600,3.8002626953125,3.7640836238861084,-4.8201727867126465,-5.545663356781006
1702140038150251000,3.8172509765625,3.8415613174438477,-4.767067909240723,-5.808126449584961
1702140038167248000,3.834247802734375,3.8594629764556885,-4.751278877258301,-5.899640083312988
1702140038184235000,3.851235107421875,4.082309246063232,-4.680527687072754,-5.939791679382324
1702140038201226500,3.8682265625,4.406239032745361,-4.646808624267578,-5.963027000427246
1702140038218217000,3.885217041015625,4.735692024230957,-4.681474685668945,-5.73859977722168
1702140038235208000,3.9022080078125,4.740869998931885,-4.836691856384277,-5.285045623779297
1702140038252188000,3.91918798828125,4.597708225250244,-5.026330471038818,-4.860429286956787
1702140038269190000,3.93618994140625,4.464127063751221,-5.295372486114502,-4.187527656555176
1702140038286184000,3.953183837890625,4.43024206161499,-5.629973888397217,-3.2705774307250977
1702140038303168300,3.970168212890625,4.354190826416016,-5.766118049621582,-2.5615992546081543
1702140038320161800,3.987161865234375,3.975966453552246,-5.892102241516113,-1.9362974166870117
1702140038337151500,4.0041513671875,3.651538133621216,-6.395946979522705,-1.0079302787780762
1702140038354146000,4.02114599609375,3.445178747177124,-6.389059066772461,-0.7204980850219727
1702140038371135000,4.038135009765625,2.8798534870147705,-6.161520481109619,-0.8378744125366211
1702140038388125700,4.055125732421875,2.018035411834717,-6.189356327056885,-0.7917633056640625
1702140038405117000,4.072116943359375,1.3315095901489258,-6.4437947273254395,-0.24939632415771484
1702140038422107600,4.089107666015625,1.1985421180725098,-6.558444976806641,0.14782047271728516
1702140038439098400,4.106098388671875,1.4949705600738525,-6.093326091766357,0.17760276794433594
1702140038456089000,4.123089111328125,1.7368292808532715,-5.553680896759033,0.8577871322631836
1702140038473080000,4.140080078125,1.157066822052002,-4.990454196929932,1.9840078353881836
1702140038490071000,4.157071044921875,0.20334327220916748,-4.411634922027588,3.2001094818115234
1702140038507062000,4.17406201171875,-0.6647127866744995,-3.9068713188171387,4.089716911315918
1702140038524052500,4.191052490234375,-1.1325489282608032,-3.437070369720459,4.640295028686523
1702140038541044200,4.208044189453125,-1.0979557037353516,-2.572619676589966,4.677863121032715
1702140038558034000,4.225033935546875,-0.818139910697937,-1.4023799896240234,4.548356056213379
1702140038575026400,4.2420263671875,-0.9105291366577148,-0.06126689910888672,4.430376052856445
1702140038592016100,4.25901611328125,-1.2669528722763062,1.2411506175994873,4.282553672790527
1702140038609007600,4.276007568359375,-1.6401094198226929,2.3379621505737305,3.9738025665283203
1702140038625998000,4.292998046875,-1.9086045026779175,2.999081611633301,3.6483116149902344
1702140038642989300,4.3099892578125,-1.617823839187622,3.4335875511169434,3.207151412963867
1702140038659977500,4.3269775390625,-1.2184040546417236,3.6402227878570557,2.841823101043701
1702140038676973600,4.3439736328125,-0.7176631093025208,3.68501877784729,2.6975045204162598
1702140038693955300,4.360955322265625,-0.4772838354110718,3.880798578262329,2.7787609100341797
1702140038710952700,4.37795263671875,-0.9013528823852539,4.126970291137695,3.0053772926330566
1702140038727943200,4.394943115234375,-1.0899100303649902,4.47205924987793,3.2412238121032715
1702140038744930600,4.4119306640625,-0.8687714338302612,4.850335597991943,3.395327091217041
1702140038761922800,4.4289228515625,-0.5895036458969116,5.068123817443848,3.9746193885803223
1702140038778918700,4.445918701171875,-0.49736446142196655,5.2439727783203125,4.684826374053955
1702140038795906800,4.46290673828125,-0.43206894397735596,5.446423530578613,5.563510417938232
1702140038812898300,4.479898193359375,-0.5313172340393066,5.833375453948975,6.576013565063477
1702140038829878500,4.49687841796875,-0.9639326930046082,6.192547798156738,7.498035907745361
1702140038846879700,4.513879638671875,-1.4089419841766357,6.439592361450195,8.723950386047363
1702140038863870200,4.5308701171875,-1.6874024868011475,6.766129493713379,9.713359832763672
1702140038880862000,4.547862060546875,-2.2133586406707764,6.925621032714844,9.825092315673828
1702140038897852200,4.56485205078125,-2.93497371673584,6.686052322387695,9.190693855285645
1702140038914843400,4.581843505859375,-3.028614044189453,5.8599114418029785,8.416536331176758
1702140038931833600,4.59883349609375,-2.6248486042022705,4.441817283630371,8.00242805480957
1702140038948825000,4.6158251953125,-1.9087145328521729,3.7572548389434814,7.506558895111084
1702140038965816000,4.632816162109375,-1.3692880868911743,2.5905494689941406,7.9550981521606445
1702140038982796300,4.64979638671875,-1.2221999168395996,1.7406973838806152,8.43112564086914
1702140038999797200,4.66679736328125,-0.9629213213920593,1.3376545906066895,8.47163200378418
1702140039016778200,4.6837783203125,-0.9694048762321472,1.2081999778747559,8.170934677124023
1702140039033779500,4.700779541015625,-0.9569210410118103,0.5489916801452637,7.961984634399414
1702140039050770200,4.717770263671875,-0.41310715675354004,-0.48209524154663086,7.823697090148926
1702140039067761200,4.73476123046875,0.5150032639503479,-1.9138398170471191,7.782608985900879
1702140039084752400,4.75175244140625,1.5697115659713745,-3.2547435760498047,7.61751651763916
1702140039101740500,4.768740478515625,2.185706615447998,-3.8874001502990723,6.648983001708984
1702140039118736100,4.785736083984375,2.5429797172546387,-3.7388386726379395,4.966197967529297
1702140039135724300,4.802724365234375,2.643004894256592,-3.390993118286133,3.2722530364990234
1702140039152716000,4.819716064453125,2.733218193054199,-3.3295326232910156,2.064145088195801
1702140039169706200,4.836706298828125,2.7135746479034424,-3.570585250854492,1.0621471405029297
1702140039186697500,4.853697509765625,2.6463446617126465,-3.726339340209961,0.11371517181396484
1702140039203688000,4.87068798828125,2.73294734954834,-3.7835357189178467,-0.9124107360839844
1702140039220679200,4.88767919921875,2.927016258239746,-3.819465398788452,-2.050564765930176
1702140039237659600,4.90465966796875,3.168325424194336,-3.84224534034729,-3.147920608520508
1702140039254660600,4.92166064453125,3.526606798171997,-3.971200942993164,-3.917515754699707
1702140039271640800,4.938640869140625,3.6845688819885254,-4.225877285003662,-4.294029235839844
1702140039288643000,4.95564306640625,3.7219364643096924,-4.48006534576416,-4.433120250701904
1702140039305633500,4.972633544921875,3.6926932334899902,-4.521684646606445,-4.695129871368408
1702140039322624300,4.989624267578125,3.7369213104248047,-4.493336200714111,-4.9700236320495605
1702140039339604000,5.00660400390625,3.760744571685791,-4.568355083465576,-5.125613212585449
1702140039356602600,5.0236025390625,3.865483045578003,-4.7541937828063965,-5.178601264953613
1702140039373592800,5.0405927734375,4.049323558807373,-4.830420017242432,-5.246590614318848
1702140039390592000,5.057592041015625,4.270586013793945,-4.979135513305664,-5.082490921020508
1702140039407568100,5.074568115234375,4.281167507171631,-5.280778884887695,-4.628288745880127
1702140039424568000,5.091568115234375,4.198277473449707,-5.580162048339844,-4.264218330383301
1702140039441563000,5.10856298828125,3.8823399543762207,-5.781949520111084,-4.472542762756348
1702140039458550300,5.12555029296875,3.502732276916504,-5.947500228881836,-4.718197345733643
1702140039475542300,5.142542236328125,3.4914438724517822,-6.0476837158203125,-4.306129455566406
1702140039492531000,5.159531005859375,3.3704140186309814,-6.257248401641846,-3.235067844390869
1702140039509526500,5.176526611328125,2.8977484703063965,-6.088361740112305,-2.467531204223633
1702140039526515000,5.193514892578125,2.1993887424468994,-6.060849189758301,-1.8218908309936523
1702140039543505700,5.210505615234375,0.9439462423324585,-6.615668773651123,-1.2371349334716797
1702140039560497200,5.2274970703125,-0.019695758819580078,-6.787481307983398,-1.3127450942993164
1702140039577474800,5.244474853515625,-0.022946715354919434,-5.957976341247559,-1.5377788543701172
1702140039594478600,5.261478515625,0.3643749952316284,-5.312056541442871,-0.226654052734375
1702140039611469300,5.27846923828125,0.42436015605926514,-4.700325012207031,1.763895034790039
1702140039628460500,5.29546044921875,0.1895667314529419,-4.089021682739258,3.10284423828125
1702140039645449700,5.31244970703125,-0.7631667852401733,-3.849966287612915,3.7547435760498047
1702140039662443500,5.329443603515625,-1.6426655054092407,-3.514575958251953,3.948794364929199
1702140039679432700,5.3464326171875,-1.9536693096160889,-2.8885998725891113,4.211611747741699
1702140039696422100,5.363422119140625,-2.0477843284606934,-1.8130013942718506,4.676403999328613
1702140039713412400,5.380412353515625,-2.3151650428771973,-0.3747529983520508,5.306617736816406
1702140039730408400,5.397408447265625,-2.8466362953186035,1.0688197612762451,5.386589050292969
1702140039747393800,5.414393798828125,-3.039997100830078,2.276911973953247,4.885300636291504
1702140039764390400,5.431390380859375,-2.9664506912231445,3.0312440395355225,4.208345413208008
1702140039781378300,5.44837841796875,-2.4729881286621094,3.292809009552002,3.6976284980773926
1702140039798358300,5.465358154296875,-2.115626573562622,3.4835968017578125,3.6329140663146973
1702140039815362600,5.482362548828125,-2.019871234893799,3.6310105323791504,3.76700496673584
1702140039832348700,5.4993486328125,-2.0362820625305176,3.940645456314087,3.649188995361328
1702140039849334500,5.51633447265625,-2.1461374759674072,4.309989929199219,3.4896912574768066
1702140039866332700,5.533332763671875,-2.459136962890625,4.713785648345947,3.5147318840026855
1702140039883323600,5.55032373046875,-2.705820083618164,5.185074329376221,3.6467490196228027
1702140039900314600,5.567314697265625,-2.889477491378784,5.57505989074707,3.8348326683044434
1702140039917294800,5.584294921875,-3.060927391052246,5.774889945983887,4.089719295501709
1702140039934296300,5.60129638671875,-3.235968589782715,5.841657638549805,4.37653923034668
1702140039951283200,5.618283203125,-3.3662571907043457,5.891880989074707,4.642253875732422
1702140039968276000,5.63527587890625,-3.3916842937469482,5.965642929077148,4.931971549987793
1702140039985271300,5.652271240234375,-3.542357921600342,5.96651554107666,5.1190314292907715
1702140040002259700,5.669259765625,-3.740199565887451,5.573463439941406,5.303101062774658
1702140040019245600,5.68624560546875,-3.6701605319976807,5.016233444213867,5.292630672454834
1702140040036241700,5.70324169921875,-3.0834689140319824,4.532166481018066,4.802846431732178
1702140040053230600,5.720230712890625,-2.0606613159179688,3.8078131675720215,4.5530171394348145
1702140040070231600,5.7372314453125,-1.1501497030258179,2.274918556213379,4.9159698486328125
1702140040087213800,5.7542138671875,-0.24864551424980164,0.7561068534851074,5.215270519256592
1702140040104205300,5.771205322265625,1.0221036672592163,-0.2729201316833496,5.182114124298096
1702140040121196000,5.788196044921875,2.290260076522827,-0.6013851165771484,4.756531715393066
1702140040138186800,5.805186767578125,3.3567419052124023,-0.6508026123046875,4.082760334014893
1702140040155177500,5.822177490234375,4.072708606719971,-1.0986971855163574,3.6253089904785156
1702140040172169000,5.8391689453125,4.716081619262695,-2.056471824645996,3.2559428215026855
1702140040189159700,5.85615966796875,5.54371452331543,-3.089252471923828,3.3026180267333984
1702140040206150400,5.873150390625,6.038971900939941,-3.384402275085449,3.138655662536621
1702140040223140900,5.890140869140625,5.581354141235352,-3.0257797241210938,2.38763427734375
1702140040240145200,5.907145263671875,4.964324474334717,-1.9330229759216309,1.0591306686401367
1702140040257123000,5.924123046875,4.624770641326904,-0.696864128112793,-0.3515453338623047
1702140040274114000,5.941114013671875,4.2552924156188965,-0.15826177597045898,-1.1655893325805664
1702140040291104500,5.9581044921875,3.6749179363250732,-0.25693464279174805,-1.6077041625976562
1702140040308096000,5.975095947265625,3.083235263824463,-0.2981433868408203,-2.2463431358337402
1702140040325086700,5.992086669921875,2.6491761207580566,-0.5829300880432129,-3.1416139602661133
1702140040342077700,6.00907763671875,2.480051279067993,-0.7311525344848633,-4.301669120788574
1702140040359068200,6.026068115234375,2.484498977661133,-1.0430850982666016,-5.0973405838012695
1702140040376057000,6.04305712890625,2.787997245788574,-1.1892547607421875,-5.228208065032959
1702140040393053000,6.060052978515625,3.1064131259918213,-1.510237693786621,-4.541060924530029
1702140040410041000,6.077041015625,3.508759021759033,-1.8881497383117676,-3.1339731216430664
1702140040427031600,6.094031494140625,3.5082502365112305,-2.0984177589416504,-2.304105281829834
1702140040444023000,6.11102294921875,2.6217916011810303,-2.2801830768585205,-2.509164333343506
1702140040460991200,6.1279912109375,1.9290882349014282,-2.035402297973633,-2.7182202339172363
1702140040478001400,6.14500146484375,2.0027008056640625,-1.7349803447723389,-2.076129913330078
1702140040494993000,6.161992919921875,2.3682498931884766,-1.5396597385406494,-0.7404289245605469
1702140040511989200,6.1789892578125,2.197016954421997,-1.3956153392791748,0.5762662887573242
1702140040528977400,6.195977294921875,1.625943660736084,-1.4469411373138428,1.1611671447753906
1702140040545969400,6.212969482421875,1.0242712497711182,-1.3539836406707764,0.723301887512207
1702140040562957600,6.22995751953125,0.4333704710006714,-1.344083547592163,0.20533466339111328
1702140040579950300,6.246950439453125,-0.19750776886940002,-1.3775644302368164,-0.07071208953857422
1702140040596940800,6.26394091796875,-0.7108016610145569,-1.3972537517547607,-0.2203655242919922
1702140040613931800,6.280931884765625,-0.6473028659820557,-1.4563500881195068,-0.2272176742553711
1702140040630912800,6.297912841796875,-0.32820433378219604,-1.3679835796356201,-0.1358957290649414
1702140040647914000,6.3149140625,0.09149545431137085,-1.2219533920288086,-0.30055809020996094
1702140040664904400,6.331904541015625,0.32871806621551514,-0.7750132083892822,-0.44761180877685547
1702140040681895200,6.348895263671875,0.12213493138551712,-0.17276620864868164,-0.2565317153930664
1702140040698875600,6.365875732421875,-0.37605905532836914,0.2629814147949219,-0.20687389373779297
1702140040715877400,6.38287744140625,-0.5746191143989563,0.530336856842041,-0.2608013153076172
1702140040732868000,6.3998681640625,-0.4230654239654541,0.42848634719848633,-0.42216968536376953
1702140040749848600,6.4168486328125,-0.0823885053396225,0.16211175918579102,-0.676971435546875
1702140040766836200,6.433836181640625,0.15160994231700897,-0.18765735626220703,-0.6865739822387695
1702140040783843300,6.45084326171875,-0.08905801177024841,-0.5141777992248535,-0.37790966033935547
1702140040800831700,6.467831787109375,-0.5325164198875427,-0.5691680908203125,-0.05660247802734375
1702140040817822500,6.484822509765625,-0.7145251035690308,-0.42262840270996094,0.26870155334472656
1702140040834802400,6.501802490234375,-0.846375048160553,-0.21539688110351562,0.45934104919433594
1702140040851800000,6.518800048828125,-0.9226080179214478,-0.03971147537231445,0.47739219665527344
1702140040868792300,6.535792236328125,-0.9272801876068115,0.005909919738769531,0.5668869018554688
1702140040885788400,6.552788330078125,-1.2134007215499878,0.011870861053466797,0.6969594955444336
1702140040902776300,6.5697763671875,-1.4795492887496948,0.010979175567626953,0.5956745147705078
1702140040919761700,6.58676171875,-1.5104001760482788,0.015350341796875,0.20992088317871094
1702140040936750800,6.603750732421875,-1.0637962818145752,0.02569437026977539,-0.08124542236328125
1702140040953746700,6.62074658203125,-0.5741639137268066,-0.06782865524291992,-0.1010904312133789
1702140040970742500,6.637742431640625,-0.4681936204433441,-0.15130090713500977,-0.033417701721191406
1702140040987731500,6.6547314453125,-0.8828300833702087,-0.22447633743286133,-0.15479087829589844
1702140041004722000,6.671721923828125,-1.2976195812225342,-0.24644899368286133,-0.3552207946777344
1702140041021713200,6.688713134765625,-1.5614867210388184,-0.22801637649536133,-0.39519309997558594
1702140041038703600,6.70570361328125,-1.629707932472229,-0.17134332656860352,-0.3485078811645508
1702140041055694800,6.72269482421875,-1.5080260038375854,-0.1882495880126953,-0.30760765075683594
1702140041072685600,6.739685546875,-1.2912484407424927,-0.22192049026489258,-0.15813732147216797
1702140041089663700,6.756663818359375,-1.2400091886520386,-0.2278604507446289,-0.2594451904296875
1702140041106664000,6.773663818359375,-1.2841001749038696,-0.2517685890197754,-0.4363422393798828
1702140041123657200,6.7906572265625,-1.2701184749603271,-0.28260374069213867,-0.5427789688110352
1702140041140644900,6.807644775390625,-1.1248390674591064,-0.27578115463256836,-0.4497385025024414
1702140041157628200,6.824628173828125,-0.9603917598724365,-0.28118038177490234,-0.19545269012451172
1702140041174628600,6.841628662109375,-0.810600757598877,-0.27062320709228516,0.05005359649658203
1702140041191626000,6.8586259765625,-0.7286036014556885,-0.17622041702270508,0.1275177001953125
1702140041208602400,6.875602294921875,-0.9055737257003784,-0.1460576057434082,0.10129165649414062
1702140041225592600,6.892592529296875,-0.9931826591491699,-0.1434154510498047,0.1174306869506836
1702140041242590000,6.90958984375,-0.9564118385314941,-0.1518254280090332,0.20054340362548828
1702140041259575800,6.926575927734375,-0.8595749139785767,-0.1290736198425293,0.3542938232421875
1702140041276564200,6.943564208984375,-0.6276663541793823,0.019590377807617188,0.37892818450927734
1702140041293559000,6.96055908203125,-0.7063999176025391,0.01686239242553711,0.2728128433227539
1702140041310549000,6.977549072265625,-0.9862983822822571,-0.04741811752319336,0.11415386199951172
1702140041327538400,6.994538330078125,-1.2807819843292236,-0.053252220153808594,-0.08290576934814453
1702140041344530000,7.011530029296875,-1.439455270767212,-0.016063213348388672,-0.26906681060791016
1702140041361522000,7.02852197265625,-1.467119574546814,0.09360218048095703,-0.2900419235229492
1702140041378501000,7.045501220703125,-1.3965861797332764,0.15760564804077148,-0.16353702545166016
1702140041395513000,7.06251318359375,-1.2320170402526855,0.1814560890197754,-0.014027595520019531
1702140041412497200,7.0794970703125,-1.0631458759307861,0.1927809715270996,0.04707145690917969
1702140041429497000,7.0964970703125,-0.8630269765853882,0.2067713737487793,0.11710262298583984
1702140041446474500,7.113474609375,-0.7760231494903564,0.16705989837646484,0.10566329956054688
1702140041463476200,7.130476318359375,-0.6453589200973511,0.1603379249572754,0.0073070526123046875
1702140041480467000,7.147467041015625,-0.5957471132278442,0.11966896057128906,-0.004477500915527344
1702140041497469700,7.1644697265625,-0.4002373218536377,0.11232328414916992,0.021391868591308594
1702140041514448100,7.1814482421875,-0.3127428889274597,0.11939048767089844,0.086517333984375
1702140041531439600,7.198439697265625,-0.3185666799545288,0.17724180221557617,0.10352325439453125
1702140041548430600,7.2154306640625,-0.47274839878082275,0.10763359069824219,0.10144424438476562
1702140041565421600,7.232421630859375,-0.6413782835006714,0.06470298767089844,0.04575347900390625
1702140041582412300,7.249412353515625,-0.6786001324653625,-0.030254364013671875,0.008001327514648438
1702140041599403300,7.2664033203125,-0.5792561769485474,-0.027475357055664062,-0.000644683837890625
1702140041616381000,7.283380859375,-0.4316595196723938,0.021305561065673828,0.019992828369140625
1702140041633385500,7.300385498046875,-0.40556031465530396,0.055382728576660156,-0.025262832641601562
1702140041650377500,7.31737744140625,-0.3961641788482666,0.0634770393371582,-0.056858062744140625
1702140041667367200,7.3343671875,-0.47538918256759644,0.06194448471069336,-0.11184978485107422
1702140041684357600,7.351357666015625,-0.6325424313545227,0.05200386047363281,-0.08378887176513672
1702140041701348600,7.3683486328125,-0.8227431178092957,0.011090278625488281,-0.011751174926757812
1702140041718327800,7.385327880859375,-0.9060855507850647,-0.025997638702392578,0.1217203140258789
1702140041735330300,7.402330322265625,-0.9099954962730408,-0.060253143310546875,0.2004261016845703
1702140041752311000,7.41931103515625,-0.812125563621521,-0.05954885482788086,0.11879730224609375
1702140041769301200,7.43630126953125,-0.6804360747337341,-0.061982154846191406,0.07825374603271484
1702140041786304000,7.453303955078125,-0.6742989420890808,-0.07619667053222656,-0.07215213775634766
1702140041803292700,7.470292724609375,-0.7854903936386108,-0.12886524200439453,-0.1739025115966797
1702140041820285000,7.487284912109375,-0.9164776802062988,-0.1869349479675293,-0.17934894561767578
1702140041837275600,7.504275634765625,-0.8357242941856384,-0.18302106857299805,-0.1917562484741211
1702140041854266000,7.52126611328125,-0.7110639214515686,-0.17962932586669922,-0.18549537658691406
1702140041871257300,7.53825732421875,-0.6470339298248291,-0.1858968734741211,-0.27015209197998047
1702140041888248300,7.555248291015625,-0.6360511779785156,-0.1754145622253418,-0.3480253219604492
1702140041905239300,7.5722392578125,-0.7095546126365662,-0.1795487403869629,-0.3323192596435547
1702140041922218800,7.58921875,-0.7191909551620483,-0.1769118309020996,-0.2777700424194336
1702140041939221200,7.60622119140625,-0.6912392973899841,-0.1720881462097168,-0.24643611907958984
1702140041956211700,7.623211669921875,-0.6388301253318787,-0.1622791290283203,-0.1581707000732422
1702140041973202700,7.64020263671875,-0.6735852956771851,-0.14900588989257812,-0.10757064819335938
1702140041990190600,7.657190673828125,-0.7294857501983643,-0.13217782974243164,-0.1003122329711914
1702140042007187000,7.67418701171875,-0.7532250881195068,-0.14737296104431152,-0.160247802734375
1702140042024175600,7.691175537109375,-0.6877020001411438,-0.15279603004455566,-0.20924758911132812
1702140042041166000,7.708166015625,-0.5771982073783875,-0.14971041679382324,-0.12711334228515625
1702140042058148600,7.725148681640625,-0.6067902445793152,-0.11259865760803223,-0.05370330810546875
1702140042075148300,7.742148193359375,-0.6647828221321106,-0.049494266510009766,0.014568328857421875
1702140042092138800,7.759138671875,-0.7454634308815002,-0.02826547622680664,0.014822006225585938
1702140042109129700,7.776129638671875,-0.8567711114883423,-0.051011085510253906,-0.02923870086669922
1702140042126120200,7.7931201171875,-0.7779392004013062,-0.08153390884399414,-0.1169900894165039
1702140042143109600,7.810109619140625,-0.5920516848564148,-0.07044839859008789,-0.1903362274169922
1702140042160104700,7.827104736328125,-0.532717227935791,-0.05355954170227051,-0.19929885864257812
1702140042177093400,7.84409326171875,-0.6636744141578674,-0.0274045467376709,-0.16810321807861328
1702140042194086000,7.8610859375,-0.8521730303764343,-0.02640390396118164,-0.1416912078857422
1702140042211062800,7.878062744140625,-0.8965135812759399,-0.09140586853027344,-0.13579273223876953
1702140042228065000,7.89506494140625,-0.8035011887550354,-0.07665228843688965,-0.11582756042480469
1702140042245054500,7.912054443359375,-0.7106132507324219,-0.061141014099121094,-0.04199695587158203
1702140042262050000,7.929050048828125,-0.7024034261703491,-0.06055402755737305,0.04652214050292969
1702140042279039000,7.9460390625,-0.7019165754318237,-0.06257820129394531,0.12933731079101562
1702140042296029700,7.96302978515625,-0.6999287605285645,-0.058110713958740234,0.1440868377685547
1702140042313020400,7.9800205078125,-0.6417698860168457,-0.05582094192504883,0.1181173324584961
1702140042330011100,7.99701123046875,-0.5568799376487732,-0.015476703643798828,0.005908966064453125
1702140042347002400,8.01400244140625,-0.501892626285553,-0.002193927764892578,-0.05202770233154297
1702140042363983000,8.030983154296875,-0.47149062156677246,0.051301002502441406,-0.027727127075195312
1702140042380983800,8.04798388671875,-0.5451875329017639,0.061118125915527344,0.05459117889404297
1702140042397974500,8.064974609375,-0.6236263513565063,0.1176602840423584,0.030837059020996094
1702140042414966300,8.08196630859375,-0.6588646173477173,0.12157464027404785,-0.0126495361328125
1702140042431956700,8.098956787109374,-0.6534880995750427,0.11620974540710449,0.010989189147949219
1702140042448947500,8.115947509765626,-0.6640121340751648,0.13071441650390625,-0.03144645690917969
1702140042465935600,8.132935546875,-0.7239837646484375,0.16638422012329102,-0.02031993865966797
1702140042482932200,8.14993212890625,-0.769660234451294,0.18325090408325195,0.033707618713378906
1702140042499909600,8.16690966796875,-0.7654911279678345,0.17424774169921875,0.12992572784423828
1702140042516911000,8.1839111328125,-0.71819007396698,0.11828303337097168,0.1906147003173828
1702140042533901600,8.200901611328124,-0.6219065189361572,0.08201074600219727,0.15223312377929688
1702140042550893300,8.217893310546875,-0.5182426571846008,0.05328249931335449,-0.0015497207641601562
1702140042567884000,8.234884033203125,-0.4602358639240265,0.023691415786743164,-0.08815479278564453
1702140042584874500,8.25187451171875,-0.4667999744415283,-0.0026330947875976562,-0.13946056365966797
1702140042601865000,8.268864990234375,-0.46035078167915344,0.0006318092346191406,-0.10848426818847656
1702140042618856700,8.285856689453125,-0.47132912278175354,0.005382537841796875,-0.06275653839111328
1702140042635847200,8.30284716796875,-0.48243850469589233,0.022564411163330078,-0.05555915832519531
1702140042652841200,8.31984130859375,-0.5933009386062622,0.013155460357666016,-0.03011798858642578
1702140042669828900,8.336828857421875,-0.6316161751747131,-0.0032720565795898438,-0.020259857177734375
1702140042686809900,8.353809814453125,-0.664935290813446,-0.07400035858154297,-0.0643463134765625
1702140042703811000,8.37081103515625,-0.5856437683105469,-0.07965707778930664,-0.1654491424560547
1702140042720799000,8.387799072265626,-0.5248485803604126,-0.10141944885253906,-0.12618255615234375
1702140042737795300,8.40479541015625,-0.4308632016181946,-0.04995226860046387,-0.05756950378417969
1702140042754783700,8.42178369140625,-0.38432085514068604,-0.0035462379455566406,-0.0028276443481445312
1702140042771774500,8.4387744140625,-0.41016486287117004,0.012717008590698242,0.013616561889648438
1702140042788765400,8.455765380859376,-0.4931238293647766,-0.024234294891357422,0.025297164916992188
1702140042805756000,8.472755859375,-0.6032769083976746,-0.0625145435333252,0.11777019500732422
1702140042822745000,8.4897451171875,-0.624897837638855,-0.030472278594970703,0.07956600189208984
1702140042839723300,8.50672314453125,-0.6357117295265198,-0.03662228584289551,0.02764892578125
1702140042856728000,8.52372802734375,-0.5340697765350342,-0.022136926651000977,-0.030466079711914062
1702140042873712400,8.54071240234375,-0.4543001353740692,-0.05660295486450195,0.02667999267578125
1702140042890710800,8.557710693359375,-0.48152244091033936,-0.05462002754211426,-0.0162200927734375
1702140042907701500,8.574701416015625,-0.7116387486457825,-0.11215019226074219,0.041625022888183594
1702140042924692200,8.591692138671876,-0.6795543432235718,-0.0027565956115722656,0.03593158721923828
1702140042941683200,8.60868310546875,-0.6942554116249084,-0.022278547286987305,0.015419960021972656
1702140042958674700,8.6256748046875,-0.6907716393470764,-0.012732505798339844,0.042939186096191406
1702140042975651600,8.642651611328125,-0.7016472220420837,0.02980518341064453,-0.01610279083251953
1702140042992655600,8.659655517578125,-0.7021111845970154,0.1147465705871582,0.0070552825927734375
1702140043009649400,8.6766494140625,-0.8686208128929138,0.04968738555908203,0.07743453979492188
1702140043026637800,8.693637939453126,-0.996507465839386,0.022438526153564453,-0.00009822845458984375
1702140043043626000,8.7106259765625,-0.9357404112815857,0.03262948989868164,-0.11177539825439453
1702140043060622000,8.7276220703125,-0.7324860095977783,-0.013494014739990234,-0.11658096313476562
1702140043077608400,8.7446083984375,-0.490077406167984,-0.05383801460266113,-0.02075672149658203
1702140043094601700,8.761601806640625,-0.527377188205719,-0.05858945846557617,0.057814598083496094
1702140043111591000,8.7785908203125,-0.8079473376274109,-0.10529017448425293,0.055014610290527344
1702140043128583200,8.795583251953126,-0.9496928453445435,-0.10676264762878418,-0.1127004623413086
1702140043145573600,8.81257373046875,-0.7754459977149963,-0.05043649673461914,-0.32087135314941406
1702140043162565000,8.829565185546874,-0.546303391456604,-0.1076974868774414,-0.34751319885253906
1702140043179556400,8.846556396484376,-0.4637971818447113,-0.1494913101196289,-0.2906045913696289
1702140043196551400,8.863551513671876,-0.4729776978492737,-0.1721210479736328,-0.15601348876953125
1702140043213539800,8.880539794921875,-0.5288493633270264,-0.15069103240966797,-0.13074684143066406
1702140043230526700,8.897526611328125,-0.4366203248500824,-0.10729312896728516,-0.2202749252319336
1702140043247518700,8.914518798828125,-0.3317147493362427,-0.1477217674255371,-0.2524995803833008
1702140043264510200,8.93151025390625,-0.09477928280830383,-0.11719107627868652,-0.26929378509521484
1702140043281500700,8.948500732421875,0.22563444077968597,-0.022242307662963867,-0.20457744598388672
1702140043298486300,8.965486328125,0.5255293250083923,0.0738525390625,0.070892333984375
1702140043315482600,8.982482666015626,0.3244050443172455,0.1866161823272705,0.3795928955078125
1702140043332475400,8.999475341796876,-0.31139856576919556,0.1334059238433838,0.4201536178588867
1702140043349463000,9.016463134765624,-0.8029849529266357,0.17781996726989746,0.2184619903564453
1702140043366454300,9.033454345703126,-0.8972753286361694,0.20440363883972168,0.08131122589111328
1702140043383448000,9.050447998046875,-0.7600879669189453,0.23734807968139648,0.013802528381347656
1702140043400437500,9.0674375,-0.5851844549179077,0.20365309715270996,-0.029870986938476562
1702140043417428000,9.084427978515626,-0.3451445996761322,0.19501566886901855,0.02062511444091797
1702140043434419200,9.101419189453125,-0.3974394202232361,0.26863861083984375,0.015069007873535156
1702140043451410200,9.11841015625,-0.6647104024887085,0.26444053649902344,-0.03174400329589844
1702140043468400600,9.135400634765626,-0.78380286693573,0.2209794521331787,-0.06971931457519531
1702140043485391400,9.152391357421875,-0.33663249015808105,0.13420987129211426,-0.0053882598876953125
1702140043502383900,9.1693837890625,-0.010025590658187866,0.13546037673950195,0.08500957489013672
1702140043519372500,9.18637255859375,-0.37996289134025574,0.1172487735748291,0.1033315658569336
1702140043536364300,9.2033642578125,-0.9507838487625122,0.19342565536499023,0.09428119659423828
1702140043553356000,9.22035595703125,-1.307125210762024,0.27947044372558594,-0.013265609741210938
1702140043570345500,9.237345458984375,-1.243279218673706,0.22725987434387207,-0.24704456329345703
1702140043587337200,9.254337158203125,-0.8577237129211426,0.060872793197631836,-0.2816286087036133
1702140043604328000,9.271327880859374,-0.4418575167655945,-0.09841108322143555,-0.2529449462890625
1702140043621318700,9.288318603515625,-0.09154477715492249,-0.2160334587097168,-0.07270336151123047
1702140043638310100,9.30531005859375,-0.09587293863296509,-0.21192073822021484,0.15521621704101562
1702140043655300600,9.322300537109374,-0.25316596031188965,-0.11369681358337402,0.13138771057128906
1702140043672294100,9.339294189453126,-0.4912729859352112,-0.0744469165802002,0.08853721618652344
1702140043689279500,9.356279541015626,-0.45951634645462036,-0.019768953323364258,-0.004357337951660156
1702140043706263300,9.37326318359375,-0.4018517732620239,0.05366849899291992,-0.21680641174316406
1702140043723264000,9.390263916015625,-0.3880440592765808,0.08270549774169922,-0.3375530242919922
1702140043740255700,9.407255859375,-0.3743939995765686,0.13370847702026367,-0.30351924896240234
1702140043757245400,9.424245361328126,-0.4647578001022339,0.1262824535369873,-0.20225143432617188
1702140043774237400,9.441237548828125,-0.6900438070297241,0.11071300506591797,-0.14404678344726562
1702140043791228000,9.458227783203125,-0.7927139401435852,0.08363199234008789,-0.2751016616821289
1702140043808218600,9.475218505859376,-0.7856556177139282,0.0850071907043457,-0.4265108108520508
1702140043825205200,9.492205322265624,-0.6403571367263794,0.060977935791015625,-0.45755672454833984
1702140043842200800,9.509200927734375,-0.6958698630332947,0.028259754180908203,-0.40036678314208984
1702140043859191600,9.526191650390626,-0.9837373495101929,-0.0579686164855957,-0.3509559631347656
1702140043876182300,9.543182373046875,-1.1392154693603516,-0.07945823669433594,-0.21209335327148438
1702140043893173000,9.560173095703124,-1.2140218019485474,-0.14956951141357422,-0.20535850524902344
1702140043910164200,9.577164306640626,-1.345841646194458,-0.42890381813049316,-0.18515682220458984
1702140043927144200,9.594144287109375,-1.205593228340149,-0.711174488067627,-0.21268939971923828
1702140043944133400,9.61113330078125,-0.6172747611999512,-0.8422544002532959,-0.1041107177734375
1702140043961138400,9.628138427734376,0.08528020977973938,-0.728905200958252,0.16698169708251953
1702140043978117400,9.645117431640625,0.17057844996452332,-0.300809383392334,0.4231243133544922
1702140043995118300,9.662118408203124,-0.3215041756629944,0.0872182846069336,0.4885215759277344
1702140044012109600,9.679109619140625,-0.8278529644012451,0.22049403190612793,0.3946828842163086
1702140044029099800,9.696099853515625,-0.9519917964935303,0.10708117485046387,0.21532154083251953
1702140044046091500,9.713091552734374,-0.7561454772949219,-0.11211752891540527,-0.057399749755859375
1702140044063081700,9.730081787109375,-0.5133354663848877,-0.44223690032958984,-0.2836732864379883
1702140044080072700,9.74707275390625,-0.13658353686332703,-0.6299424171447754,-0.4137229919433594
1702140044097063700,9.764063720703126,0.014452129602432251,-0.6779191493988037,-0.37579345703125
1702140044114052400,9.78105224609375,-0.14989730715751648,-0.5534706115722656,-0.29886341094970703
1702140044131048200,9.798048095703125,-0.26730823516845703,-0.43695878982543945,-0.22053813934326172
1702140044148036600,9.81503662109375,-0.28298431634902954,-0.3327059745788574,-0.19557857513427734
1702140044165027300,9.83202734375,0.09068771451711655,-0.1881563663482666,-0.13938236236572266
1702140044182018300,9.849018310546874,0.2032483071088791,-0.07726907730102539,-0.1835041046142578
1702140044199009300,9.86600927734375,0.09991946816444397,-0.06391382217407227,-0.3818826675415039
1702140044215995600,9.88299560546875,0.003109961748123169,0.006613969802856445,-0.6035537719726562
1702140044232990700,9.89999072265625,-0.1053856909275055,-0.0378262996673584,-0.4501485824584961
1702140044249982000,9.91698193359375,-0.10352512449026108,-0.07355546951293945,-0.16749000549316406
1702140044266972400,9.933972412109375,-0.29648780822753906,-0.0006544589996337891,-0.03584098815917969
1702140044283963400,9.95096337890625,-0.4252591133117676,0.0909433364868164,-0.06308174133300781
1702140044300954400,9.967954345703125,-0.3638054430484772,0.1606292724609375,-0.1635723114013672
1702140044317945600,9.984945556640625,-0.2290351390838623,0.23246073722839355,-0.21618175506591797
1702140044334948000,10.001947998046875,-0.35233718156814575,0.26590847969055176,-0.1365203857421875
1702140044351927300,10.01892724609375,-0.5149943828582764,0.3725316524505615,-0.017803192138671875
1702140044368919300,10.035919189453125,-0.6107726097106934,0.33850693702697754,0.17775917053222656
1702140044385907700,10.05290771484375,-0.6139521598815918,0.3190133571624756,0.3195362091064453
1702140044402896100,10.069896240234375,-0.5053148865699768,0.3424112796783447,0.3892536163330078
1702140044419894300,10.086894287109375,-0.4890687167644501,0.3116343021392822,0.3768348693847656
1702140044436871000,10.103870849609375,-0.5803692936897278,0.2324533462524414,0.4119873046875
1702140044453872600,10.12087255859375,-0.8133172392845154,0.08996248245239258,0.4027738571166992
1702140044470863600,10.137863525390625,-0.8979579210281372,-0.05358552932739258,0.28153038024902344
1702140044487854600,10.1548544921875,-0.6441935300827026,-0.07160735130310059,0.11524486541748047
1702140044504845000,10.171844970703125,-0.3747663199901581,-0.07059121131896973,-0.16191387176513672
1702140044521836300,10.188836181640625,-0.16409485042095184,-0.09341049194335938,-0.24179458618164062
1702140044538827300,10.2058271484375,0.012266531586647034,-0.2177140712738037,-0.19260597229003906
1702140044555818000,10.22281787109375,0.06480193138122559,-0.31256937980651855,-0.17223548889160156
1702140044572796200,10.239796142578125,-0.3507281541824341,-0.3458065986633301,-0.1352529525756836
1702140044589800200,10.25680029296875,-0.8590555191040039,-0.2962217330932617,-0.18726730346679688
1702140044606780400,10.273780517578125,-0.9494168758392334,-0.2814657688140869,-0.16344547271728516
1702140044623771000,10.29077099609375,-0.47615283727645874,-0.2873725891113281,-0.08476924896240234
1702140044640762600,10.3077626953125,-0.02677902579307556,-0.3344883918762207,-0.014565467834472656
1702140044657753000,10.324753173828125,-0.08255976438522339,-0.33502888679504395,0.14611053466796875
1702140044674746600,10.34174658203125,-0.7155659198760986,-0.22263121604919434,0.2133932113647461
1702140044691736600,10.358736572265625,-1.1923378705978394,-0.1414337158203125,-0.053542137145996094
1702140044708728600,10.375728515625,-1.056706190109253,-0.07243943214416504,-0.38350868225097656
1702140044725717000,10.392717041015626,-0.41346925497055054,-0.1423015594482422,-0.48901844024658203
1702140044742707000,10.40970703125,0.20564788579940796,-0.21976971626281738,-0.2808265686035156
1702140044759700000,10.426699951171875,0.36814263463020325,-0.21669578552246094,0.07462692260742188
1702140044776696300,10.4436962890625,0.20288270711898804,-0.18143463134765625,0.24368858337402344
1702140044793679600,10.4606796875,0.035730525851249695,-0.17733430862426758,0.2816734313964844
1702140044810671400,10.47767138671875,-0.15080179274082184,-0.1768019199371338,0.16449260711669922
1702140044827667200,10.494667236328125,-0.259823739528656,-0.1865825653076172,-0.07241439819335938
1702140044844652500,10.511652587890625,-0.2879851460456848,-0.18316173553466797,-0.19464683532714844
1702140044861643000,10.52864306640625,-0.22450082004070282,-0.16217494010925293,-0.19597434997558594
1702140044878636500,10.545636474609376,-0.19583530724048615,-0.1336812973022461,-0.009511947631835938
1702140044895627800,10.562627685546875,-0.15970593690872192,-0.045430660247802734,0.02758026123046875
1702140044912616400,10.579616455078124,-0.20987087488174438,-0.04674053192138672,-0.02682018280029297
1702140044929610200,10.5966103515625,-0.2207086831331253,-0.14847254753112793,-0.07219505310058594
1702140044946610200,10.613610107421875,-0.1523946076631546,-0.1807234287261963,-0.11251544952392578
1702140044963599000,10.63059912109375,0.03753560408949852,-0.19881272315979004,-0.03240966796875
1702140044980590000,10.647590087890626,0.28336310386657715,-0.13705801963806152,0.1350250244140625
1702140044997565700,10.664565673828125,0.29577311873435974,-0.057866573333740234,0.3229217529296875
1702140045014571800,10.68157177734375,0.10590922832489014,0.0004596710205078125,0.3953714370727539
1702140045031563000,10.69856298828125,-0.10156607627868652,0.019911766052246094,0.26337242126464844
1702140045048553500,10.715553466796875,-0.188044011592865,-0.09035944938659668,0.09470272064208984
1702140045065545000,10.732544921875,-0.02297993004322052,-0.17133188247680664,-0.11421585083007812
1702140045082535400,10.749535400390625,0.3281954228878021,-0.20961809158325195,-0.29990482330322266
1702140045099526700,10.766526611328125,0.5744678974151611,-0.2262403964996338,-0.37784385681152344
1702140045116518700,10.7835185546875,0.5092262625694275,-0.1570885181427002,-0.33322620391845703
1702140045133495800,10.800495849609375,0.006389297544956207,-0.15332722663879395,-0.2614603042602539
1702140045150502000,10.817501953125,-0.5334590673446655,-0.1642754077911377,-0.20884990692138672
1702140045167490000,10.834489990234376,-0.6784877777099609,-0.1537187099456787,-0.20688915252685547
1702140045184482000,10.85148193359375,-0.3966141939163208,-0.15124750137329102,-0.19350910186767578
1702140045201471000,10.868470947265624,-0.1731845736503601,-0.2013852596282959,-0.1611614227294922
1702140045218462700,10.885462646484376,-0.12090332806110382,-0.19948816299438477,-0.2711219787597656
1702140045235453700,10.90245361328125,-0.17466187477111816,-0.3254241943359375,-0.2879199981689453
1702140045252442400,10.9194423828125,-0.4002683758735657,-0.5704221725463867,-0.12456226348876953
1702140045269437400,10.9364375,-0.3081012964248657,-0.5183019638061523,0.09238624572753906
1702140045286426000,10.953426025390625,0.01092548668384552,-0.3055567741394043,0.13677501678466797
1702140045303417300,10.970417236328124,0.3623185157775879,-0.04734086990356445,-0.051009178161621094
1702140045320407800,10.98740771484375,0.5751575827598572,0.09728717803955078,-0.3222789764404297
1702140045337399300,11.0043994140625,0.48449641466140747,0.0640714168548584,-0.6122417449951172
1702140045354387700,11.0213876953125,0.15390649437904358,-0.05902671813964844,-0.7709321975708008
1702140045371382800,11.0383828125,-0.26016169786453247,-0.1863563060760498,-0.6682205200195312
1702140045388371700,11.055371826171875,-0.548525333404541,-0.3101985454559326,-0.37203502655029297
1702140045405363000,11.072363037109374,-0.5685146450996399,-0.42691707611083984,0.13076019287109375
1702140045422353400,11.089353515625,-0.44004857540130615,-0.3486652374267578,0.4376974105834961
1702140045439344400,11.106344482421875,-0.39541488885879517,-0.08626294136047363,0.43830013275146484
1702140045456335000,11.123335205078124,-0.501797080039978,0.07874345779418945,0.33699989318847656
1702140045473324800,11.14032470703125,-0.3289901316165924,0.14859604835510254,0.15727710723876953
1702140045490307800,11.157307861328125,-0.2109668254852295,0.011941194534301758,-0.02633380889892578
1702140045507306500,11.174306396484376,-0.18557053804397583,-0.11420750617980957,-0.19998455047607422
1702140045524300300,11.19130029296875,-0.1956215798854828,-0.24098801612854004,-0.2476339340209961
1702140045541290200,11.208290283203125,-0.2780570387840271,-0.2664151191711426,-0.3354330062866211
1702140045558280700,11.22528076171875,-0.366129994392395,-0.3015623092651367,-0.3165102005004883
1702140045575271700,11.242271728515625,-0.30602067708969116,-0.25891613960266113,-0.24563026428222656
1702140045592259600,11.259259521484376,-0.47324877977371216,-0.260394811630249,-0.03374481201171875
1702140045609256200,11.276256103515625,-0.6758423447608948,-0.2051846981048584,0.04912281036376953
1702140045626244000,11.293244140625,-0.7811292409896851,-0.16941070556640625,0.006350517272949219
1702140045643235300,11.3102353515625,-0.6076699495315552,-0.1698610782623291,-0.09671497344970703
1702140045660225800,11.327225830078126,-0.2643476724624634,-0.15524744987487793,-0.22906970977783203
1702140045677217300,11.34421728515625,-0.16867364943027496,-0.2691974639892578,-0.20155906677246094
1702140045694207700,11.361207763671874,-0.3481371998786926,-0.3319406509399414,0.04568958282470703
1702140045711198500,11.378198486328126,-0.6954967379570007,-0.27248692512512207,0.16638660430908203
1702140045728189200,11.395189208984375,-0.8397996425628662,-0.13541388511657715,0.1949138641357422
1702140045745180700,11.4121806640625,-0.7750257849693298,-0.06699371337890625,0.19638729095458984
1702140045762171400,11.42917138671875,-0.568872332572937,-0.03412222862243652,0.1961679458618164
1702140045779162400,11.446162353515625,-0.4064963459968567,-0.07814955711364746,0.20872020721435547
1702140045796143000,11.46314306640625,-0.438987135887146,-0.0812387466430664,-0.0143585205078125
1702140045813144000,11.48014404296875,-0.4877985715866089,-0.06919407844543457,-0.37268638610839844
1702140045830134800,11.497134765625,-0.5557294487953186,-0.09331822395324707,-0.5477533340454102
1702140045847126000,11.5141259765625,-0.5185295343399048,-0.16219258308410645,-0.5600690841674805
1702140045864106000,11.53110595703125,-0.4827582836151123,-0.22779560089111328,-0.48516845703125
1702140045881108000,11.54810791015625,-0.47622150182724,-0.25299692153930664,-0.3321704864501953
1702140045898098700,11.5650986328125,-0.5113469362258911,-0.2766296863555908,-0.14993953704833984
1702140045915089700,11.582089599609375,-0.43585389852523804,-0.22074341773986816,-0.0053005218505859375
1702140045932079900,11.599079833984375,-0.324664831161499,-0.18841290473937988,0.12446784973144531
1702140045949071400,11.6160712890625,-0.32337307929992676,-0.18808817863464355,0.17261886596679688
1702140045966062000,11.63306201171875,-0.37183356285095215,-0.22489356994628906,0.13327789306640625
1702140045983053000,11.650052978515625,-0.3238852024078369,-0.2492084503173828,-0.041675567626953125
1702140046000033300,11.667033203125,-0.14419318735599518,-0.25081419944763184,-0.23055267333984375
1702140046017035300,11.68403515625,-0.032567188143730164,-0.2375776767730713,-0.26388072967529297
1702140046034025700,11.701025634765625,-0.07372589409351349,-0.2001047134399414,-0.16685009002685547
1702140046051016400,11.718016357421876,-0.21165643632411957,-0.13606929779052734,-0.09310245513916016
1702140046068007400,11.73500732421875,-0.43909651041030884,-0.2008988857269287,0.008810043334960938
1702140046084998700,11.75199853515625,-0.6027085185050964,-0.307694673538208,0.022180557250976562
1702140046101989400,11.7689892578125,-0.588878870010376,-0.3633151054382324,-0.08908271789550781
1702140046118980000,11.78597998046875,-0.45799770951271057,-0.38605737686157227,-0.15738582611083984
1702140046135970800,11.802970703125,-0.2754365801811218,-0.36284947395324707,-0.18145751953125
1702140046152962300,11.81996240234375,-0.22320277988910675,-0.34168529510498047,0.016546249389648438
1702140046169953000,11.836953125,-0.24422496557235718,-0.30129575729370117,0.2917757034301758
1702140046186943700,11.85394384765625,-0.3028002381324768,-0.19557571411132812,0.3029317855834961
1702140046203934500,11.8709345703125,-0.4827580451965332,-0.09165191650390625,0.14011478424072266
1702140046220923100,11.887923095703124,-0.5844303369522095,-0.06436944007873535,-0.04462146759033203
1702140046237908700,11.90490869140625,-0.5644713044166565,-0.1633760929107666,-0.20685863494873047
1702140046254907400,11.921907470703125,-0.3871736526489258,-0.24114370346069336,-0.38474369049072266
1702140046271897900,11.93889794921875,-0.19672755897045135,-0.3249480724334717,-0.3889436721801758
1702140046288889600,11.9558896484375,-0.18401718139648438,-0.3034684658050537,-0.36565494537353516
1702140046305880300,11.97288037109375,-0.24666257202625275,-0.25974607467651367,-0.2927360534667969
1702140046322871000,11.98987109375,-0.1576766073703766,-0.15244674682617188,-0.2729988098144531
1702140046339861800,12.00686181640625,-0.07438027858734131,-0.10228967666625977,-0.2823019027709961
1702140046356842500,12.023842529296875,-0.021442100405693054,-0.15124940872192383,-0.1230783462524414
1702140046373843700,12.04084375,-0.020491182804107666,-0.20214581489562988,0.011228561401367188
1702140046390834700,12.057834716796876,-0.089332714676857,-0.24955105781555176,-0.021348953247070312
1702140046407823000,12.074822998046875,0.02605186402797699,-0.2570815086364746,-0.13210678100585938
1702140046424801000,12.091801025390625,0.2944650650024414,-0.2461545467376709,-0.20418167114257812
1702140046441807400,12.108807373046876,0.483826220035553,-0.25045061111450195,-0.1691150665283203
1702140046458787600,12.12578759765625,0.43556398153305054,-0.2150716781616211,-0.19400501251220703
1702140046475788800,12.142788818359374,0.16677971184253693,-0.1566028594970703,-0.12413501739501953
1702140046492780300,12.1597802734375,-0.03750580549240112,-0.10233306884765625,-0.04512310028076172
1702140046509770200,12.176770263671875,-0.083659827709198,-0.1011970043182373,-0.08324432373046875
1702140046526762200,12.19376220703125,-0.03786109387874603,-0.12425994873046875,-0.12695693969726562
1702140046543752200,12.210752197265625,-0.06267224252223969,-0.11801791191101074,-0.15470218658447266
1702140046560733400,12.2277333984375,-0.06705772876739502,-0.05754542350769043,-0.21603679656982422
1702140046577723600,12.2447236328125,-0.11943705379962921,-0.015736818313598633,-0.24309444427490234
1702140046594725400,12.261725341796875,-0.26085373759269714,-0.016514062881469727,-0.2218761444091797
1702140046611716000,12.278716064453125,-0.27446210384368896,-0.04134869575500488,-0.09114742279052734
1702140046628699000,12.295698974609374,-0.18234394490718842,-0.0533595085144043,0.009696006774902344
1702140046645695200,12.3126953125,-0.18765079975128174,-0.02479076385498047,0.0817880630493164
1702140046662691600,12.329691650390625,-0.3561095595359802,0.03880906105041504,0.111846923828125
1702140046679688700,12.346688720703124,-0.6045709848403931,0.0054187774658203125,0.14162445068359375
1702140046696660200,12.36366015625,-0.542815089225769,0.00177001953125,0.2070169448852539
1702140046713661400,12.380661376953125,-0.2585327923297882,0.0021331310272216797,0.20339679718017578
1702140046730652400,12.39765234375,-0.01419919729232788,-0.029764890670776367,0.14528656005859375
1702140046747643100,12.41464306640625,0.06203024089336395,-0.08073735237121582,0.1691884994506836
1702140046764634600,12.431634521484375,-0.0888604074716568,-0.08818387985229492,0.12186908721923828
1702140046781625000,12.448625,-0.2739468216896057,-0.10660696029663086,-0.002803802490234375
1702140046798615800,12.46561572265625,-0.16502198576927185,-0.0944979190826416,-0.14337158203125
1702140046815609000,12.482609130859375,0.03325553238391876,-0.1941547393798828,-0.1652975082397461
1702140046832595700,12.499595703125,0.1421644389629364,-0.23148751258850098,-0.12264156341552734
1702140046849591600,12.516591552734376,0.06328888237476349,-0.235687255859375,-0.12179946899414062
1702140046866579500,12.533579345703124,-0.1051352322101593,-0.20621085166931152,-0.1535348892211914
1702140046883570200,12.550570068359375,-0.24757607281208038,-0.1748647689819336,-0.17990970611572266
1702140046900562000,12.56756201171875,-0.3436104953289032,-0.19973015785217285,-0.12516117095947266
1702140046917557800,12.584557861328125,-0.30552709102630615,-0.1827082633972168,-0.10988426208496094
1702140046934543000,12.601543212890626,-0.27080023288726807,-0.18563246726989746,-0.110015869140625
1702140046951534000,12.6185341796875,-0.15820203721523285,-0.2137138843536377,-0.09597969055175781
1702140046968525600,12.635525634765624,-0.14009876549243927,-0.2527487277984619,-0.07762432098388672
1702140046985511400,12.652511474609375,-0.2185591757297516,-0.30797410011291504,-0.09221267700195312
1702140047002504200,12.669504150390624,-0.35744935274124146,-0.30640625953674316,-0.18282699584960938
1702140047019502000,12.686502197265625,-0.4119725227355957,-0.2977120876312256,-0.20710277557373047
1702140047036489700,12.70348974609375,-0.337689608335495,-0.3414459228515625,-0.16971111297607422
1702140047053477400,12.720477294921874,-0.26120704412460327,-0.35847949981689453,-0.1953592300415039
1702140047070472700,12.73747265625,-0.18302004039287567,-0.3761863708496094,-0.31209850311279297
1702140047087458600,12.75445849609375,-0.1086755096912384,-0.38067150115966797,-0.3127269744873047
1702140047104455000,12.771454833984375,0.03702053427696228,-0.3642144203186035,-0.2605171203613281
1702140047121431000,12.78843115234375,0.14358177781105042,-0.3789021968841553,-0.24060916900634766
1702140047138425300,12.80542529296875,0.19046524167060852,-0.35431838035583496,-0.25310420989990234
1702140047155424800,12.8224248046875,0.12055539339780807,-0.2953517436981201,-0.3269214630126953
1702140047172414200,12.839414306640625,0.002520546317100525,-0.3152177333831787,-0.29908180236816406
1702140047189410600,12.85641064453125,-0.021992623805999756,-0.27359533309936523,-0.19878292083740234
1702140047206395400,12.8733955078125,0.02891087532043457,-0.2257382869720459,-0.1027688980102539
1702140047223388400,12.890388427734376,0.011172249913215637,-0.17850708961486816,-0.06898021697998047
1702140047240379600,12.907379638671875,-0.12671682238578796,-0.17900991439819336,-0.03872203826904297
1702140047257373200,12.924373291015625,-0.16106589138507843,-0.14540767669677734,0.014851570129394531
1702140047274358800,12.94135888671875,-0.022603794932365417,-0.07408261299133301,0.027980804443359375
1702140047291349200,12.958349365234374,0.06609949469566345,-0.014373779296875,0.056235313415527344
1702140047308335900,12.9753359375,-0.07952889800071716,0.01056528091430664,0.08066368103027344
1702140047325333800,12.992333740234375,-0.2660627067089081,0.014495372772216797,0.04696846008300781
1702140047342325000,13.009324951171875,-0.23158206045627594,0.01689600944519043,-0.008408546447753906
1702140047359305000,13.026304931640626,-0.09521757066249847,-0.0177152156829834,0.05611610412597656
1702140047376304600,13.0433046875,0.020484670996665955,0.02420663833618164,0.16327190399169922
1702140047393302500,13.060302490234376,-0.08006882667541504,0.02864360809326172,0.17526721954345703
1702140047410285800,13.077285888671875,-0.2523210942745209,0.043857574462890625,0.10560894012451172
1702140047427279000,13.094279052734375,-0.31186291575431824,0.0036880970001220703,0.07172012329101562
1702140047444270300,13.111270263671875,-0.20315171778202057,-0.0314326286315918,0.046484947204589844
1702140047461250600,13.12825048828125,-0.12464480102062225,-0.056183815002441406,0.016706466674804688
1702140047478241800,13.14524169921875,-0.039596110582351685,-0.05229473114013672,-0.08491897583007812
1702140047495243000,13.162242919921875,-0.03951609134674072,-0.06336259841918945,-0.1530303955078125
1702140047512236500,13.179236572265625,-0.06111191213130951,-0.09795832633972168,-0.1910409927368164
1702140047529222100,13.19622216796875,-0.11768966913223267,-0.11552715301513672,-0.14727210998535156
1702140047546215400,13.21321533203125,-0.11397400498390198,-0.11382484436035156,-0.04094409942626953
1702140047563206100,13.2302060546875,-0.17099818587303162,-0.0901341438293457,0.031823158264160156
1702140047580197600,13.24719775390625,-0.19360756874084473,-0.12149930000305176,0.011891365051269531
1702140047597188400,13.264188232421875,-0.06947550177574158,-0.1785578727722168,-0.043170928955078125
1702140047614179000,13.281178955078126,0.12433969974517822,-0.21646595001220703,-0.10447216033935547
1702140047631169800,13.298169677734375,0.15545502305030823,-0.27741241455078125,-0.12063884735107422
1702140047648161300,13.315161376953125,0.06452226638793945,-0.3131532669067383,-0.06788825988769531
1702140047665152000,13.332152099609376,0.022339612245559692,-0.29593801498413086,-0.07751655578613281
1702140047682143000,13.34914306640625,0.00831913948059082,-0.27882814407348633,-0.1453704833984375
1702140047699117600,13.36611767578125,0.063092440366745,-0.2943236827850342,-0.22812366485595703
1702140047716125000,13.383125,0.08978670835494995,-0.3230569362640381,-0.22363948822021484
1702140047733113000,13.400113037109374,-0.0003675520420074463,-0.3141510486602783,-0.21825695037841797
1702140047750106400,13.4171064453125,-0.13760408759117126,-0.29962849617004395,-0.24066543579101562
1702140047767097000,13.43409716796875,-0.1868171989917755,-0.287308931350708,-0.344940185546875
1702140047784088600,13.451088623046875,-0.08020442724227905,-0.2947573661804199,-0.25231170654296875
1702140047801079300,13.468079345703124,0.000040978193283081055,-0.28302717208862305,-0.07783794403076172
1702140047818070000,13.485070068359375,-0.053544461727142334,-0.26827049255371094,-0.01761913299560547
1702140047835061000,13.50206103515625,-0.0987737774848938,-0.24071097373962402,-0.02997112274169922
1702140047852052000,13.519052001953124,-0.06329497694969177,-0.2335505485534668,-0.024850845336914062
1702140047869043000,13.53604296875,0.04735550284385681,-0.29343557357788086,-0.0014677047729492188
1702140047886033400,13.553033447265625,0.09033626317977905,-0.28270387649536133,-0.020189285278320312
1702140047903024400,13.5700244140625,0.05190837383270264,-0.2537720203399658,-0.057763099670410156
1702140047920016000,13.587015869140625,0.024448096752166748,-0.23462247848510742,-0.11034679412841797
1702140047937006300,13.60400634765625,0.04529517889022827,-0.27222132682800293,-0.06698989868164062
1702140047953996000,13.62099609375,0.05631372332572937,-0.291978120803833,-0.000804901123046875
1702140047970989300,13.6379892578125,0.014670759439468384,-0.28608131408691406,-0.039775848388671875
1702140047987979500,13.6549794921875,-0.027197301387786865,-0.33362364768981934,-0.11792850494384766
1702140048004970000,13.671969970703126,0.02347773313522339,-0.3503551483154297,-0.16689586639404297
1702140048021961000,13.6889609375,0.14957532286643982,-0.34699559211730957,-0.17371463775634766
1702140048038949000,13.70594921875,0.22802695631980896,-0.3469393253326416,-0.18393516540527344
1702140048055945700,13.72294580078125,0.1618652641773224,-0.3311426639556885,-0.1827850341796875
1702140048072912100,13.739912109375,0.026041924953460693,-0.3016955852508545,-0.2384185791015625
1702140048089927000,13.756927001953125,-0.07020688056945801,-0.3047006130218506,-0.24638652801513672
1702140048106902300,13.77390234375,-0.08409738540649414,-0.28564906120300293,-0.158416748046875
1702140048123896300,13.790896240234375,-0.13522788882255554,-0.3100118637084961,-0.09856510162353516
1702140048140894500,13.80789453125,-0.07533791661262512,-0.264068603515625,-0.08241748809814453
1702140048157876700,13.824876708984375,-0.03378602862358093,-0.23704075813293457,-0.14364910125732422
1702140048174872600,13.84187255859375,0.06658267974853516,-0.21512937545776367,-0.17214679718017578
1702140048191861000,13.858861083984374,0.08560749888420105,-0.25126171112060547,-0.14789676666259766
1702140048208852200,13.875852294921875,-0.06879878044128418,-0.27261972427368164,-0.16456222534179688
1702140048225842400,13.892842529296875,-0.17728865146636963,-0.26260948181152344,-0.16656780242919922
1702140048242833400,13.90983349609375,-0.1528867483139038,-0.24692273139953613,-0.06860923767089844
1702140048259826700,13.92682666015625,-0.03841429948806763,-0.18132400512695312,-0.049025535583496094
1702140048276818400,13.943818359375,-0.031554609537124634,-0.21397018432617188,-0.06778621673583984
1702140048293806000,13.96080615234375,-0.07694181799888611,-0.24214649200439453,-0.07707595825195312
1702140048310798800,13.977798828125,-0.06935185194015503,-0.27045631408691406,-0.11512279510498047
1702140048327778600,13.994778564453124,-0.05261865258216858,-0.28333520889282227,-0.13361644744873047
1702140048344779800,14.01177978515625,-0.02366262674331665,-0.27071189880371094,-0.0995931625366211
1702140048361769500,14.02876953125,-0.022518008947372437,-0.2724180221557617,-0.03637218475341797
1702140048378759200,14.04575927734375,-0.05015301704406738,-0.26380133628845215,0.011945724487304688
1702140048395750100,14.062750244140625,-0.09419244527816772,-0.27645134925842285,-0.012983322143554688
1702140048412742100,14.0797421875,-0.11312481760978699,-0.3041810989379883,-0.05670356750488281
1702140048429734700,14.096734619140625,-0.0897509753704071,-0.31671953201293945,-0.12560176849365234
1702140048446726400,14.113726318359374,0.027017980813980103,-0.2961461544036865,-0.11794853210449219
1702140048463726300,14.130726318359375,0.05022352933883667,-0.2853977680206299,-0.10497283935546875
1702140048480704800,14.147704833984376,-0.020959526300430298,-0.2606046199798584,-0.12014198303222656
1702140048497695500,14.164695556640625,-0.025621414184570312,-0.255662202835083,-0.049941062927246094
1702140048514697000,14.181697021484375,-0.09245231747627258,-0.2343904972076416,-0.0660543441772461
1702140048531688000,14.19868798828125,-0.0805685818195343,-0.2315201759338379,-0.15952587127685547
1702140048548679000,14.215678955078126,0.005492299795150757,-0.22208595275878906,-0.23389530181884766
1702140048565669600,14.232669677734375,0.10206082463264465,-0.21393799781799316,-0.31187915802001953
1702140048582660400,14.249660400390624,0.12345081567764282,-0.23662304878234863,-0.2929868698120117
1702140048599649800,14.26664990234375,0.055591046810150146,-0.18674802780151367,-0.2914581298828125
1702140048616628700,14.283628662109376,0.027909845113754272,-0.16320371627807617,-0.2605152130126953
1702140048633633300,14.30063330078125,0.0058924853801727295,-0.11649847030639648,-0.24778175354003906
1702140048650624000,14.3176240234375,-0.03787025809288025,-0.1006324291229248,-0.1805582046508789
1702140048667615500,14.334615478515625,-0.009750127792358398,-0.06260800361633301,-0.08430099487304688
1702140048684606200,14.351606201171874,0.06672123074531555,-0.06267738342285156,0.06888008117675781
1702140048701597200,14.36859716796875,-0.027582675218582153,-0.05712747573852539,0.1696643829345703
1702140048718587600,14.385587646484375,-0.10211780667304993,-0.026638031005859375,0.1777362823486328
1702140048735579100,14.4025791015625,-0.17748215794563293,-0.004274606704711914,0.17041683197021484
1702140048752567000,14.419567138671875,-0.11348012089729309,-0.03473663330078125,0.1947345733642578
1702140048769563400,14.4365634765625,0.04289016127586365,-0.020089387893676758,0.15572071075439453
1702140048786551300,14.45355126953125,0.05215737223625183,-0.03760409355163574,0.1156606674194336
1702140048803542800,14.470542724609375,-0.056700944900512695,-0.0482172966003418,0.02380847930908203
1702140048820530200,14.4875302734375,-0.11177933216094971,-0.09436917304992676,-0.002956390380859375
1702140048837516500,14.5045166015625,-0.0979144275188446,-0.14206886291503906,-0.0158843994140625
1702140048854514700,14.5215146484375,-0.023306161165237427,-0.16597294807434082,-0.05819225311279297
1702140048871506000,14.538505859375,-0.012285888195037842,-0.20759296417236328,-0.03784656524658203
1702140048888497000,14.555496826171876,0.021274447441101074,-0.1825120449066162,-0.03639984130859375
1702140048905488100,14.572488037109375,0.016047298908233643,-0.17899489402770996,-0.0834665298461914
1702140048922478600,14.589478515625,-0.01588580012321472,-0.19095420837402344,-0.1206817626953125
1702140048939469800,14.6064697265625,-0.050465524196624756,-0.26600074768066406,-0.08675479888916016
1702140048956458800,14.623458740234375,-0.09210667014122009,-0.2934110164642334,-0.07712841033935547
1702140048973452500,14.64045263671875,-0.08810693025588989,-0.31131601333618164,-0.11539936065673828
1702140048990440700,14.657440673828125,-0.05036032199859619,-0.30917811393737793,-0.177459716796875
1702140049007433500,14.67443359375,0.02121901512145996,-0.32489991188049316,-0.24917030334472656
1702140049024424200,14.691424072265624,0.06623515486717224,-0.3342883586883545,-0.25782203674316406
1702140049041415200,14.708415283203125,0.02289634943008423,-0.3476994037628174,-0.21210765838623047
1702140049058406000,14.725406005859375,-0.05942755937576294,-0.3743441104888916,-0.17555809020996094
1702140049075397000,14.742397216796874,-0.07623657584190369,-0.33743810653686523,-0.23048973083496094
1702140049092385300,14.75938525390625,-0.05108159780502319,-0.3429567813873291,-0.22282695770263672
1702140049109381000,14.776381103515625,-0.02546641230583191,-0.33241748809814453,-0.1619243621826172
1702140049126369300,14.793369384765626,-0.05615508556365967,-0.34131383895874023,-0.10088920593261719
1702140049143360800,14.81036083984375,-0.12114447355270386,-0.3359668254852295,-0.1351776123046875
1702140049160351500,14.8273515625,-0.13139966130256653,-0.360074520111084,-0.20851993560791016
1702140049177342200,14.84434228515625,-0.06523358821868896,-0.35846662521362305,-0.2724456787109375
1702140049194332700,14.861332763671875,-0.01030820608139038,-0.35086631774902344,-0.3208484649658203
1702140049211313700,14.878313720703124,0.04608836770057678,-0.31951189041137695,-0.32056617736816406
1702140049228315100,14.895315185546876,0.029649317264556885,-0.2902641296386719,-0.24103546142578125
1702140049245303000,14.912302978515624,-0.0037261247634887695,-0.25088000297546387,-0.16119670867919922
1702140049262299100,14.929299072265625,-0.028786391019821167,-0.22553157806396484,-0.16337203979492188
1702140049279277800,14.94627783203125,-0.05844631791114807,-0.21487832069396973,-0.13160419464111328
1702140049296278800,14.96327880859375,-0.15087619423866272,-0.21017169952392578,-0.1000814437866211
1702140049313267000,14.980266845703126,-0.11755704879760742,-0.20163655281066895,-0.07938575744628906
1702140049330262800,14.9972626953125,-0.004844307899475098,-0.20251989364624023,-0.10795879364013672
1702140049347249000,15.014248779296874,0.13954707980155945,-0.17908859252929688,-0.14542484283447266
1702140049364240400,15.031240478515626,0.21700382232666016,-0.1491994857788086,-0.17274761199951172
1702140049381233000,15.04823291015625,0.19556593894958496,-0.15246987342834473,-0.12232398986816406
1702140049398224000,15.065223876953125,0.07513341307640076,-0.12318992614746094,-0.09010791778564453
1702140049415217000,15.082216796875,-0.03633001446723938,-0.10915827751159668,-0.0734090805053711
1702140049432201500,15.099201416015624,-0.001410841941833496,-0.1054847240447998,-0.0767984390258789
1702140049449210400,15.11621044921875,0.08441793918609619,-0.11058521270751953,-0.08055496215820312
1702140049466185000,15.13318505859375,0.18006941676139832,-0.08019089698791504,-0.05031871795654297
1702140049483181300,15.150181396484374,0.17208397388458252,-0.07377505302429199,0.00945281982421875
1702140049500169500,15.16716943359375,0.1292523741722107,-0.049840450286865234,0.03532218933105469
1702140049517157400,15.184157470703125,0.01290065050125122,-0.06587648391723633,0.09037303924560547
1702140049534151000,15.20115087890625,-0.048883289098739624,-0.0371706485748291,0.05189800262451172
1702140049551142400,15.218142333984375,-0.11620780825614929,-0.03488779067993164,-0.02996063232421875
1702140049568133400,15.23513330078125,-0.0718298852443695,-0.04743528366088867,-0.07425308227539062
1702140049585123800,15.252123779296875,0.03130713105201721,-0.0787668228149414,-0.09583473205566406
1702140049602114600,15.269114501953124,0.0850423276424408,-0.07468175888061523,-0.1251678466796875
1702140049619106300,15.286106201171876,0.10690444707870483,-0.06994962692260742,-0.11654090881347656
1702140049636096800,15.3030966796875,0.06621399521827698,-0.036316871643066406,-0.09708690643310547
1702140049653087500,15.32008740234375,0.01084485650062561,-0.052071332931518555,-0.04970073699951172
1702140049670078500,15.337078369140626,-0.11839908361434937,-0.05889081954956055,-0.0203399658203125
1702140049687070000,15.354070068359375,-0.21431779861450195,-0.057323455810546875,-0.015943527221679688
1702140049704060700,15.371060791015625,-0.17141979932785034,-0.03612780570983887,-0.0412750244140625
1702140049721051600,15.3880517578125,-0.08328375220298767,-0.053464412689208984,-0.05343437194824219
1702140049738031000,15.405031005859374,-0.05079957842826843,-0.10389494895935059,-0.03571796417236328
1702140049755033600,15.42203369140625,-0.1016416847705841,-0.14641356468200684,-0.0706338882446289
1702140049772024000,15.439024169921876,-0.08963361382484436,-0.11067914962768555,-0.10055828094482422
1702140049789015000,15.45601513671875,-0.03862634301185608,-0.09326171875,-0.06777572631835938
1702140049806005500,15.473005615234374,-0.030446678400039673,-0.08617734909057617,-0.05437469482421875
1702140049822991400,15.489991455078124,-0.03001171350479126,-0.06538748741149902,-0.09374427795410156
1702140049839987500,15.506987548828125,-0.030080705881118774,-0.08586430549621582,-0.08465290069580078
1702140049856978700,15.523978759765624,-0.026539891958236694,-0.09563112258911133,-0.04711437225341797
1702140049873969400,15.540969482421875,-0.10806596279144287,-0.12093496322631836,-0.013354301452636719
1702140049890960400,15.55796044921875,-0.1497918963432312,-0.15223073959350586,0.0294189453125
1702140049907953200,15.574953125,-0.1627746820449829,-0.20017504692077637,0.03270721435546875
1702140049924942000,15.591942138671875,-0.07891586422920227,-0.20009803771972656,-0.027265548706054688
1702140049941924600,15.608924560546875,0.10561886429786682,-0.16466140747070312,-0.13119220733642578
1702140049958924300,15.62592431640625,0.21936771273612976,-0.15072941780090332,-0.1515216827392578
1702140049975914800,15.642914794921875,0.16392835974693298,-0.16911721229553223,-0.12686538696289062
1702140049992906000,15.659906005859375,0.035257428884506226,-0.1502699851989746,-0.07811641693115234
1702140050009892900,15.676892822265625,-0.15566027164459229,-0.13213253021240234,-0.09558963775634766
1702140050026889200,15.69388916015625,-0.2245854139328003,-0.09525227546691895,-0.16730690002441406
1702140050043880400,15.71088037109375,-0.16654473543167114,-0.08081722259521484,-0.2639017105102539
1702140050060873000,15.727873046875,-0.01950356364250183,-0.11194229125976562,-0.22147083282470703
1702140050077849600,15.744849609375,0.07957220077514648,-0.11838674545288086,-0.10124778747558594
1702140050094849000,15.76184912109375,0.1370505690574646,-0.13542699813842773,-0.05784797668457031
1702140050111844600,15.7788447265625,0.07262247800827026,-0.10837841033935547,-0.11819171905517578
1702140050128833300,15.795833251953125,-0.027103036642074585,-0.08424186706542969,-0.11558151245117188
1702140050145823700,15.81282373046875,-0.07062524557113647,-0.054414987564086914,-0.09852981567382812
1702140050162815000,15.82981494140625,-0.048347294330596924,-0.07372713088989258,0.023040771484375
1702140050179805700,15.8468056640625,-0.0013225078582763672,-0.07512021064758301,0.10513782501220703
1702140050196786200,15.8637861328125,0.06636691093444824,-0.06819677352905273,0.21553611755371094
1702140050213787400,15.880787353515625,0.06435120105743408,-0.029176712036132812,0.37934207916259766
1702140050230779000,15.89777880859375,0.024031519889831543,-0.0677175521850586,0.39159297943115234
1702140050247769600,15.91476953125,-0.010576784610748291,-0.09327363967895508,0.2051563262939453
1702140050264760300,15.93176025390625,-0.08970332145690918,-0.1566450595855713,0.05162334442138672
1702140050281751300,15.948751220703125,-0.1276492178440094,-0.1776735782623291,-0.08823585510253906
1702140050298742500,15.965742431640624,-0.14560461044311523,-0.22969675064086914,-0.20826339721679688
1702140050315721000,15.982720947265625,-0.09828880429267883,-0.249542236328125,-0.27985382080078125
1702140050332725800,15.999725830078125,-0.07694095373153687,-0.2718517780303955,-0.2636070251464844
1702140050349704000,16.016703857421874,-0.08580940961837769,-0.27861881256103516,-0.2707338333129883
1702140050366706200,16.0337060546875,-0.037513285875320435,-0.26930904388427734,-0.29160118103027344
1702140050383696600,16.050696533203126,0.02374875545501709,-0.2799708843231201,-0.29282665252685547
1702140050400687600,16.0676875,0.13369527459144592,-0.29312849044799805,-0.2505617141723633
1702140050417667800,16.084667724609375,0.07899704575538635,-0.2900567054748535,-0.2057361602783203
1702140050434669600,16.101669677734375,-0.004412144422531128,-0.22814178466796875,-0.16498851776123047
1702140050451658500,16.118658447265624,-0.036217063665390015,-0.18369221687316895,-0.0806436538696289
1702140050468653300,16.1356533203125,-0.024818450212478638,-0.17718839645385742,-0.0017614364624023438
1702140050485641500,16.152641357421874,-0.05560651421546936,-0.20652484893798828,0.08130836486816406
1702140050502633500,16.169633544921876,-0.09340643882751465,-0.2003316879272461,0.015467643737792969
1702140050519624000,16.1866240234375,-0.1742040514945984,-0.20469141006469727,-0.08899688720703125
1702140050536615200,16.203615234375,-0.0935574471950531,-0.18212676048278809,-0.14600467681884766
1702140050553605000,16.220605224609375,0.09608617424964905,-0.18532633781433105,-0.11711788177490234
1702140050570596900,16.237596923828125,0.1767767071723938,-0.15912699699401855,-0.0963134765625
1702140050587587800,16.254587890625,0.08894792199134827,-0.14296936988830566,-0.06853771209716797
1702140050604578800,16.271578857421876,0.0006572306156158447,-0.09657859802246094,-0.03604602813720703
1702140050621583600,16.28858349609375,-0.05639451742172241,-0.06331920623779297,0.0015888214111328125
1702140050638561000,16.30556103515625,-0.06590265035629272,-0.030754804611206055,0.009469032287597656
1702140050655551000,16.322551025390624,-0.1075018048286438,-0.0038199424743652344,-0.04445171356201172
1702140050672539400,16.339539306640624,-0.1380232870578766,-0.010196447372436523,-0.03666973114013672
1702140050689535500,16.356535400390626,-0.10604140162467957,-0.0017154216766357422,-0.014353752136230469
1702140050706510300,16.37351025390625,-0.11605152487754822,0.007054567337036133,0.032050132751464844
1702140050723512300,16.39051220703125,-0.1491583287715912,0.015227556228637695,0.06892871856689453
1702140050740508400,16.40750830078125,-0.12518355250358582,0.05107760429382324,0.10999393463134766
1702140050757507600,16.424507568359374,-0.11107659339904785,0.06959748268127441,0.1260662078857422
1702140050774488000,16.441488037109377,-0.09175485372543335,0.0517580509185791,0.08828258514404297
1702140050791478500,16.458478515625,-0.03029954433441162,0.04209566116333008,0.04956817626953125
1702140050808469200,16.47546923828125,0.0023693442344665527,0.028157472610473633,0.025781631469726562
1702140050825460200,16.492460205078125,0.022908538579940796,0.03321266174316406,0.011803627014160156
1702140050842451700,16.50945166015625,-0.05564042925834656,0.0035157203674316406,0.035912513732910156
1702140050859442200,16.526442138671875,-0.04076746106147766,0.025764942169189453,0.060072898864746094
1702140050876433200,16.54343310546875,-0.04024907946586609,0.008055925369262695,0.09257221221923828
1702140050893421300,16.56042138671875,-0.053924560546875,-0.002641916275024414,0.052422523498535156
1702140050910417700,16.577417724609376,-0.05896490812301636,-0.010069847106933594,-0.04092884063720703
1702140050927405800,16.59440576171875,-0.026827484369277954,-0.05973339080810547,-0.0870065689086914
1702140050944396500,16.611396484375,0.027351200580596924,-0.12900781631469727,-0.1283416748046875
1702140050961385700,16.6283857421875,0.11064952611923218,-0.12940502166748047,-0.2074422836303711
1702140050978380500,16.645380615234377,0.166488915681839,-0.14155793190002441,-0.20902538299560547
1702140050995369700,16.66236962890625,0.16597405076026917,-0.12215185165405273,-0.19376182556152344
1702140051012360400,16.6793603515625,0.1398128867149353,-0.11610817909240723,-0.09709644317626953
1702140051029353500,16.696353515625,0.11820167303085327,-0.11087393760681152,-0.07185840606689453
1702140051046340400,16.71334033203125,0.06412440538406372,-0.08073186874389648,-0.056809425354003906
1702140051063332900,16.730332763671875,0.05963057279586792,-0.07912278175354004,-0.0036029815673828125
1702140051080324000,16.747323974609376,0.05593138933181763,-0.10439372062683105,0.05833244323730469
1702140051097304300,16.76430419921875,-0.019444406032562256,-0.10880875587463379,-0.02867603302001953
1702140051114304000,16.781303955078126,-0.02373310923576355,-0.12270188331604004,-0.12128734588623047
1702140051131299000,16.798299072265625,0.07439258694648743,-0.13878893852233887,-0.1993551254272461
1702140051148287500,16.81528759765625,0.17658066749572754,-0.14244318008422852,-0.18056583404541016
1702140051165278200,16.8322783203125,0.1807851791381836,-0.12587690353393555,-0.09850597381591797
1702140051182270000,16.84927001953125,0.0326804518699646,-0.11592888832092285,-0.07304859161376953
1702140051199260200,16.86626025390625,-0.09828788042068481,-0.11607193946838379,-0.08194923400878906
1702140051216251100,16.883251220703126,-0.0920325219631195,-0.13446378707885742,-0.10099220275878906
1702140051233238000,16.900238037109375,0.033406615257263184,-0.12849187850952148,-0.13560962677001953
1702140051250237400,16.917237548828126,0.09443414211273193,-0.12615466117858887,-0.15894031524658203
1702140051267224000,16.93422412109375,0.07567283511161804,-0.12258672714233398,-0.12394905090332031
1702140051284215000,16.951215087890624,0.012201189994812012,-0.12158489227294922,-0.054386138916015625
1702140051301205800,16.968205810546873,-0.02748781442642212,-0.10229635238647461,-0.009443283081054688
1702140051318194000,16.98519384765625,-0.05173879861831665,-0.08836174011230469,0.054904937744140625
1702140051335187500,17.0021875,-0.13296663761138916,-0.05784773826599121,0.0802774429321289
1702140051352178700,17.0191787109375,-0.20636633038520813,-0.07249259948730469,0.013123512268066406
1702140051369167400,17.03616748046875,-0.1953950822353363,-0.09763574600219727,-0.0833292007446289
1702140051386162400,17.053162353515624,-0.07227402925491333,-0.12231826782226562,-0.15680313110351562
1702140051403151400,17.0701513671875,0.019406914710998535,-0.1642160415649414,-0.147369384765625
1702140051420142300,17.087142333984374,0.03460994362831116,-0.14136481285095215,-0.13640689849853516
1702140051437132800,17.1041328125,-0.030477553606033325,-0.11697196960449219,-0.0668649673461914
1702140051454124000,17.1211240234375,-0.08125320076942444,-0.08901619911193848,-0.02144622802734375
1702140051471115000,17.138114990234374,-0.073967844247818,-0.07133889198303223,0.013360023498535156
1702140051488109600,17.155109619140624,-0.11565634608268738,-0.050633907318115234,0.023792266845703125
1702140051505096700,17.1720966796875,-0.12850356101989746,-0.0261385440826416,0.0007457733154296875
1702140051522087000,17.1890869140625,-0.10432219505310059,-0.05521988868713379,-0.05277442932128906
1702140051539080000,17.206079833984376,-0.11722257733345032,-0.09979987144470215,-0.07239246368408203
1702140051556057600,17.2230576171875,-0.07312920689582825,-0.13010597229003906,-0.14067554473876953
1702140051573052700,17.240052734375,-0.007385879755020142,-0.14536261558532715,-0.19343090057373047
1702140051590048800,17.257048828125,0.08625328540802002,-0.14334726333618164,-0.21308135986328125
1702140051607044600,17.274044677734373,0.16906875371932983,-0.1187744140625,-0.16798114776611328
1702140051624020500,17.2910205078125,0.2613374590873718,-0.08728647232055664,-0.060520172119140625
1702140051641013800,17.308013671875,0.220333069562912,-0.0423581600189209,-0.009553909301757812
1702140051658005800,17.325005859375,0.08317723870277405,-0.02354121208190918,-0.016580581665039062
1702140051674998800,17.341998779296876,0.002517133951187134,-0.05402374267578125,-0.00028896331787109375
1702140051691991800,17.35899169921875,0.002331256866455078,-0.07558560371398926,0.04358196258544922
1702140051708977400,17.375977294921874,0.05157133936882019,-0.06984972953796387,-0.043112754821777344
1702140051725969700,17.3929697265625,0.06382086873054504,-0.06363463401794434,-0.12398815155029297
1702140051742960000,17.409960205078125,0.04923182725906372,-0.07405304908752441,-0.09386444091796875
1702140051759952400,17.426952392578126,0.10004907846450806,-0.020908832550048828,-0.0011386871337890625
1702140051776941000,17.443941162109375,0.06393066048622131,-0.009047508239746094,0.08587360382080078
1702140051793934600,17.4609345703125,-0.020569980144500732,-0.014240741729736328,0.03833198547363281
1702140051810926600,17.477926513671875,-0.05136314034461975,-0.050042152404785156,-0.0104522705078125
1702140051827917000,17.4949169921875,-0.03571200370788574,-0.08572030067443848,-0.09773826599121094
1702140051844906000,17.511906005859377,0.004062682390213013,-0.10609841346740723,-0.1420001983642578
1702140051861896700,17.528896728515626,0.052708208560943604,-0.08965086936950684,-0.12250804901123047
1702140051878889000,17.545888916015624,0.007041275501251221,-0.06831574440002441,-0.09292316436767578
1702140051895879400,17.56287939453125,-0.06149670481681824,-0.07082390785217285,-0.0626516342163086
1702140051912870700,17.57987060546875,-0.11001968383789062,-0.05496478080749512,-0.004160881042480469
1702140051929861400,17.596861328125,-0.0924558937549591,-0.07891154289245605,-0.009002685546875
1702140051946853600,17.613853515625,-0.04599925875663757,-0.10758590698242188,-0.01922607421875
1702140051963841300,17.63084130859375,0.03268158435821533,-0.09702205657958984,-0.06285285949707031
1702140051980844500,17.647844482421874,0.015811443328857422,-0.09139823913574219,-0.11046314239501953
1702140051997833700,17.664833740234375,0.004489511251449585,-0.07992982864379883,-0.090728759765625
1702140052014808600,17.68180859375,-0.0459689199924469,-0.06769943237304688,-0.04622936248779297
1702140052031817700,17.698817626953126,-0.08585324883460999,-0.07117652893066406,-0.021698951721191406
1702140052048803300,17.71580322265625,-0.12476345896720886,-0.0848090648651123,-0.03522014617919922
1702140052065792800,17.732792724609375,-0.1340014636516571,-0.09385967254638672,-0.039794921875
1702140052082792400,17.74979248046875,-0.05339333415031433,-0.10263323783874512,-0.025775909423828125
1702140052099779000,17.766779052734375,0.05761164426803589,-0.07225823402404785,-0.059604644775390625
1702140052116758800,17.7837587890625,0.07883262634277344,-0.07041144371032715,-0.07422351837158203
1702140052133761000,17.800760986328125,0.043226927518844604,-0.039804935455322266,-0.09213447570800781
1702140052150751500,17.81775146484375,-0.05216258764266968,-0.07648587226867676,-0.03811359405517578
1702140052167742700,17.83474267578125,-0.13877719640731812,-0.0659489631652832,-0.04177093505859375
1702140052184733200,17.851733154296873,-0.17341989278793335,-0.08924651145935059,-0.06548786163330078
1702140052201724700,17.868724609375,-0.08751806616783142,-0.09311270713806152,-0.09945106506347656
1702140052218712600,17.885712646484375,0.059129536151885986,-0.1002652645111084,-0.11437606811523438
1702140052235708700,17.902708740234374,0.13005298376083374,-0.06736207008361816,-0.0751943588256836
1702140052252696800,17.91969677734375,0.12618771195411682,-0.03828144073486328,-0.02958202362060547
1702140052269688300,17.936688232421876,0.0423738956451416,-0.0006690025329589844,0.020717620849609375
1702140052286679000,17.953678955078125,-0.10378658771514893,0.01626443862915039,0.04232215881347656
1702140052303670000,17.970669921875,-0.1833760142326355,0.00782465934753418,0.110595703125
1702140052320660500,17.987660400390624,-0.17853832244873047,-0.027483224868774414,0.13322162628173828
1702140052337651700,18.004651611328125,-0.08157393336296082,-0.022471904754638672,0.030107498168945312
1702140052354642700,18.021642578125,0.010906517505645752,-0.05610013008117676,-0.06354618072509766
1702140052371633700,18.038633544921876,0.11483937501907349,-0.07376623153686523,-0.10871028900146484
1702140052388624400,18.055624267578125,0.12368154525756836,-0.0700080394744873,-0.10494327545166016
1702140052405615600,18.07261572265625,0.038104236125946045,-0.05606818199157715,-0.02235126495361328
1702140052422606000,18.089606201171875,-0.11873969435691833,-0.029491424560546875,0.0022220611572265625
1702140052439596000,18.106595947265625,-0.1611567735671997,-0.023554086685180664,-0.018245697021484375
1702140052456589000,18.123589111328126,-0.10263264179229736,-0.07543563842773438,-0.005963325500488281
1702140052473579500,18.14057958984375,0.021694689989089966,-0.07913374900817871,-0.022491455078125
1702140052490569700,18.15756982421875,0.09289807081222534,-0.09711027145385742,-0.06769847869873047
1702140052507560700,18.174560791015626,0.10104608535766602,-0.06629395484924316,-0.1309194564819336
1702140052524541000,18.191541015625,0.07745590806007385,-0.08131241798400879,-0.059418678283691406
1702140052541543000,18.20854296875,-0.027410149574279785,-0.07796239852905273,-0.020882606506347656
1702140052558533600,18.22553369140625,-0.15016165375709534,-0.1041727066040039,0.013240814208984375
1702140052575524900,18.24252490234375,-0.16761735081672668,-0.08547258377075195,0.016391754150390625
1702140052592512500,18.259512451171876,-0.05423426628112793,-0.09059643745422363,-0.09659576416015625
1702140052609509400,18.27650927734375,0.11129796504974365,-0.12823104858398438,-0.1623849868774414
1702140052626497300,18.293497314453123,0.19524335861206055,-0.13892602920532227,-0.19240760803222656
1702140052643488000,18.310488037109376,0.15654772520065308,-0.14214086532592773,-0.14820480346679688
1702140052660479000,18.32747900390625,0.0347447395324707,-0.12609601020812988,-0.04065132141113281
1702140052677470200,18.34447021484375,-0.1080053448677063,-0.10043478012084961,-0.010468482971191406
1702140052694461000,18.3614609375,-0.17242199182510376,-0.0800325870513916,-0.00472259521484375
1702140052711441400,18.37844140625,-0.060100704431533813,-0.06575179100036621,-0.03437232971191406
1702140052728442600,18.395442626953123,0.0010823309421539307,-0.09157705307006836,-0.07394886016845703
1702140052745433900,18.412433837890624,0.03011074662208557,-0.12032532691955566,-0.12738037109375
1702140052762406700,18.42940673828125,0.014657437801361084,-0.11318588256835938,-0.12117958068847656
1702140052779415800,18.446415771484375,0.009684205055236816,-0.09955024719238281,-0.052521705627441406
1702140052796406000,18.463406005859376,-0.008842647075653076,-0.0475916862487793,0.011211395263671875
1702140052813395200,18.480395263671873,-0.0984671413898468,-0.03145742416381836,0.022891998291015625
1702140052830380300,18.49738037109375,-0.12340694665908813,-0.0028951168060302734,-0.005896568298339844
1702140052847376600,18.514376708984376,-0.10508769750595093,-0.03348898887634277,-0.06403446197509766
1702140052864372500,18.53137255859375,-0.04335206747055054,-0.05807638168334961,-0.0890188217163086
1702140052881361200,18.548361083984375,-0.06596994400024414,-0.10606932640075684,-0.11293888092041016
1702140052898340900,18.5653408203125,-0.040750652551651,-0.10411334037780762,-0.12229537963867188
1702140052915343000,18.582343017578125,0.04286879301071167,-0.08138060569763184,-0.06824398040771484
1702140052932333600,18.59933349609375,0.11622703075408936,-0.05723261833190918,-0.004977226257324219
1702140052949325000,18.616324951171876,0.09771358966827393,-0.025538921356201172,-0.0035905838012695312
1702140052966315500,18.6333154296875,0.02239280939102173,0.0066070556640625,-0.039943695068359375
1702140052983306200,18.65030615234375,-0.00014021992683410645,0.0012357234954833984,-0.004840850830078125
1702140053000297200,18.667297119140624,0.005675166845321655,-0.001089334487915039,0.0872182846069336
1702140053017288700,18.684288818359374,-0.07651287317276001,-0.0004935264587402344,0.035384178161621094
1702140053034279700,18.70127978515625,-0.126130610704422,0.012701749801635742,-0.026689529418945312
1702140053051269600,18.71826953125,-0.08944588899612427,-0.035802602767944336,-0.08522701263427734
1702140053068260900,18.7352607421875,0.057952553033828735,-0.06945180892944336,-0.0867462158203125
1702140053085249800,18.752249755859374,0.14256271719932556,-0.06444573402404785,-0.10644912719726562
1702140053102235400,18.7692353515625,0.1552228033542633,-0.0525205135345459,-0.09607887268066406
1702140053119234000,18.786234130859373,0.11656057834625244,-0.05402183532714844,-0.037497520446777344
1702140053136220000,18.803219970703125,0.009145110845565796,-0.03325605392456055,0.012258529663085938
1702140053153220600,18.820220703125,-0.03242328763008118,-0.03709220886230469,0.017251014709472656
1702140053170200800,18.837200927734376,-0.050582677125930786,-0.03275561332702637,-0.030321121215820312
1702140053187198000,18.854197998046875,-0.040121227502822876,-0.03777575492858887,-0.13103008270263672
1702140053204188400,18.8711884765625,-0.03361096978187561,-0.03154778480529785,-0.11208248138427734
1702140053221180000,18.888179931640625,-0.053829967975616455,-0.019075393676757812,-0.04350090026855469
1702140053238170400,18.90517041015625,-0.06395024061203003,-0.012497425079345703,0.02910137176513672
1702140053255161300,18.922161376953124,-0.13076913356781006,-0.01630568504333496,0.049190521240234375
1702140053272151600,18.939151611328125,-0.13229060173034668,-0.02628469467163086,0.015497207641601562
1702140053289143000,18.95614306640625,-0.06290802359580994,-0.02665400505065918,0.00010013580322265625
1702140053306123300,18.973123291015625,-0.0036153197288513184,-0.027723073959350586,-0.04407024383544922
1702140053323125000,18.990125,-0.028506577014923096,-0.047284603118896484,-0.049056053161621094
1702140053340115500,19.007115478515626,-0.09507116675376892,-0.0285186767578125,-0.03900623321533203
1702140053357107200,19.024107177734376,-0.1667727828025818,-0.048200130462646484,-0.028838157653808594
1702140053374098000,19.041097900390625,-0.10646447539329529,-0.03950381278991699,-0.03460502624511719
1702140053391088600,19.058088623046874,-0.03001171350479126,-0.04567980766296387,-0.0694265365600586
1702140053408079000,19.0750791015625,0.004527419805526733,-0.05594301223754883,-0.09855079650878906
1702140053425070300,19.0920703125,-0.004282534122467041,-0.06508064270019531,-0.09815788269042969
1702140053442061600,19.1090615234375,0.004254400730133057,-0.06726312637329102,-0.06373023986816406
1702140053459052800,19.126052734375,0.047310590744018555,-0.049202919006347656,-0.04883575439453125
1702140053476043300,19.143043212890625,-0.014274775981903076,-0.03720736503601074,-0.02793407440185547
1702140053493021400,19.160021484375,-0.05356687307357788,-0.015542268753051758,-0.059906959533691406
1702140053510019000,19.17701904296875,-0.09331852197647095,-0.007497549057006836,-0.025272369384765625
1702140053527017000,19.194016845703125,-0.01301795244216919,0.004362344741821289,-0.005915641784667969
1702140053543996200,19.21099609375,-0.039915621280670166,-0.00847482681274414,0.004281044006347656
1702140053560998100,19.227998046875,-0.049149006605148315,-0.025440216064453125,-0.01878643035888672
1702140053577988900,19.24498876953125,-0.02597382664680481,-0.05102968215942383,0.03016185760498047
1702140053594979800,19.261979736328126,0.010608047246932983,-0.02985405921936035,0.05478096008300781
1702140053611970000,19.278969970703123,0.028509825468063354,-0.0009722709655761719,0.035676002502441406
1702140053628961800,19.2959619140625,-0.02066221833229065,-0.010706663131713867,0.045104026794433594
1702140053645952800,19.312952880859374,-0.046344608068466187,-0.04165291786193848,0.053984642028808594
1702140053662943500,19.329943603515623,-0.17065152525901794,-0.07938194274902344,-0.047478675842285156
1702140053679934200,19.346934326171876,-0.15799278020858765,-0.07260370254516602,-0.19229412078857422
1702140053696925400,19.363925537109374,0.029528796672821045,-0.07608294486999512,-0.17422008514404297
1702140053713916000,19.380916015625,0.14776137471199036,-0.07810091972351074,-0.12204456329345703
1702140053730907100,19.3979072265625,0.05080154538154602,-0.052817583084106445,-0.1295337677001953
1702140053747897900,19.41489794921875,-0.0966309905052185,-0.02591252326965332,-0.07894229888916016
1702140053764889000,19.43188916015625,-0.10116127133369446,-0.017854928970336914,0.08055782318115234
1702140053781879600,19.448879638671876,-0.11745905876159668,-0.027985811233520508,0.15721416473388672
1702140053798870800,19.465870849609374,-0.1304653286933899,-0.05591392517089844,0.11747932434082031
1702140053815861200,19.482861328125,-0.055345773696899414,-0.08519554138183594,0.018715858459472656
1702140053832851500,19.4998515625,0.1017816960811615,-0.1293938159942627,-0.0949544906616211
1702140053849843700,19.51684375,0.23591825366020203,-0.17162656784057617,-0.13608074188232422
1702140053866834400,19.53383447265625,0.23738065361976624,-0.16829872131347656,-0.15091991424560547
1702140053883822600,19.550822509765624,0.15660476684570312,-0.13454437255859375,-0.12629985809326172
1702140053900808400,19.567808349609376,0.10214182734489441,-0.11576509475708008,-0.12090682983398438
1702140053917805800,19.584805908203126,0.10856324434280396,-0.09662079811096191,-0.11625957489013672
1702140053934799400,19.60179931640625,0.07702046632766724,-0.14434266090393066,-0.13547229766845703
1702140053951789000,19.6187890625,0.11143529415130615,-0.14182615280151367,-0.1827249526977539
1702140053968769800,19.635769775390624,0.12718531489372253,-0.11817693710327148,-0.18177509307861328
1702140053985771000,19.65277099609375,0.09602388739585876,-0.08368635177612305,-0.1119375228881836
1702140054002762000,19.669761962890625,0.003063023090362549,-0.03939557075500488,-0.04677295684814453
1702140054019752400,19.68675244140625,-0.07601103186607361,-0.053028106689453125,0.008417129516601562
1702140054036731100,19.703731201171873,-0.07782715559005737,-0.044672489166259766,0.019239425659179688
1702140054053734400,19.720734375,-0.08034616708755493,-0.06116461753845215,-0.003765106201171875
1702140054070725400,19.737725341796875,0.01752522587776184,-0.04911494255065918,-0.008317947387695312
1702140054087716400,19.75471630859375,0.0415290892124176,-0.041176557540893555,-0.0457763671875
1702140054104707800,19.771707763671873,0.03240305185317993,-0.03321361541748047,-0.05431556701660156
1702140054121698600,19.788698486328126,-0.009017348289489746,-0.04445171356201172,-0.014767646789550781
1702140054138689300,19.805689208984376,-0.0299532413482666,-0.01721787452697754,0.010923385620117188
1702140054155679700,19.8226796875,-0.09315186738967896,-0.014566659927368164,-0.0072498321533203125
1702140054172654800,19.83965478515625,-0.09996122121810913,0.006813764572143555,-0.00109100341796875
1702140054189661700,19.85666162109375,-0.05120289325714111,0.008426189422607422,-0.02034473419189453
1702140054206665700,19.873665771484376,-0.0009307265281677246,0.014368534088134766,-0.049513816833496094
1702140054223642600,19.890642578125,-0.03510153293609619,-0.008251667022705078,-0.08251476287841797
1702140054240635000,19.907634765625,-0.053102046251297,-0.0061414241790771484,0.00044727325439453125
1702140054257609200,19.924609130859373,-0.025851130485534668,0.0006263256072998047,0.010119438171386719
1702140054274616600,19.941616455078126,-0.013385236263275146,0.03029489517211914,0.0056514739990234375
1702140054291607300,19.958607177734375,-0.005789726972579956,0.012507915496826172,-0.022848129272460938
1702140054308598500,19.9755986328125,0.053469061851501465,-0.0006964206695556641,0.015170097351074219
1702140054325586700,19.992586669921874,0.03757026791572571,-0.000171661376953125,0.029645919799804688
1702140054342593000,20.009593017578126,-0.016894429922103882,0.013423919677734375,0.0014238357543945312
1702140054359570700,20.02657080078125,-0.08158180117607117,0.022227048873901367,-0.0653390884399414
1702140054376558600,20.04355859375,-0.05717042088508606,0.01717686653137207,-0.1184244155883789
1702140054393553200,20.06055322265625,0.05400308966636658,-0.006545066833496094,-0.12947654724121094
1702140054410543900,20.0775439453125,0.0883834958076477,-0.03014683723449707,-0.10077667236328125
1702140054427534600,20.09453466796875,0.05565723776817322,-0.04850029945373535,-0.11975955963134766
1702140054444526000,20.111526123046875,0.055251747369766235,-0.05576634407043457,-0.14777183532714844
1702140054461516800,20.128516845703125,0.03987479209899902,-0.06545281410217285,-0.11270523071289062
1702140054478514200,20.14551416015625,0.047205716371536255,-0.07514047622680664,-0.04932403564453125
1702140054495498500,20.16249853515625,-0.04176798462867737,-0.04674029350280762,-0.061614990234375
1702140054512487400,20.1794873046875,-0.07966259121894836,-0.01306009292602539,-0.0928802490234375
1702140054529482500,20.196482421875,-0.11101320385932922,-0.03586626052856445,-0.04756736755371094
1702140054546471400,20.213471435546875,-0.12233486771583557,-0.04887890815734863,-0.03103923797607422
1702140054563459600,20.23045947265625,-0.10813498497009277,-0.061533212661743164,-0.06238746643066406
1702140054580442000,20.247442138671875,-0.08104869723320007,-0.05852484703063965,-0.050576210021972656
1702140054597447400,20.264447509765624,0.005388826131820679,-0.03538656234741211,0.028516769409179688
1702140054614435000,20.28143505859375,-0.0007054060697555542,-0.018557310104370117,0.07410907745361328
1702140054631425800,20.29842578125,-0.10839055478572845,0.00967550277709961,0.00971221923828125
1702140054648417300,20.315417236328123,-0.24600635468959808,-0.011826038360595703,-0.0892953872680664
1702140054665405200,20.3324052734375,-0.24472376704216003,-0.10913658142089844,-0.07460403442382812
1702140054682401500,20.349401611328126,-0.16145825386047363,-0.14207696914672852,-0.18875885009765625
1702140054699382300,20.36638232421875,-0.037201642990112305,-0.15996456146240234,-0.20067214965820312
1702140054716381000,20.383380859375,0.08423592895269394,-0.020926952362060547,-0.21524906158447266
1702140054733368300,20.400368408203125,-0.05689437687397003,0.07528948783874512,-0.27523136138916016
1702140054750365200,20.417365234375,-0.3426024615764618,0.20771288871765137,-0.40459156036376953
1702140054767353000,20.43435302734375,-0.4840121865272522,0.2830231189727783,-0.4085664749145508
1702140054784344300,20.45134423828125,-0.31932586431503296,0.3442666530609131,-0.2888641357421875
1702140054801335000,20.4683349609375,-0.17669299244880676,0.4401428699493408,-0.25473690032958984
1702140054818326000,20.485325927734376,-0.11359621584415436,0.5785882472991943,-0.30564308166503906
1702140054835316700,20.502316650390625,-0.02346259355545044,0.7823095321655273,-0.3816661834716797
1702140054852308500,20.51930859375,-0.010546484962105751,0.9246470928192139,-0.35250091552734375
1702140054869298700,20.536298583984376,-0.13246876001358032,0.8485288619995117,-0.21959590911865234
1702140054886290000,20.5532900390625,-0.18867529928684235,0.6059532165527344,0.07895565032958984
1702140054903280600,20.57028076171875,-0.3051449656486511,0.23550796508789062,0.2061748504638672
1702140054920272000,20.58727197265625,-0.19280628859996796,-0.03739023208618164,0.28302764892578125
1702140054937275600,20.604275634765624,-0.026327427476644516,0.03839111328125,0.5032167434692383
1702140054954244400,20.621244384765625,-0.00892665982246399,0.2667868137359619,0.957097053527832
1702140054971244300,20.638244384765624,-0.13894523680210114,0.5550596714019775,1.2128028869628906
1702140054988235800,20.65523583984375,-0.23007775843143463,0.8873569965362549,1.2755908966064453
1702140055005226200,20.672226318359375,-0.22191214561462402,1.1311936378479004,1.3487005233764648
1702140055022217000,20.689217041015624,-0.12922416627407074,1.3305485248565674,1.271993637084961
1702140055039198200,20.7061982421875,-0.018713373690843582,1.4913790225982666,0.85272216796875
1702140055056187600,20.723187744140624,-0.01111234724521637,1.5894792079925537,0.2520275115966797
1702140055073192400,20.7401923828125,-0.210670605301857,1.6957123279571533,-0.16953086853027344
1702140055090180600,20.7571806640625,-0.4190438985824585,1.6774089336395264,-0.08591079711914062
1702140055107164000,20.774163818359376,-0.32086315751075745,1.7716093063354492,0.0679330825805664
1702140055124150000,20.79114990234375,-0.21720388531684875,1.8215947151184082,0.14990806579589844
1702140055141143600,20.8081435546875,-0.15125662088394165,1.884552240371704,0.09715747833251953
1702140055158136000,20.825135986328124,-0.1461496651172638,1.8914473056793213,0.1272125244140625
1702140055175127300,20.842127197265626,-0.26276397705078125,1.8641173839569092,0.16020584106445312
1702140055192119600,20.85911962890625,-0.3031289577484131,1.8536343574523926,0.21075153350830078
1702140055209108200,20.876108154296876,-0.2986738383769989,1.8844821453094482,0.3750886917114258
