time,seconds_elapsed,z,y,x
1701983691513966000,0.067966064453125,-0.08048149943351746,-0.40164390206336975,0.20128010213375092
1701983691530304000,0.084303955078125,-0.16523905098438263,-0.32070425152778625,0.19562959671020508
1701983691547307800,0.101307861328125,-0.17577648162841797,-0.13637566566467285,0.11682797968387604
1701983691564302300,0.11830224609375,-0.1586722433567047,0.009010262787342072,-0.09315694868564606
1701983691581293000,0.13529296875,-0.1238529309630394,0.02535090781748295,-0.2347249686717987
1701983691598282500,0.152282470703125,-0.10018189996480942,0.0024434609804302454,-0.17043140530586243
1701983691615276300,0.1692763671875,-0.10002918541431427,0.0064140851609408855,-0.03833179548382759
1701983691632270300,0.186270263671875,-0.12003502249717712,-0.03573561832308769,0.06780604273080826
1701983691649258000,0.203258056640625,-0.15302173793315887,-0.011759156361222267,0.22632557153701782
1701983691666252300,0.220252197265625,-0.2142609804868698,0.12247848510742188,0.37629300355911255
1701983691683246800,0.237246826171875,-0.18631389737129211,0.1420261710882187,0.413097620010376
1701983691700235300,0.2542353515625,-0.10659598559141159,0.15622878074645996,0.327271044254303
1701983691717239300,0.2712392578125,-0.10002918541431427,0.12751811742782593,0.1598939746618271
1701983691734221300,0.28822119140625,-0.09728029370307922,0.11438451707363129,-0.05513058975338936
1701983691751216000,0.305216064453125,-0.05803219974040985,0.1563815027475357,-0.12263119965791702
1701983691768204300,0.322204345703125,0.014049900695681572,0.23869559168815613,-0.06261368840932846
1701983691785198600,0.339198486328125,0.1033889427781105,0.2664899528026581,0.07635815441608429
1701983691802191600,0.356191650390625,0.22602014243602753,0.2125810980796814,0.17791450023651123
1701983691819183000,0.37318310546875,0.313373863697052,0.1774563491344452,0.19685132801532745
1701983691836171500,0.390171630859375,0.33399057388305664,0.2672535479068756,0.16279558837413788
1701983691853168400,0.40716845703125,0.25274550914764404,0.26419922709465027,0.01038470957428217
1701983691870159000,0.4241591796875,0.15424346923828125,0.2220495194196701,-0.21731531620025635
1701983691887153700,0.441153564453125,0.11988230794668198,0.2347249686717987,-0.4213443100452423
1701983691904144600,0.45814453125,0.1270599663257599,0.21533000469207764,-0.4251621961593628
1701983691921135000,0.475135009765625,0.10201449692249298,0.13988813757896423,-0.2515237629413605
1701983691938113800,0.49211376953125,0.006261368747800589,-0.12690725922584534,-0.156686931848526
1701983691955118800,0.509118896484375,0.014202617108821869,-0.418748140335083,-0.10018189996480942
1701983691972113400,0.526113525390625,0.048258353024721146,-0.4239404797554016,-0.07208210229873657
1701983691989103000,0.54310302734375,0.0013744467869400978,-0.35063666105270386,-0.07513642311096191
1701983692006094600,0.560094482421875,-0.04902193695306778,-0.31612277030944824,-0.06780604273080826
1701983692023091200,0.57709130859375,-0.08277224004268646,-0.22113321721553802,-0.060475658625364304
1701983692040082000,0.59408203125,-0.09056077152490616,-0.10980302840471268,-0.048258353024721146
1701983692057076000,0.611075927734375,-0.0933096632361412,-0.10415252298116684,-0.004886921960860491
1701983692074066700,0.628066650390625,-0.08720101416110992,-0.07742717117071152,0.04856378585100174
1701983692091057000,0.645056884765625,-0.076052725315094,-0.029932396486401558,0.07330382615327835
1701983692108052500,0.662052490234375,-0.0685696229338646,0.03940080851316452,0.051770828664302826
1701983692125045000,0.679044921875,-0.060933809727430344,0.1036943718791008,-0.041691552847623825
1701983692142035200,0.69603515625,-0.05390885844826698,0.15821409225463867,-0.1463022232055664
1701983692159025400,0.713025390625,-0.047800205647945404,0.18814650177955627,-0.2122756689786911
1701983692176021800,0.730021728515625,-0.037110064178705215,0.16493362188339233,-0.19120082259178162
1701983692193013000,0.747012939453125,-0.029932396486401558,0.06979135423898697,-0.10690141469240189
1701983692210002000,0.764001953125,-0.033597588539123535,-0.01038470957428217,0.012522737495601177
1701983692226997500,0.78099755859375,-0.03436116874217987,-0.05314527451992035,0.08506298810243607
1701983692243989800,0.79798974609375,-0.013591751456260681,-0.033597588539123535,0.08200865983963013
1701983692260979500,0.8149794921875,0.0010690141934901476,0.010690141469240189,0.06963863968849182
1701983692277974000,0.83197412109375,0.0009162978967651725,0.05268712714314461,0.07269296050071716
1701983692294965800,0.8489658203125,0.011301007121801376,0.10155634582042694,0.0503963828086853
1701983692311960000,0.8659599609375,0.011453723534941673,0.11392636597156525,0.03481931984424591
1701983692328948000,0.882947998046875,0.007635815534740686,0.09040805697441101,0.05360342562198639
1701983692345941800,0.899941650390625,0.01542434748262167,0.05421429127454758,0.05604688450694084
1701983692362945300,0.9169453125,0.04138612002134323,0.07880161702632904,0.0074830991216003895
1701983692379920600,0.933920654296875,0.031154127791523933,0.12690725922584534,-0.025503624230623245
1701983692396920300,0.95092041015625,-0.016340645030140877,0.029474247246980667,0.0006108652451075613
1701983692413910500,0.96791064453125,-0.022143865004181862,-0.040622539818286896,0.16737708449363708
1701983692430901000,0.98490087890625,-0.020005837082862854,-0.11835514008998871,0.3121521472930908
1701983692447897300,1.0018974609375,0.00809396430850029,-0.14217889308929443,0.36224308609962463
1701983692464888300,1.018888427734375,0.048258353024721146,-0.04444044828414917,0.3116939961910248
1701983692481882600,1.035882568359375,0.06444628536701202,0.12293662875890732,0.20387627184391022
1701983692498868500,1.052868408203125,0.07819075137376785,0.2866485118865967,0.07971791177988052
1701983692515866000,1.0698662109375,0.09758572280406952,0.40103304386138916,-0.001527163083665073
1701983692532857600,1.086857666015625,0.14966198801994324,0.5352706909179688,0.0074830991216003895
1701983692549846500,1.103846435546875,0.2580905556678772,0.6922630667686462,0.09758572280406952
1701983692566842600,1.120842529296875,0.3778201639652252,0.8118399381637573,0.2525927722454071
1701983692583836200,1.137836181640625,0.44104471802711487,0.8817839622497559,0.38957929611206055
1701983692600823000,1.154822998046875,0.43249258399009705,0.6148358583450317,0.4882340431213379
1701983692617818400,1.171818359375,0.2583959996700287,-0.02977968007326126,0.5386304259300232
1701983692634800400,1.18880029296875,0.10125091671943665,-0.1186605766415596,0.04703662544488907
1701983692651805000,1.205804931640625,0.04856378585100174,-0.04902193695306778,-0.2785545587539673
1701983692668792600,1.22279248046875,-0.057879481464624405,-0.2347249686717987,-0.31261029839515686
1701983692685786600,1.23978662109375,-0.15134187042713165,-0.4889976382255554,-0.25213462114334106
1701983692702781200,1.25678125,-0.1875356286764145,-0.6663012504577637,-0.1693623960018158
1701983692719769900,1.273769775390625,-0.22937989234924316,-0.755793035030365,-0.06459899991750717
1701983692736764400,1.290764404296875,-0.2477058619260788,-0.8045095205307007,0.014966198243200779
1701983692753757200,1.307757080078125,-0.22617286443710327,-0.7331910133361816,0.0607810914516449
1701983692770758000,1.3247578125,-0.2203696370124817,-0.578489363193512,0.06902777403593063
1701983692787742000,1.341741943359375,-0.25244006514549255,-0.4502076804637909,0.06811147183179855
1701983692804733000,1.35873291015625,-0.25366178154945374,-0.3978259861469269,0.0936150997877121
1701983692821714400,1.37571435546875,-0.20983220636844635,-0.3885102868080139,0.0988074541091919
1701983692838712600,1.392712646484375,-0.16630806028842926,-0.33567044138908386,0.03176499158143997
1701983692855712500,1.40971240234375,-0.15057829022407532,-0.21471913158893585,-0.09560041129589081
1701983692872703500,1.426703369140625,-0.13759739696979523,-0.07360926270484924,-0.17531833052635193
1701983692889691100,1.443691162109375,-0.1010981947183609,0.038179077208042145,-0.18906278908252716
1701983692906686500,1.4606865234375,-0.07696902006864548,0.1010981947183609,-0.1875356286764145
1701983692923680800,1.4776806640625,-0.05513058975338936,0.10903944820165634,-0.17959438264369965
1701983692940668700,1.494668701171875,-0.03985895588994026,0.0708603709936142,-0.1498146951198578
1701983692957663200,1.511663330078125,-0.038179077208042145,-0.005039638374000788,-0.1059851199388504
1701983692974655200,1.5286552734375,-0.03833179548382759,-0.04459316283464432,-0.0630718395113945
1701983692991649500,1.5456494140625,-0.03634648025035858,-0.038637228310108185,-0.013591751456260681
1701983693008638700,1.562638671875,-0.024129176512360573,-0.003512475173920393,0.01466076634824276
1701983693025628000,1.5796279296875,0.001679879380390048,0.014966198243200779,-0.0009162978967651725
1701983693042627000,1.596626953125,0.016493361443281174,0.018478672951459885,-0.015577063895761967
1701983693059612200,1.613612060546875,0.021838432177901268,-0.021532999351620674,-0.026419922709465027
1701983693076608800,1.63060888671875,0.026572637259960175,-0.018325956538319588,-0.04581489413976669
1701983693093601800,1.647601806640625,0.006872233934700489,0.010231993161141872,-0.08796459436416626
1701983693110590700,1.6645908203125,0.00015271631127689034,0.03680463135242462,-0.09941831976175308
1701983693127583000,1.6815830078125,0.0009162978967651725,0.06383541971445084,-0.00855211354792118
1701983693144577800,1.698577880859375,-0.009162978269159794,0.04092797264456749,0.08674286305904388
1701983693161568500,1.715568603515625,-0.00427605677396059,0.009926560334861279,0.10231992602348328
1701983693178548000,1.7325478515625,-0.0024434609804302454,-0.01771509274840355,0.05161811411380768
1701983693195554800,1.749554931640625,-0.005345070734620094,-0.06933320313692093,-0.011301007121801376
1701983693212545500,1.766545654296875,-0.016493361443281174,-0.13439035415649414,-0.04612032696604729
1701983693229538300,1.783538330078125,-0.019089538604021072,-0.14767667651176453,-0.05268712714314461
1701983693246531000,1.800531005859375,-0.0024434609804302454,-0.09178250283002853,-0.04092797264456749
1701983693263521800,1.817521728515625,0.02779436856508255,-0.027488935738801956,-0.04902193695306778
1701983693280516600,1.8345166015625,0.08338310569524765,-0.0074830991216003895,-0.0607810914516449
1701983693297502700,1.851502685546875,0.11362093687057495,0.02367102913558483,0.01160643994808197
1701983693314499300,1.868499267578125,0.15424346923828125,0.12889257073402405,0.11850785464048386
1701983693331495000,1.885494873046875,0.1638645976781845,0.1788308024406433,0.11850785464048386
1701983693348483800,1.90248388671875,0.17791450023651123,0.25854870676994324,0.05757404863834381
1701983693365474300,1.919474365234375,0.19685132801532745,0.36880987882614136,0.019394971430301666
1701983693382470700,1.936470703125,0.2041817009449005,0.4366159439086914,0.03375030308961868
1701983693399459300,1.953459228515625,0.20631973445415497,0.46868637204170227,0.05696318298578262
1701983693416453400,1.970453369140625,0.10766500234603882,0.3727805018424988,0.15531249344348907
1701983693433443800,1.98744384765625,0.020311269909143448,-0.04657847434282303,0.09651670604944229
1701983693450435300,2.004435302734375,0.041233405470848083,-0.22357667982578278,0.06658431142568588
1701983693467427300,2.02142724609375,0.00045814894838258624,-0.2883284091949463,0.00855211354792118
1701983693484407300,2.0384072265625,-0.07299839705228806,-0.16294831037521362,-0.058795779943466187
1701983693501404200,2.055404052734375,-0.14294247329235077,-0.09773843735456467,-0.17012597620487213
1701983693518406700,2.07240673828125,-0.144622340798378,-0.0630718395113945,-0.22189679741859436
1701983693535401000,2.08940087890625,-0.1612684279680252,-0.16050484776496887,-0.10735956579446793
1701983693552385000,2.106385009765625,-0.19013181328773499,-0.470060795545578,0.24297164380550385
1701983693569380900,2.123380859375,-0.230448916554451,-0.5942191481590271,0.5051855444908142
1701983693586375700,2.140375732421875,-0.19104810059070587,-0.5313000679016113,0.4657847583293915
1701983693603370000,2.157369873046875,-0.17669276893138885,-0.3205515444278717,0.25671613216400146
1701983693620357600,2.174357666015625,-0.14874568581581116,-0.009010262787342072,0.03329215571284294
1701983693637352700,2.191352783203125,-0.098502017557621,0.11392636597156525,-0.10567969083786011
1701983693654344700,2.2083447265625,-0.043676864355802536,0.1589776873588562,-0.11392636597156525
1701983693671339000,2.225339111328125,-0.01160643994808197,0.10354165732860565,-0.05497787147760391
1701983693688327000,2.242326904296875,-0.020616702735424042,0.03130684420466423,0.03237585723400116
1701983693705321500,2.259321533203125,-0.027488935738801956,-0.031001411378383636,0.08017606288194656
1701983693722315500,2.2763154296875,-0.047800205647945404,-0.06582073122262955,0.06368270516395569
1701983693739300400,2.29330029296875,-0.04795292019844055,-0.033597588539123535,0.029016099870204926
1701983693756291600,2.31029150390625,-0.030543262138962746,0.035124752670526505,0.00809396430850029
1701983693773291800,2.327291748046875,-0.008704829961061478,0.09056077152490616,-0.024129176512360573
1701983693790279700,2.34427978515625,0.019853120669722557,0.14049901068210602,-0.09636399149894714
1701983693807276000,2.361276123046875,0.054825156927108765,0.22388210892677307,-0.11713340878486633
1701983693824267000,2.37826708984375,0.08720101416110992,0.24404066801071167,-0.03573561832308769
1701983693841260800,2.3952607421875,0.11056660860776901,0.275347501039505,0.251676470041275
1701983693858249000,2.4122490234375,0.03130684420466423,-0.051770828664302826,0.328340083360672
1701983693875244000,2.429244140625,0.0013744467869400978,-0.20784689486026764,0.11331550031900406
1701983693892237600,2.446237548828125,0.03894266113638878,-0.07284568250179291,-0.05925392732024193
1701983693909225500,2.4632255859375,0.03894266113638878,0.06261368840932846,-0.1134682223200798
1701983693926220500,2.480220458984375,0.009773843921720982,0.02229658141732216,-0.05375614017248154
1701983693943215000,2.497215087890625,0.020005837082862854,-0.09407325088977814,0.025503624230623245
1701983693960202500,2.514202392578125,0.048258353024721146,-0.12889257073402405,0.07987063378095627
1701983693977195500,2.531195556640625,0.06475171446800232,-0.15882496535778046,0.07284568250179291
1701983693994191400,2.54819140625,0.05757404863834381,-0.12064588814973831,0.06536258012056351
1701983694011186200,2.565186279296875,0.025961773470044136,-0.0708603709936142,0.1459967941045761
1701983694028174600,2.582174560546875,-0.007941247895359993,-0.11316278576850891,0.39095374941825867
1701983694045161000,2.599160888671875,0.00366519158706069,-0.026419922709465027,0.41370847821235657
1701983694062161200,2.6161611328125,0.03955352306365967,0.3149010241031647,0.16142113506793976
1701983694079150000,2.633150146484375,0.04657847434282303,0.5855143666267395,0.010690141469240189
1701983694096142300,2.650142333984375,0.09315694868564606,0.671493649482727,-0.03940080851316452
1701983694113142800,2.667142822265625,0.182648703455925,0.6430884003639221,-0.12095131725072861
1701983694130125000,2.684125,0.2396118938922882,0.5613851547241211,-0.25045475363731384
1701983694147118000,2.7011181640625,0.17989981174468994,0.3588833212852478,-0.2324342280626297
1701983694164109800,2.71810986328125,0.08277224004268646,-0.06291911751031876,-0.3026837408542633
1701983694181103900,2.735103759765625,0.07177666574716568,-0.06368270516395569,-0.25473082065582275
1701983694198086700,2.752086669921875,-0.03084869496524334,-0.018936822190880775,-0.11499538272619247
1701983694215090000,2.76908984375,-0.13148874044418335,0.005039638374000788,-0.03833179548382759
1701983694232084500,2.78608447265625,-0.11407908797264099,0.07788532227277756,-0.06948592513799667
1701983694249070600,2.803070556640625,-0.03375030308961868,0.2539672255516052,-0.11438451707363129
1701983694266065000,2.82006494140625,0.02519819140434265,0.39477166533470154,-0.10445795953273773
1701983694283059500,2.8370595703125,0.07941248267889023,0.4236350357532501,-0.029932396486401558
1701983694300047000,2.854047119140625,0.09468411654233932,0.4108068645000458,0.10293079167604446
1701983694317045000,2.871044921875,0.08292495459318161,0.24602597951889038,0.244804248213768
1701983694334031000,2.888031005859375,0.06154467165470123,0.04764748737215996,0.3107776939868927
1701983694351025000,2.90502490234375,-0.014202617108821869,-0.3084869384765625,0.17287486791610718
1701983694368019200,2.922019287109375,-0.01191187184303999,-0.32910364866256714,-0.032681290060281754
1701983694385010400,2.939010498046875,-0.05619960278272629,-0.03222314268350601,-0.17730364203453064
1701983694402006300,2.95600634765625,-0.15424346923828125,-0.02015855349600315,-0.26221391558647156
1701983694418991600,2.97299169921875,-0.22418753802776337,-0.1823432743549347,-0.26053401827812195
1701983694435977000,2.98997705078125,-0.26939156651496887,-0.4992296099662781,0.009468411095440388
1701983694452980700,3.006980712890625,-0.21303924918174744,-0.2431243658065796,0.0403171069920063
1701983694469969400,3.023969482421875,-0.19532416760921478,-0.0403171069920063,-0.009010262787342072
1701983694486965500,3.040965576171875,-0.15317445993423462,0.07727445662021637,0.030695978552103043
1701983694503956200,3.057956298828125,-0.04963280260562897,0.03634648025035858,0.10934487730264664
1701983694520947000,3.074947021484375,0.02871066704392433,-0.018936822190880775,0.11071932315826416
1701983694537930500,3.091930419921875,0.059406645596027374,0.013591751456260681,0.025656340643763542
1701983694554933500,3.10893359375,0.03787364438176155,-0.021991148591041565,0.1592831164598465
1701983694571927000,3.125927001953125,0.008246680721640587,-0.21242839097976685,-0.00427605677396059
1701983694588899000,3.142899169921875,0.021838432177901268,-0.06230825558304787,-0.11331550031900406
1701983694605910000,3.159909912109375,-0.036041051149368286,0.02428189292550087,-0.06536258012056351
1701983694622904000,3.176904052734375,-0.08216137439012527,-0.022449297830462456,0.08567385375499725
1701983694639891500,3.193891357421875,-0.10445795953273773,-0.11881329119205475,0.15134187042713165
1701983694656886800,3.21088671875,-0.04108068719506264,-0.1411098688840866,0.1108720451593399
1701983694673879800,3.2278798828125,0.021838432177901268,-0.08689557760953903,0.010537425056099892
1701983694690868700,3.24486865234375,0.039248090237379074,0.036651913076639175,-0.06963863968849182
1701983694707874800,3.261874755859375,0.04932736977934837,0.17348572611808777,-0.06017022579908371
1701983694724846800,3.278846923828125,0.02672535367310047,0.15622878074645996,0.009010262787342072
1701983694741851100,3.29585107421875,0.00366519158706069,0.08597928285598755,0.07788532227277756
1701983694758838800,3.3128388671875,-0.023976460099220276,-0.040164388716220856,0.08246681094169617
1701983694775831600,3.32983154296875,-0.013744467869400978,-0.10720685124397278,0.0607810914516449
1701983694792825300,3.346825439453125,-0.014202617108821869,-0.12797626852989197,0.04688390716910362
1701983694809806800,3.363806884765625,-0.03527746722102165,-0.17027868330478668,0.05253441259264946
1701983694826807300,3.380807373046875,-0.015118914656341076,-0.06230825558304787,0.016493361443281174
1701983694843804400,3.397804443359375,0.04703662544488907,0.08277224004268646,-0.05925392732024193
1701983694860790500,3.41479052734375,0.06918048858642578,0.17256943881511688,-0.07666359096765518
1701983694877786400,3.431786376953125,0.017867809161543846,0.18219055235385895,-0.009468411095440388
1701983694894778000,3.448778076171875,-0.024129176512360573,0.20922134816646576,0.14752395451068878
1701983694911769000,3.46576904296875,-0.021991148591041565,0.15729780495166779,0.25534167885780334
1701983694928761900,3.482761962890625,0.027183502912521362,0.10384709388017654,0.2664899528026581
1701983694945754400,3.49975439453125,0.1010981947183609,0.19394971430301666,0.17150041460990906
1701983694962734600,3.516734619140625,0.1661553531885147,0.33017265796661377,0.054825156927108765
1701983694979736600,3.533736572265625,0.20952677726745605,0.43478333950042725,0.01924225501716137
1701983694996731000,3.55073095703125,0.22311852872371674,0.4488332271575928,0.01160643994808197
1701983695013725000,3.567724853515625,0.20861047506332397,0.3735440969467163,-0.009621127508580685
1701983695030713600,3.584713623046875,0.17272214591503143,0.35903605818748474,-0.010690141469240189
1701983695047708700,3.601708740234375,0.05360342562198639,0.013133603148162365,-0.06643159687519073
1701983695064699600,3.61869970703125,-0.014202617108821869,-0.3874412775039673,-0.15225815773010254
1701983695081694000,3.63569384765625,-0.06352998316287994,-0.39965859055519104,-0.17348572611808777
1701983695098682600,3.6526826171875,-0.18081611394882202,-0.28298333287239075,-0.17821992933750153
1701983695115676700,3.6696767578125,-0.26450464129447937,-0.3223841190338135,-0.20494529604911804
1701983695132670200,3.686670166015625,-0.3246748745441437,-0.42149701714515686,-0.2617557644844055
1701983695149658600,3.70365869140625,-0.33475416898727417,-0.7093672752380371,-0.08659014850854874
1701983695166655000,3.720655029296875,-0.2590068578720093,-0.5433646440505981,0.04459316283464432
1701983695183649300,3.737649169921875,-0.15256360173225403,-0.10995574295520782,-0.001679879380390048
1701983695200635100,3.75463525390625,-0.05345070734620094,0.1667662113904953,-0.020922135561704636
1701983695217631000,3.771630859375,0.04734205827116966,0.18738290667533875,0.08170322328805923
1701983695234607600,3.788607666015625,0.09285151958465576,0.0455094613134861,0.11942415684461594
1701983695251616000,3.805615966796875,0.12110403180122375,-0.0328340083360672,0.09346238523721695
1701983695268604200,3.822604248046875,0.10399980843067169,-0.09666942805051804,0.3341432809829712
1701983695285599000,3.839598876953125,0.039706241339445114,-0.3781255781650543,0.1843285858631134
1701983695302581800,3.856581787109375,0.05192354694008827,-0.1872301995754242,0.009621127508580685
1701983695319581200,3.873581298828125,0.003817907767370343,-0.01191187184303999,-0.06398813426494598
1701983695336573400,3.890573486328125,-0.014966198243200779,0.05115996301174164,0.029168816283345222
1701983695353571300,3.9075712890625,-0.04795292019844055,-0.04046982154250145,0.16493362188339233
1701983695370560000,3.92456005859375,-0.059406645596027374,-0.17867808043956757,0.15057829022407532
1701983695387550700,3.94155078125,-0.039248090237379074,-0.1609629988670349,0.04444044828414917
1701983695404546800,3.958546875,0.001679879380390048,-0.04382958263158798,-0.03497203439474106
1701983695421545500,3.97554541015625,0.009010262787342072,-0.01863138936460018,-0.04932736977934837
1701983695438527000,3.99252685546875,-0.012675453908741474,0.044287730008363724,0.02672535367310047
1701983695455521500,4.009521484375,-0.04245513305068016,-0.04948008432984352,0.10506882518529892
1701983695472514800,4.026514892578125,-0.05543602257966995,-0.26542094349861145,0.204487144947052
1701983695489503500,4.04350341796875,-0.05253441259264946,-0.42562034726142883,0.2840523421764374
1701983695506498800,4.060498779296875,-0.06062837690114975,-0.499382346868515,0.2588541507720947
1701983695523492000,4.0774921875,-0.06780604273080826,-0.42210787534713745,0.15485434234142303
1701983695540464600,4.094464599609375,-0.07452555745840073,-0.18387043476104736,0.016798794269561768
1701983695557465300,4.11146533203125,-0.08628471940755844,-0.16142113506793976,0.15821409225463867
1701983695574466800,4.128466796875,-0.014813481830060482,-0.05665775015950203,0.1941024363040924
1701983695591461600,4.145461669921875,0.025656340643763542,0.28756481409072876,0.11972958594560623
1701983695608441300,4.16244140625,0.03130684420466423,0.5545129179954529,0.045204028487205505
1701983695625442000,4.179442138671875,0.052228979766368866,0.6348416805267334,-0.05345070734620094
1701983695642440000,4.19643994140625,0.12217304855585098,0.5186246037483215,-0.15363261103630066
1701983695659427800,4.213427734375,0.15393804013729095,0.39324450492858887,-0.22418753802776337
1701983695676435700,4.230435791015625,0.09392052888870239,-0.01191187184303999,-0.3952298164367676
1701983695693411600,4.24741162109375,0.10812314599752426,-0.16249015927314758,-0.5532912015914917
1701983695710404600,4.264404541015625,0.11484266817569733,0.049785517156124115,-0.6687447428703308
1701983695727402800,4.28140283203125,0.003512475173920393,0.23915374279022217,-0.6496551632881165
1701983695744392000,4.298391845703125,-0.11194105446338654,0.055741455405950546,-0.5032002329826355
1701983695761374000,4.3153740234375,-0.16325373947620392,-0.164170041680336,-0.304669052362442
1701983695778372000,4.3323720703125,-0.13729196786880493,-0.4867068827152252,0.04489859566092491
1701983695795366100,4.3493662109375,-0.1342376321554184,-0.5697845816612244,0.35216382145881653
1701983695812357000,4.366357177734375,-0.08231408894062042,-0.2574796974658966,0.2883284091949463
1701983695829353700,4.383353759765625,-0.0734565481543541,0.05100724846124649,0.10491610318422318
1701983695846334000,4.400333984375,-0.02932153269648552,0.25045475363731384,0.039248090237379074
1701983695863334400,4.41733447265625,0.03634648025035858,0.17547103762626648,0.06368270516395569
1701983695880329200,4.4343291015625,0.03634648025035858,-0.01572977937757969,0.22571471333503723
1701983695897320400,4.451320556640625,0.035124752670526505,-0.2499966025352478,0.06734789162874222
1701983695914313500,4.4683134765625,0.037110064178705215,-0.0682641938328743,-0.0555887371301651
1701983695931305000,4.485304931640625,-0.018936822190880775,0.18631389737129211,-0.02535090781748295
1701983695948296700,4.502296630859375,-0.09285151958465576,0.2701551616191864,0.0731511116027832
1701983695965289500,4.51928955078125,-0.13698652386665344,0.15347988903522491,0.05726861581206322
1701983695982282200,4.5362822265625,-0.12568552792072296,0.04260785132646561,-0.010995574295520782
1701983695999274000,4.55327392578125,-0.10644327104091644,-0.08994990587234497,-0.006872233934700489
1701983696016265500,4.570265380859375,-0.09804387390613556,-0.32498031854629517,0.13973543047904968
1701983696033258500,4.587258544921875,-0.11301007121801376,-0.4821254014968872,0.3459024429321289
1701983696050254000,4.604254150390625,-0.06062837690114975,-0.10781771689653397,0.16264286637306213
1701983696067240000,4.621239990234375,-0.03756821155548096,0.1797471046447754,-0.03787364438176155
1701983696084234500,4.638234375,0.011759156361222267,0.0988074541091919,-0.0835358202457428
1701983696101227300,4.655227294921875,0.029626963660120964,-0.1638645976781845,-0.07177666574716568
1701983696118220000,4.672219970703125,0.025045474991202354,-0.15500704944133759,-0.0503963828086853
1701983696135211800,4.689211669921875,0.00855211354792118,-0.005497787147760391,-0.04108068719506264
1701983696152203500,4.70620361328125,-0.010995574295520782,0.010537425056099892,-0.04612032696604729
1701983696169196300,4.7231962890625,-0.03130684420466423,-0.05711590126156807,0.0022907445672899485
1701983696186189300,4.740189208984375,-0.029932396486401558,-0.2819143235683441,0.22678372263908386
1701983696203180800,4.757180908203125,0.05696318298578262,-0.04382958263158798,0.2616030275821686
1701983696220172300,4.77417236328125,0.06994406878948212,0.17150041460990906,0.08445212244987488
1701983696237165300,4.791165283203125,0.10415252298116684,0.25335636734962463,-0.013133603148162365
1701983696254147300,4.808147216796875,0.1511891484260559,0.15882496535778046,0.0682641938328743
1701983696271147000,4.82514697265625,0.1088867336511612,-0.10170906037092209,0.11927144229412079
1701983696288144100,4.84214404296875,0.10491610318422318,-0.16401731967926025,-0.010537425056099892
1701983696305137000,4.859136962890625,0.05345070734620094,-0.019089538604021072,-0.1485929638147354
1701983696322124300,4.876124267578125,0.021991148591041565,0.22708915174007416,-0.14706580340862274
1701983696339121200,4.89312109375,0.00733038317412138,0.37522396445274353,-0.08261952549219131
1701983696356110300,4.9101103515625,0.03833179548382759,0.35094207525253296,-0.10781771689653397
1701983696373103000,4.92710302734375,0.10476338863372803,0.3854559659957886,-0.2295326143503189
1701983696390096000,4.944095947265625,0.14798210561275482,0.508698046207428,-0.2871066629886627
1701983696407087600,4.961087646484375,0.12431107461452484,0.4398229718208313,-0.24113905429840088
1701983696424079000,4.9780791015625,0.1215621829032898,0.2324342280626297,-0.12110403180122375
1701983696441072000,4.995072021484375,0.10919216275215149,0.0633772686123848,0.027641652151942253
1701983696458064600,5.012064697265625,0.025045474991202354,-0.02229658141732216,0.15622878074645996
1701983696475056400,5.029056396484375,-0.011759156361222267,-0.35353827476501465,0.12202033400535583
1701983696492047400,5.04604736328125,0.0032070425804704428,-0.417679101228714,0.02871066704392433
1701983696509039600,5.06303955078125,-0.018325956538319588,-0.07941248267889023,-0.04596760869026184
1701983696526035000,5.080034912109375,-0.11102475970983505,0.1134682223200798,-0.05467243865132332
1701983696543025700,5.097025634765625,-0.14019356667995453,0.1111774742603302,-0.09117163717746735
1701983696560017400,5.114017333984375,-0.13637566566467285,0.028557950630784035,-0.12553280591964722
1701983696577010000,5.131010009765625,-0.10567969083786011,-0.1007927656173706,-0.052839845418930054
1701983696594000100,5.148000244140625,-0.1010981947183609,-0.22128593921661377,0.04566217586398125
1701983696610997000,5.1649970703125,-0.07819075137376785,-0.1895209401845932,0.11942415684461594
1701983696627986000,5.18198583984375,-0.03940080851316452,-0.08857546001672745,0.16371189057826996
1701983696644979000,5.19897900390625,-0.019089538604021072,0.12370020896196365,0.3880521357059479
1701983696661971500,5.215971435546875,-0.06734789162874222,-0.11285735666751862,0.304210901260376
1701983696678963700,5.232963623046875,0.01237002108246088,-0.2588541507720947,0.09728029370307922
1701983696695955000,5.249954833984375,0.0013744467869400978,-0.18524488806724548,-0.11591167747974396
1701983696712947700,5.26694775390625,-0.05619960278272629,0.03940080851316452,-0.2203696370124817
1701983696729936100,5.28393603515625,-0.04566217586398125,0.23640485107898712,-0.1745547503232956
1701983696746932500,5.300932373046875,-0.052839845418930054,0.21731531620025635,-0.11194105446338654
1701983696763926500,5.317926513671875,-0.036193765699863434,0.02932153269648552,-0.07620543986558914
1701983696780916700,5.334916748046875,-0.0006108652451075613,-0.1036943718791008,-0.08475755155086517
1701983696797909500,5.351909423828125,0.015271631069481373,-0.07712173461914062,-0.03634648025035858
1701983696814901200,5.3689013671875,0.01710422709584236,-0.005955935921519995,0.0009162978967651725
1701983696831893000,5.38589306640625,0.02076941914856434,0.03130684420466423,0.017867809161543846
1701983696848885800,5.4028857421875,0.0027488935738801956,0.05375614017248154,0.06658431142568588
1701983696865878500,5.41987841796875,-0.0039706239476799965,0.0682641938328743,0.10751228034496307
1701983696882870300,5.436870361328125,0.010231993161141872,0.07360926270484924,0.10720685124397278
1701983696899861800,5.45386181640625,0.021380282938480377,0.012064588256180286,0.01725694350898266
1701983696916854500,5.4708544921875,0.07696902006864548,0.04581489413976669,-0.04444044828414917
1701983696933847300,5.487847412109375,0.09666942805051804,0.11484266817569733,-0.023518312722444534
1701983696950838800,5.5048388671875,0.08185594528913498,0.1690569519996643,0.01542434748262167
1701983696967831000,5.5218310546875,0.06582073122262955,0.14324790239334106,0.029016099870204926
1701983696984823800,5.53882373046875,0.06215553730726242,0.043676864355802536,0.04703662544488907
1701983697001816300,5.55581640625,0.061391957104206085,-0.01618792861700058,0.08949175477027893
1701983697018800400,5.57280029296875,0.004428773187100887,-0.03344487398862839,0.12308934330940247
1701983697035799800,5.5897998046875,0.052228979766368866,-0.14553864300251007,0.0633772686123848
1701983697052792300,5.606792236328125,0.033139441162347794,-0.19486601650714874,0.019853120669722557
1701983697069785300,5.623785400390625,-0.00931569468230009,-0.098502017557621,0.022907447069883347
1701983697086777000,5.640777099609375,-0.07422012835741043,-0.0010690141934901476,0.03451388701796532
1701983697103768800,5.657768798828125,-0.08170322328805923,-0.16249015927314758,0.03191770985722542
1701983697120761600,5.67476171875,-0.06643159687519073,-0.38117989897727966,0.06398813426494598
1701983697137756400,5.69175634765625,-0.0731511116027832,-0.5401576161384583,0.16691893339157104
1701983697154743800,5.708743896484375,-0.05849034711718559,-0.37262779474258423,0.17088955640792847
1701983697171746800,5.725746826171875,-0.042760565876960754,-0.18509216606616974,0.06322455406188965
1701983697188733400,5.7427333984375,-0.015577063895761967,0.005650503560900688,-0.03787364438176155
1701983697205722000,5.75972216796875,0.014966198243200779,0.14187344908714294,-0.10949759185314178
1701983697222715000,5.77671484375,0.021991148591041565,0.22327125072479248,-0.1088867336511612
1701983697239698000,5.793697998046875,0.0074830991216003895,0.24373523890972137,-0.08078692853450775
1701983697256706000,5.8107060546875,-0.0012217304902151227,0.1621847152709961,-0.03588833287358284
1701983697273692200,5.827692138671875,-0.001679879380390048,0.07987063378095627,0.03649919852614403
1701983697290684000,5.844683837890625,-0.017409659922122955,0.028405234217643738,0.06658431142568588
1701983697307675600,5.861675537109375,-0.05650503560900688,-0.0708603709936142,0.043676864355802536
1701983697324670000,5.878669921875,-0.07819075137376785,-0.11163562536239624,0.016951510682702065
1701983697341659600,5.89565966796875,-0.059864792972803116,-0.08674286305904388,-0.021074850112199783
1701983697358652700,5.912652587890625,-0.005650503560900688,-0.09086620807647705,-0.06383541971445084
1701983697375643600,5.9296435546875,0.030543262138962746,-0.09315694868564606,-0.044745877385139465
1701983697392638000,5.946637939453125,0.03084869496524334,-0.13316862285137177,0.023060163483023643
1701983697409630000,5.9636298828125,0.057879481464624405,-0.166460782289505,0.05604688450694084
1701983697426621700,5.98062158203125,0.08032877743244171,-0.12690725922584534,0.09422596544027328
1701983697443603200,5.997603271484375,0.07070764899253845,-0.044135015457868576,0.15683965384960175
1701983697460606200,6.014606201171875,-0.033597588539123535,0.2987131178379059,0.32559117674827576
1701983697477599000,6.031598876953125,-0.0074830991216003895,0.10461067408323288,0.19333885610103607
1701983697494590700,6.0485908203125,0.03084869496524334,0.04230241850018501,0.012064588256180286
1701983697511582500,6.06558251953125,0.05009094998240471,0.08994990587234497,-0.09010262042284012
1701983697528575200,6.0825751953125,0.12950342893600464,0.3582724630832672,-0.13179416954517365
1701983697545567700,6.099567626953125,0.13805554807186127,0.7583891749382019,-0.04764748737215996
1701983697562560500,6.116560546875,0.11927144229412079,0.7906123399734497,-0.09315694868564606
1701983697579540000,6.1335400390625,0.11957687139511108,0.7828238010406494,-0.18096883594989777
1701983697596555800,6.1505556640625,0.12064588814973831,0.6243042945861816,-0.16310101747512817
1701983697613534500,6.167534423828125,0.1088867336511612,0.35155296325683594,0.0032070425804704428
1701983697630531000,6.184531005859375,0.09636399149894714,0.16371189057826996,0.2102903574705124
1701983697647520300,6.201520263671875,0.09911288321018219,-0.06200282275676727,0.32039880752563477
1701983697664513500,6.218513427734375,0.1160643994808197,-0.2719877362251282,0.3562871515750885
1701983697681502700,6.235502685546875,0.08903361111879349,-0.4505131244659424,0.34834590554237366
1701983697698497500,6.25249755859375,0.04902193695306778,-0.6229298114776611,0.16844609379768372
1701983697715489300,6.2694892578125,0.039248090237379074,-0.44257187843322754,0.0010690141934901476
1701983697732482000,6.28648193359375,-0.062460970133543015,-0.3300199508666992,-0.05513058975338936
1701983697749474800,6.303474853515625,-0.18081611394882202,-0.3604104816913605,-0.0981965884566307
1701983697766466600,6.320466552734375,-0.22815817594528198,-0.3959933817386627,-0.11331550031900406
1701983697783448000,6.337447998046875,-0.19807305932044983,-0.6006332635879517,0.03344487398862839
1701983697800450800,6.354450927734375,-0.09697485715150833,-0.4260784983634949,-0.0019853119738399982
1701983697817443800,6.37144384765625,-0.02382374368607998,-0.18539759516716003,-0.13439035415649414
1701983697834435300,6.388435302734375,0.021532999351620674,0.06505715101957321,-0.14569136500358582
1701983697851426600,6.405426513671875,0.0013744467869400978,0.13515393435955048,-0.07376197725534439
1701983697868420900,6.4224208984375,-0.001527163083665073,0.09285151958465576,-0.0607810914516449
1701983697885412600,6.43941259765625,0.0328340083360672,0.0988074541091919,-0.07452555745840073
1701983697902396200,6.456396240234375,0.01191187184303999,0.14034628868103027,-0.07406741380691528
1701983697919399000,6.47339892578125,-0.029626963660120964,0.26572638750076294,-0.004581489134579897
1701983697936386600,6.490386474609375,-0.11010845750570297,0.30695977807044983,0.07406741380691528
1701983697953384000,6.507384033203125,-0.010995574295520782,0.076052725315094,0.041691552847623825
1701983697970373400,6.524373291015625,0.030543262138962746,-0.04184427112340927,0.02825251780450344
1701983697987362300,6.5413623046875,-0.0010690141934901476,0.040164388716220856,0.02871066704392433
1701983698004356900,6.55835693359375,-0.05742133408784866,0.37400224804878235,0.044745877385139465
1701983698021350700,6.5753505859375,-0.08414668589830399,0.45433104038238525,-0.06490442901849747
1701983698038342400,6.59234228515625,-0.05650503560900688,0.41141775250434875,-0.16569720208644867
1701983698055323600,6.60932373046875,0.0010690141934901476,0.31383201479911804,-0.10354165732860565
1701983698072327000,6.626326904296875,0.04306599870324135,0.19547687470912933,0.08811730891466141
1701983698089319400,6.6433193359375,0.04046982154250145,0.11942415684461594,0.24129177629947662
1701983698106311200,6.660311279296875,0.04489859566092491,0.2226603776216507,0.3271183371543884
1701983698123303000,6.677302978515625,0.03878994286060333,0.194713294506073,0.2692388594150543
1701983698140296000,6.6942958984375,0.02626720629632473,0.0006108652451075613,0.08048149943351746
1701983698157289000,6.7112890625,-0.005192354787141085,-0.09773843735456467,-0.039095375686883926
1701983698174280200,6.7282802734375,-0.030543262138962746,-0.05742133408784866,-0.056352317333221436
1701983698191272000,6.74527197265625,-0.05390885844826698,0.08048149943351746,0.0012217304902151227
1701983698208254200,6.762254150390625,-0.08506298810243607,-0.06948592513799667,-0.007788531947880983
1701983698225256400,6.77925634765625,-0.08979719132184982,-0.2863430976867676,0.021380282938480377
1701983698242249200,6.796249267578125,-0.08460483700037003,-0.4156937897205353,0.1875356286764145
1701983698259241000,6.813240966796875,-0.033139441162347794,-0.16294831037521362,0.09437867999076843
1701983698276233700,6.830233642578125,-0.022143865004181862,0.0507018156349659,-0.03878994286060333
1701983698293222100,6.84722216796875,-0.012675453908741474,0.05604688450694084,-0.09346238523721695
1701983698310222300,6.864222412109375,-0.00931569468230009,-0.14263702929019928,-0.09178250283002853
1701983698327209700,6.881209716796875,-0.013897184282541275,-0.20876319706439972,-0.07742717117071152
1701983698344202800,6.89820263671875,-0.024587325751781464,-0.15027284622192383,-0.13072516024112701
1701983698361195300,6.9151953125,-0.02977968007326126,0.04337143152952194,-0.21349740028381348
1701983698378187000,6.93218701171875,-0.050243668258190155,0.1511891484260559,-0.2580905556678772
1701983698395178800,6.9491787109375,-0.07131851464509964,0.0377209298312664,-0.1915062516927719
1701983698412169000,6.9661689453125,-0.07284568250179291,-0.260992169380188,0.017867809161543846
1701983698429163000,6.9831630859375,-0.05742133408784866,-0.18829920887947083,0.1258382350206375
1701983698446156000,7.000156005859375,-0.055894169956445694,0.03436116874217987,0.02779436856508255
1701983698463147800,7.017147705078125,-0.03497203439474106,0.13377949595451355,-0.06627888232469559
1701983698480130300,7.03413037109375,0.021838432177901268,0.1267545372247696,-0.07849618047475815
1701983698497133300,7.05113330078125,0.058337632566690445,0.09728029370307922,-0.06017022579908371
1701983698514125000,7.068125,0.07987063378095627,0.18005253374576569,0.10323622822761536
1701983698531116800,7.08511669921875,0.06704246252775192,-0.058337632566690445,0.04596760869026184
1701983698548109600,7.102109619140625,0.05619960278272629,-0.09300423413515091,-0.09285151958465576
1701983698565102000,7.11910205078125,0.03833179548382759,0.06200282275676727,-0.15882496535778046
1701983698582093800,7.13609375,0.01924225501716137,0.1976149082183838,-0.1235474944114685
1701983698599085600,7.15308544921875,-0.03481931984424591,0.2695443034172058,-0.04138612002134323
1701983698616078600,7.17007861328125,-0.07742717117071152,0.26771169900894165,-0.04199698567390442
1701983698633071000,7.187071044921875,-0.06734789162874222,0.22082778811454773,-0.02977968007326126
1701983698650065700,7.204065673828125,-0.0630718395113945,0.01114829070866108,0.07528914511203766
1701983698667044000,7.221044189453125,-0.07712173461914062,-0.6407976150512695,0.4787656366825104
1701983698684047400,7.23804736328125,-0.03329215571284294,-0.3649919927120209,0.45265114307403564
1701983698701040000,7.2550400390625,-0.009621127508580685,0.10644327104091644,0.1547016203403473
1701983698718031600,7.272031494140625,-0.011759156361222267,0.3446807265281677,-0.08796459436416626
1701983698735023600,7.289023681640625,0.05742133408784866,0.20387627184391022,-0.15103642642498016
1701983698752006000,7.306005859375,0.11911872029304504,-0.02672535367310047,-0.08933904021978378
1701983698769009200,7.323009033203125,0.0959058403968811,-0.24892759323120117,0.10934487730264664
1701983698786001000,7.3400009765625,0.06872233748435974,-0.531147301197052,0.08017606288194656
1701983698802992400,7.356992431640625,0.06520986557006836,-0.36422839760780334,-0.023518312722444534
1701983698819985400,7.3739853515625,0.0025961773935705423,-0.05955936014652252,-0.11850785464048386
1701983698836978200,7.390978271484375,-0.0377209298312664,0.18906278908252716,-0.11713340878486633
1701983698853968100,7.407968017578125,-0.08597928285598755,0.10949759185314178,-0.07101308554410934
1701983698870961400,7.42496142578125,-0.11743884533643723,-0.21090123057365417,0.11713340878486633
1701983698887954200,7.4419541015625,-0.0910189226269722,-0.144622340798378,0.13561208546161652
1701983698904944400,7.4589443359375,-0.06276640295982361,0.11285735666751862,0.004581489134579897
1701983698921938000,7.47593798828125,-0.029474247246980667,0.2701551616191864,-0.055283304303884506
1701983698938931200,7.49293115234375,0.023976460099220276,0.20754146575927734,-0.0507018156349659
1701983698955923200,7.509923095703125,0.0685696229338646,-0.002138028386980295,0.009621127508580685
1701983698972916000,7.526916015625,0.08704829961061478,-0.13637566566467285,0.1290452778339386
1701983698989907700,7.54390771484375,0.0630718395113945,-0.24007004499435425,0.1293507218360901
1701983699006899500,7.5608994140625,0.02825251780450344,-0.14294247329235077,-0.04077525436878204
1701983699023892200,7.577892333984375,-0.009468411095440388,0.03481931984424591,-0.15286903083324432
1701983699040885000,7.594885009765625,-0.05314527451992035,0.098502017557621,-0.11514809727668762
1701983699057874200,7.611874267578125,-0.08949175477027893,0.04230241850018501,-0.05161811411380768
1701983699074871000,7.62887109375,-0.04963280260562897,-0.01771509274840355,-0.08720101416110992
1701983699091851500,7.6458515625,0.012064588256180286,0.015271631069481373,-0.1518000066280365
1701983699108859600,7.662859619140625,0.08109235763549805,0.1443169116973877,-0.19333885610103607
1701983699125842200,7.67984228515625,0.10537425428628922,0.2119702398777008,-0.2021963894367218
1701983699142827000,7.696826904296875,0.08078692853450775,0.17638733983039856,-0.07895433157682419
1701983699159830300,7.713830322265625,0.01618792861700058,0.09453139454126358,0.11102475970983505
1701983699176828000,7.730827880859375,-0.026572637259960175,-0.02076941914856434,0.17928895354270935
1701983699193814500,7.747814453125,-0.022449297830462456,-0.07284568250179291,0.13469578325748444
1701983699210806300,7.76480615234375,-0.015118914656341076,-0.06322455406188965,0.055283304303884506
1701983699227799000,7.781799072265625,-0.0032070425804704428,0.0027488935738801956,-0.005497787147760391
1701983699244791800,7.798791748046875,0.01038470957428217,0.039248090237379074,-0.047800205647945404
1701983699261783600,7.815783447265625,0.009773843921720982,0.006261368747800589,-0.056352317333221436
1701983699278775300,7.832775390625,-0.0064140851609408855,-0.06368270516395569,-0.02825251780450344
1701983699295763500,7.849763427734375,-0.021532999351620674,-0.10919216275215149,0.00366519158706069
1701983699312765200,7.86676513671875,-0.03130684420466423,-0.14278975129127502,0.010537425056099892
1701983699329750500,7.88375048828125,-0.023518312722444534,-0.11545353382825851,0.014202617108821869
1701983699346744300,7.900744384765625,-0.014508049935102463,-0.04214970022439957,0.024434609338641167
1701983699363734300,7.917734375,-0.019394971430301666,-0.3219259977340698,0.17669276893138885
1701983699380741400,7.934741455078125,-0.008246680721640587,-0.18799377977848053,0.1895209401845932
1701983699397721300,7.951721435546875,-0.01160643994808197,0.021991148591041565,0.017409659922122955
1701983699414713000,7.968713134765625,-0.006872233934700489,0.23884831368923187,-0.1310305893421173
1701983699431705900,7.985705810546875,0.0012217304902151227,0.052839845418930054,-0.10842858254909515
1701983699448698600,8.00269873046875,0.0006108652451075613,-0.13225232064723969,0.024587325751781464
1701983699465690400,8.0196904296875,-0.019394971430301666,-0.2177734673023224,0.07559457421302795
1701983699482682000,8.03668212890625,-0.05696318298578262,-0.13927727937698364,0.024129176512360573
1701983699499675000,8.0536748046875,-0.06658431142568588,0.08765916526317596,-0.015882495790719986
1701983699516666000,8.070666015625,-0.06062837690114975,0.0913243517279625,0.00855211354792118
1701983699533657900,8.087657958984375,-0.07880161702632904,-0.040622539818286896,0.08689557760953903
1701983699550655200,8.1046552734375,-0.06582073122262955,-0.23854288458824158,0.2292271852493286
1701983699567644000,8.121643798828124,-0.01618792861700058,0.02275473065674305,0.11407908797264099
1701983699584636700,8.13863671875,-0.008399397134780884,0.24526239931583405,-0.0705549344420433
1701983699601630500,8.15563037109375,0.0403171069920063,0.2606867551803589,-0.08857546001672745
1701983699618620200,8.1726201171875,0.09056077152490616,0.144622340798378,0.15271630883216858
1701983699635613000,8.189613037109375,0.0861319974064827,-0.21700987219810486,0.1388191282749176
1701983699652595000,8.206594970703126,0.049785517156124115,-0.1459967941045761,0.025656340643763542
1701983699669597200,8.22359716796875,0.00045814894838258624,0.10949759185314178,-0.07024950534105301
1701983699686589000,8.2405888671875,-0.027183502912521362,0.2997821271419525,-0.015882495790719986
1701983699703581700,8.257581787109375,-0.0659734457731247,0.256868839263916,-0.005192354787141085
1701983699720572700,8.27457275390625,-0.02428189292550087,0.12828169763088226,-0.09972374886274338
1701983699737568000,8.291568115234375,0.04505131021142006,0.06001751124858856,-0.12568552792072296
1701983699754558000,8.308557861328126,0.08521570265293121,-0.0032070425804704428,-0.07177666574716568
1701983699771550700,8.32555078125,0.08827003091573715,-0.04535674303770065,0.02015855349600315
1701983699788543700,8.342543701171875,0.04749477282166481,-0.03680463135242462,0.10705413669347763
1701983699805535200,8.35953515625,0.003817907767370343,-0.029474247246980667,0.13118331134319305
1701983699822527000,8.37652685546875,-0.022602014243602753,-0.03481931984424591,0.07757988572120667
1701983699839511300,8.39351123046875,-0.022143865004181862,0.029932396486401558,-0.00427605677396059
1701983699856512300,8.41051220703125,-0.015271631069481373,0.07635815441608429,-0.042760565876960754
1701983699873504300,8.427504150390625,-0.001832595793530345,0.07956519722938538,-0.017562376335263252
1701983699890496000,8.44449609375,0.011301007121801376,0.044745877385139465,0.021074850112199783
1701983699907488800,8.46148876953125,0.018020525574684143,-0.007635815534740686,0.023518312722444534
1701983699924473000,8.47847314453125,0.004734205547720194,0.016798794269561768,-0.003512475173920393
1701983699941473300,8.495473388671876,-0.021838432177901268,-0.0009162978967651725,-0.028405234217643738
1701983699958465000,8.512465087890625,-0.04046982154250145,-0.10277807712554932,0.013439035043120384
1701983699975457500,8.52945751953125,-0.04153883829712868,-0.2594650089740753,0.05161811411380768
1701983699992440300,8.5464404296875,-0.04260785132646561,-0.37262779474258423,0.07452555745840073
1701983700009439200,8.563439208984375,-0.05390885844826698,-0.4124867618083954,0.07147123664617538
1701983700026436900,8.580436767578124,-0.04948008432984352,-0.38011088967323303,0.0022907445672899485
1701983700043426800,8.5974267578125,-0.005039638374000788,-0.3032945990562439,-0.06688974797725677
1701983700060419300,8.61441943359375,-0.008399397134780884,-0.28909197449684143,-0.06261368840932846
1701983700077411000,8.6314111328125,-0.030695978552103043,-0.244804248213768,-0.010690141469240189
1701983700094402800,8.64840283203125,0.00809396430850029,0.012522737495601177,0.016340645030140877
1701983700111391500,8.6653916015625,-0.06459899991750717,0.20128010213375092,0.060322944074869156
1701983700128391700,8.6823916015625,-0.030085112899541855,-0.09285151958465576,-0.09560041129589081
1701983700145380000,8.699380126953125,-0.0006108652451075613,-0.1814269721508026,-0.1927279829978943
1701983700162369000,8.716369140625,-0.04764748737215996,0.00809396430850029,-0.15332718193531036
1701983700179367200,8.7333671875,-0.096211276948452,0.15241087973117828,-0.12721268832683563
1701983700196357000,8.750357177734376,-0.04092797264456749,0.15332718193531036,-0.21105393767356873
1701983700213348900,8.767348876953125,0.012675453908741474,0.09605856239795685,-0.23029619455337524
1701983700230333700,8.784333740234375,0.012522737495601177,0.10384709388017654,-0.126143679022789
1701983700247333400,8.80133349609375,0.018936822190880775,0.07987063378095627,-0.03787364438176155
1701983700264326100,8.818326171875,0.038637228310108185,-0.017409659922122955,0.00427605677396059
1701983700281318000,8.83531787109375,0.0685696229338646,-0.03741549700498581,0.10842858254909515
1701983700298309600,8.8523095703125,-0.03573561832308769,0.058184914290905,0.28817567229270935
1701983700315302700,8.869302734375,-0.012522737495601177,-0.27580565214157104,0.10567969083786011
1701983700332295200,8.886295166015625,-0.01817324012517929,-0.27000242471694946,-0.0884227454662323
1701983700349287200,8.903287109375,-0.033139441162347794,-0.03833179548382759,-0.13179416954517365
1701983700366278000,8.92027783203125,-0.0429132841527462,0.13041973114013672,-0.13271047174930573
1701983700383271400,8.937271484375,-0.018020525574684143,0.11911872029304504,-0.20799961686134338
1701983700400264200,8.95426416015625,0.009621127508580685,0.06918048858642578,-0.22892175614833832
1701983700417245400,8.971245361328124,0.024434609338641167,0.01970040425658226,-0.10659598559141159
1701983700434245600,8.98824560546875,0.022602014243602753,-0.05115996301174164,0.04505131021142006
1701983700451242200,9.0052421875,0.02779436856508255,-0.10613783448934555,0.13118331134319305
1701983700468233200,9.022233154296876,0.017562376335263252,0.03634648025035858,0.2565633952617645
1701983700485225000,9.039224853515625,-0.04917465150356293,-0.03940080851316452,0.21670444309711456
1701983700502216700,9.056216796875,0.004581489134579897,-0.23350323736667633,-0.027947084978222847
1701983700519209200,9.073209228515625,-0.02428189292550087,-0.06459899991750717,-0.15363261103630066
1701983700536198000,9.090197998046875,-0.058948494493961334,0.20983220636844635,-0.11239920556545258
1701983700553198000,9.107197998046875,-0.044287730008363724,0.1840231567621231,-0.12431107461452484
1701983700570175200,9.12417529296875,-0.0029016099870204926,0.08827003091573715,-0.16172657907009125
1701983700587180800,9.141180908203125,0.012675453908741474,0.05054909735918045,-0.11759155988693237
1701983700604174800,9.1581748046875,0.022602014243602753,0.003817907767370343,0.0012217304902151227
1701983700621161500,9.175161376953126,0.029016099870204926,-0.037110064178705215,0.13530665636062622
1701983700638156000,9.192156005859376,0.012980886735022068,-0.07956519722938538,0.24663683772087097
1701983700655147300,9.209147216796875,-0.029474247246980667,0.03756821155548096,0.34284812211990356
1701983700672140000,9.22614013671875,-0.016493361443281174,-0.21365012228488922,0.15317445993423462
1701983700689131800,9.2431318359375,-0.00855211354792118,-0.16203200817108154,-0.03680463135242462
1701983700706123500,9.26012353515625,-0.06230825558304787,0.07864890247583389,-0.06688974797725677
1701983700723116300,9.2771162109375,-0.05711590126156807,0.07513642311096191,-0.1082758679986
1701983700740109000,9.294109130859376,-0.022449297830462456,-0.036651913076639175,-0.19562959671020508
1701983700757100800,9.311100830078125,0.018020525574684143,0.009773843921720982,-0.20204368233680725
1701983700774092500,9.328092529296875,0.028405234217643738,0.06154467165470123,-0.08261952549219131
1701983700791087400,9.34508740234375,0.0354301854968071,-0.02535090781748295,0.06368270516395569
1701983700808080600,9.36208056640625,0.017562376335263252,-0.19013181328773499,0.2710714638233185
1701983700825067300,9.3790673828125,-0.014508049935102463,-0.14813482761383057,0.49266281723976135
1701983700842061800,9.396061767578125,0.04001167416572571,-0.5581781268119812,0.3998112976551056
1701983700859054300,9.413054443359375,0.10430523753166199,-0.808174729347229,0.2050980031490326
1701983700876046800,9.430046875,0.11499538272619247,-0.6342308521270752,0.07956519722938538
1701983700893040000,9.4470400390625,0.154396191239357,-0.3084869384765625,0.035124752670526505
1701983700910028800,9.46402880859375,0.20983220636844635,-0.37048977613449097,-0.048105638474226
1701983700927023000,9.481023193359375,0.244804248213768,-0.5316054821014404,-0.08078692853450775
1701983700944016100,9.49801611328125,0.23197607696056366,-0.5418374538421631,-0.005803219974040985
1701983700960998000,9.514997802734374,0.18555031716823578,-0.4940372705459595,0.13973543047904968
1701983700977999400,9.531999267578126,0.14294247329235077,-0.489608496427536,0.25641068816185
1701983700994992000,9.5489921875,0.1333213448524475,-0.5067127346992493,0.3066543638706207
1701983701011985000,9.56598486328125,0.1258382350206375,-0.5019785165786743,0.2984076738357544
1701983701028976600,9.5829765625,0.10201449692249298,-0.4153883755207062,0.2499966025352478
1701983701045970200,9.59997021484375,0.076052725315094,-0.2681698501110077,0.18936823308467865
1701983701062959400,9.61695947265625,0.040622539818286896,-0.1699732542037964,0.11698069423437119
1701983701079951400,9.633951416015625,0.015577063895761967,-0.11927144229412079,0.04153883829712868
1701983701096954600,9.65095458984375,0.017867809161543846,-0.11759155988693237,-0.058184914290905
1701983701113938700,9.667938720703125,0.020616702735424042,0.03039054572582245,-0.12293662875890732
1701983701130930200,9.68493017578125,0.019394971430301666,0.3055853247642517,-0.11178833991289139
1701983701147922700,9.701922607421874,-0.01817324012517929,0.39965859055519104,-0.08552113175392151
1701983701164914700,9.718914794921876,-0.02122756652534008,0.36789360642433167,-0.06520986557006836
1701983701181906000,9.735906005859375,-0.010995574295520782,0.3543018400669098,-0.04505131021142006
1701983701198898200,9.752898193359375,-0.03573561832308769,0.27718010544776917,-0.06887505948543549
1701983701215892500,9.769892578125,-0.10216721147298813,0.2142609804868698,-0.12797626852989197
1701983701232880400,9.78688037109375,-0.12431107461452484,0.23380866646766663,-0.17180584371089935
1701983701249872600,9.80387255859375,-0.0936150997877121,0.2704605758190155,-0.2252565622329712
1701983701266869500,9.820869384765626,-0.036041051149368286,0.37339138984680176,-0.2629774808883667
1701983701283859000,9.83785888671875,0.00366519158706069,0.408974289894104,-0.28817567229270935
1701983701300851700,9.854851806640625,0.0074830991216003895,0.35674530267715454,-0.29504790902137756
1701983701317843500,9.871843505859376,-0.03497203439474106,0.313373863697052,-0.2741257846355438
1701983701334841000,9.888841064453125,-0.06383541971445084,0.23365595936775208,-0.2431243658065796
1701983701351823000,9.905822998046874,-0.058184914290905,0.16172657907009125,-0.18096883594989777
1701983701368820500,9.922820556640625,-0.049785517156124115,0.14294247329235077,-0.10231992602348328
1701983701385814000,9.93981396484375,-0.03222314268350601,0.11438451707363129,-0.05513058975338936
1701983701402802700,9.956802734375,-0.0003054326225537807,0.09300423413515091,-0.03649919852614403
1701983701419798500,9.973798583984374,0.007024950347840786,0.08429940044879913,-0.025961773470044136
1701983701436789500,9.99078955078125,0.008704829961061478,0.04948008432984352,-0.029626963660120964
1701983701453772800,10.007772705078125,0.007177666760981083,0.017409659922122955,-0.038179077208042145
1701983701470776300,10.0247763671875,0.00809396430850029,0.04688390716910362,-0.025961773470044136
1701983701487763000,10.041762939453125,0.02932153269648552,0.048105638474226,0.005955935921519995
1701983701504764000,10.058763916015625,0.05955936014652252,0.08139779418706894,0.07681630551815033
1701983701521747700,10.075747802734375,0.05726861581206322,0.1014036312699318,0.18310685455799103
1701983701538743300,10.092743408203125,0.0007635815418325365,0.05451972410082817,0.2684752643108368
1701983701555749400,10.109749267578126,0.015577063895761967,-0.21960605680942535,0.16829337179660797
1701983701572725800,10.126725830078126,0.0064140851609408855,-0.10735956579446793,0.06001751124858856
1701983701589732900,10.14373291015625,-0.03955352306365967,0.08536841720342636,-0.05161811411380768
1701983701606704600,10.16070458984375,-0.027947084978222847,0.14966198801994324,-0.21105393767356873
1701983701623705600,10.17770556640625,0.002138028386980295,0.19547687470912933,-0.3142901659011841
1701983701640696000,10.194696044921875,0.004581489134579897,0.23686300218105316,-0.27259862422943115
1701983701657693400,10.211693359375,-0.003817907767370343,0.17287486791610718,-0.16493362188339233
1701983701674684200,10.22868408203125,0.013591751456260681,0.0913243517279625,-0.044287730008363724
1701983701691672000,10.245672119140625,0.01970040425658226,0.006719517521560192,0.07559457421302795
1701983701708665300,10.262665283203125,0.026419922709465027,-0.04001167416572571,0.22113321721553802
1701983701725658600,10.27965869140625,-0.033139441162347794,-0.11209376901388168,0.34574973583221436
1701983701742647800,10.296647705078126,-0.013133603148162365,-0.38026362657546997,0.22831088304519653
1701983701759643400,10.313643310546874,-0.012522737495601177,-0.20097467303276062,0.07376197725534439
1701983701776634400,10.33063427734375,-0.018936822190880775,0.1488984078168869,-0.07849618047475815
1701983701793628000,10.3476279296875,-0.005345070734620094,0.2587014436721802,-0.2431243658065796
1701983701810617000,10.3646171875,-0.0024434609804302454,0.2658790946006775,-0.34284812211990356
1701983701827612000,10.38161181640625,0.007024950347840786,0.20693060755729675,-0.31810808181762695
1701983701844605400,10.39860546875,0.02871066704392433,0.11682797968387604,-0.17272214591503143
1701983701861592600,10.415592529296875,0.039095375686883926,0.016340645030140877,0.0006108652451075613
1701983701878588400,10.43258837890625,0.04153883829712868,-0.09605856239795685,0.13301590085029602
1701983701895582200,10.449582275390625,0.01542434748262167,0.014049900695681572,0.33429601788520813
1701983701912569900,10.46656982421875,-0.02580905705690384,-0.19853121042251587,0.3393356502056122
1701983701929557200,10.48355712890625,0.014813481830060482,-0.34116822481155396,0.18356500566005707
1701983701946555100,10.50055517578125,-0.014966198243200779,-0.18784105777740479,0.010079276748001575
1701983701963553000,10.517552978515624,-0.03176499158143997,0.17440202832221985,-0.09758572280406952
1701983701980539000,10.534538818359374,-0.010079276748001575,0.2658790946006775,-0.2054034322500229
1701983701997533200,10.551533203125,0.016035212203860283,0.19135354459285736,-0.2779437005519867
1701983702014527700,10.56852783203125,0.04001167416572571,0.11560624837875366,-0.204487144947052
1701983702031516400,10.585516357421875,0.044135015457868576,0.005803219974040985,-0.030237829312682152
1701983702048507100,10.602507080078125,0.05757404863834381,-0.11728613078594208,0.13454307615756989
1701983702065506800,10.6195068359375,0.05849034711718559,-0.2002110779285431,0.29993483424186707
1701983702082492400,10.636492431640624,-0.007635815534740686,-0.09697485715150833,0.48426342010498047
1701983702099488000,10.653488037109375,0.04001167416572571,-0.3865249752998352,0.3923282027244568
1701983702116479700,10.670479736328126,0.0659734457731247,-0.5077817440032959,0.22968533635139465
1701983702133472300,10.68747216796875,0.03191770985722542,-0.4132503271102905,0.08261952549219131
1701983702150463700,10.704463623046875,0.00366519158706069,-0.10842858254909515,0.02886338345706463
1701983702167459300,10.721459228515625,0.003817907767370343,-0.13057245314121246,-0.04108068719506264
1701983702184450600,10.738450439453125,0.012064588256180286,-0.2971859276294708,-0.0455094613134861
1701983702201437400,10.7554375,-0.00809396430850029,-0.4570799171924591,0.07376197725534439
1701983702218431700,10.772431640625,-0.00427605677396059,-0.6258314251899719,0.22403483092784882
1701983702235424500,10.789424560546875,0.007635815534740686,-0.7478517889976501,0.3455969989299774
1701983702252419800,10.806419921875,0.017867809161543846,-0.821461021900177,0.3929390609264374
1701983702269407500,10.823407470703126,0.029168816283345222,-0.804051399230957,0.37629300355911255
1701983702286399000,10.84039892578125,0.044135015457868576,-0.707534670829773,0.3171917796134949
1701983702303383300,10.85738330078125,0.03695734590291977,-0.6038402915000916,0.2422080636024475
1701983702320385300,10.87438525390625,0.01878410577774048,-0.5132794976234436,0.17256943881511688
1701983702337380900,10.891380859375,-0.004428773187100887,-0.3674354553222656,0.1518000066280365
1701983702354371800,10.908371826171875,-0.028099801391363144,-0.3660610020160675,0.098502017557621
1701983702371362800,10.92536279296875,-0.04398229718208313,-0.09407325088977814,0.09972374886274338
1701983702388355600,10.94235546875,-0.015577063895761967,0.3404046595096588,0.14538592100143433
1701983702405348900,10.959348876953126,-0.03894266113638878,0.53328537940979,0.12308934330940247
1701983702422337300,10.976337158203124,-0.018936822190880775,0.48227810859680176,0.030543262138962746
1701983702439345700,10.993345703125,0.01771509274840355,0.2967278063297272,-0.12202033400535583
1701983702456322800,11.01032275390625,0.0029016099870204926,0.23671028017997742,-0.2496911734342575
1701983702473314000,11.02731396484375,-0.04214970022439957,0.3576616048812866,-0.2926044464111328
1701983702490309600,11.0443095703125,-0.0731511116027832,0.49067750573158264,-0.3026837408542633
1701983702507315200,11.061315185546874,-0.04993823543190956,0.5085453391075134,-0.33719760179519653
1701983702524301300,11.07830126953125,-0.005650503560900688,0.5064072608947754,-0.3585779070854187
1701983702541283000,11.095282958984376,0.01664607785642147,0.5074763298034668,-0.33628132939338684
1701983702558278000,11.11227783203125,0.013591751456260681,0.4547891616821289,-0.3017674386501312
1701983702575272200,11.129272216796876,-0.0065668015740811825,0.4005748927593231,-0.26282477378845215
1701983702592260000,11.146260009765625,-0.016951510682702065,0.40714168548583984,-0.1973094791173935
1701983702609252400,11.16325244140625,-0.003817907767370343,0.3602577745914459,-0.09392052888870239
1701983702626247200,11.1802470703125,0.014049900695681572,0.24495697021484375,0.05360342562198639
1701983702643238400,11.19723828125,-0.019394971430301666,0.1388191282749176,0.22357667982578278
1701983702660232200,11.214232177734376,-0.03222314268350601,-0.26221391558647156,0.21349740028381348
1701983702677223200,11.23122314453125,-0.0354301854968071,-0.19532416760921478,0.15775595605373383
1701983702694217500,11.248217529296875,-0.07712173461914062,0.1189660057425499,0.05207626149058342
1701983702711206100,11.2652060546875,-0.06979135423898697,0.19547687470912933,-0.1443169116973877
1701983702728190000,11.28218994140625,-0.024587325751781464,0.19547687470912933,-0.3300199508666992
1701983702745193700,11.29919384765625,-0.002138028386980295,0.2542726695537567,-0.38988474011421204
1701983702762182400,11.316182373046875,0.0006108652451075613,0.29397889971733093,-0.32971450686454773
1701983702779178000,11.333177978515625,0.021991148591041565,0.26771169900894165,-0.23075434565544128
1701983702796170500,11.35017041015625,0.03573561832308769,0.18936823308467865,-0.09437867999076843
1701983702813158400,11.367158447265625,0.021838432177901268,0.2154827117919922,0.15913039445877075
1701983702830152700,11.384152587890625,-0.019547687843441963,-0.07024950534105301,0.303600013256073
1701983702847149000,11.401149169921876,0.021074850112199783,-0.40164390206336975,0.2525927722454071
1701983702864139500,11.418139404296875,-0.007024950347840786,-0.32757648825645447,0.11927144229412079
1701983702881128700,11.435128662109374,-0.032681290060281754,0.053297992795705795,-0.025503624230623245
1701983702898122200,11.452122314453124,-0.008857546374201775,0.1866193264722824,-0.22113321721553802
1701983702915117000,11.469116943359374,0.02535090781748295,0.21868975460529327,-0.36331209540367126
1701983702932105000,11.48610498046875,0.03405573591589928,0.21731531620025635,-0.3306308090686798
1701983702949099300,11.503099365234375,0.03390302136540413,0.1059851199388504,-0.16752979159355164
1701983702966093300,11.52009326171875,0.03145955875515938,0.0006108652451075613,0.03741549700498581
1701983702983082000,11.53708203125,0.01466076634824276,-0.07131851464509964,0.24419337511062622
1701983703000060200,11.55406005859375,-0.033139441162347794,-0.1615738570690155,0.3715587854385376
1701983703017066200,11.571066162109375,0.01618792861700058,-0.35063666105270386,0.26969701051712036
1701983703034064100,11.588064208984376,-0.003359758760780096,-0.24694228172302246,0.09117163717746735
1701983703051052300,11.60505224609375,-0.027641652151942253,0.13057245314121246,-0.06123924255371094
1701983703068045300,11.62204541015625,-0.02229658141732216,0.3539963960647583,-0.1950187236070633
1701983703085038800,11.639038818359374,0.02580905705690384,0.26939156651496887,-0.3156646192073822
1701983703102024700,11.656024658203124,0.06750060617923737,0.17501288652420044,-0.285121351480484
1701983703119025200,11.673025146484376,0.048716504126787186,0.09346238523721695,-0.11850785464048386
1701983703136016000,11.690015869140625,0.030237829312682152,-0.02535090781748295,0.07971791177988052
1701983703153003800,11.707003662109376,0.0032070425804704428,-0.13729196786880493,0.21502456068992615
1701983703170000000,11.723999755859374,-0.0006108652451075613,-0.0780380368232727,0.3150537610054016
1701983703186991600,11.74099169921875,0.005955935921519995,-0.08078692853450775,0.3251330256462097
1701983703203984400,11.757984375,0.01725694350898266,-0.20693060755729675,0.18524488806724548
1701983703220973300,11.774973388671874,-0.012828170321881771,-0.11560624837875366,0.003817907767370343
1701983703237967600,11.791967529296874,-0.03084869496524334,0.1941024363040924,-0.13836097717285156
1701983703254952000,11.808951904296874,-0.020311269909143448,0.20586158335208893,-0.27611109614372253
1701983703271949800,11.82594970703125,0.018325956538319588,0.21090123057365417,-0.29306259751319885
1701983703288943900,11.84294384765625,0.006261368747800589,0.2093740701675415,-0.1837177276611328
1701983703305938400,11.8599384765625,0.016798794269561768,0.13209961354732513,-0.04917465150356293
1701983703322927000,11.876927001953124,0.041233405470848083,0.0708603709936142,0.0429132841527462
1701983703339922400,11.89392236328125,0.049785517156124115,0.058948494493961334,0.10186178237199783
1701983703356913000,11.910912841796875,-0.007177666760981083,0.13836097717285156,0.1941024363040924
1701983703373907500,11.927907470703126,0,-0.10659598559141159,0.12324206531047821
1701983703390896000,11.944896240234375,-0.0013744467869400978,-0.20525072515010834,-0.012064588256180286
1701983703407890200,11.96189013671875,-0.014202617108821869,0.014508049935102463,-0.09865473955869675
1701983703424886300,11.97888623046875,-0.047189339995384216,0.29596421122550964,-0.10919216275215149
1701983703441870000,11.9958701171875,-0.019547687843441963,0.2817615866661072,-0.14614951610565186
1701983703458870000,12.0128701171875,0.006108652334660292,0.20693060755729675,-0.21105393767356873
1701983703475860700,12.02986083984375,0.01618792861700058,0.23060162365436554,-0.2203696370124817
1701983703492848600,12.0468486328125,0.030543262138962746,0.2770273983478546,-0.19746218621730804
1701983703509844500,12.063844482421874,0.040622539818286896,0.2816088795661926,-0.09162978827953339
1701983703526836500,12.08083642578125,-0.024587325751781464,0.3643811047077179,0.19013181328773499
1701983703543829800,12.097829833984376,-0.03649919852614403,-0.056352317333221436,0.27000242471694946
1701983703560817700,12.114817626953124,-0.041691552847623825,-0.26419922709465027,0.25442537665367126
1701983703577813000,12.13181298828125,-0.08109235763549805,-0.16584990918636322,0.1843285858631134
1701983703594807000,12.14880712890625,-0.08429940044879913,0.22159136831760406,0.11652254313230515
1701983703611799300,12.16579931640625,-0.043218716979026794,0.31810808181762695,-0.016493361443281174
1701983703628788500,12.18278857421875,0.020616702735424042,0.395077109336853,-0.15790866315364838
1701983703645783800,12.19978369140625,0.03405573591589928,0.5115996599197388,-0.28619036078453064
1701983703662772200,12.216772216796874,0.02977968007326126,0.6113234162330627,-0.3627012372016907
1701983703679767000,12.23376708984375,0.004886921960860491,0.5768095254898071,-0.34406983852386475
1701983703696758300,12.25075830078125,-0.0019853119738399982,0.46990808844566345,-0.23426681756973267
1701983703713752300,12.26775244140625,0.00045814894838258624,0.2612976133823395,-0.10277807712554932
1701983703730741000,12.284740966796875,-0.006872233934700489,0.09056077152490616,0.004581489134579897
1701983703747731200,12.301731201171876,-0.03649919852614403,0.04764748737215996,0.05665775015950203
1701983703764731600,12.318731689453125,-0.05849034711718559,0.037110064178705215,0.027488935738801956
1701983703781724000,12.335723876953125,-0.005345070734620094,0.0734565481543541,-0.031001411378383636
1701983703798706700,12.352706787109375,-0.003054326167330146,0.13469578325748444,-0.0682641938328743
1701983703815705300,12.369705322265625,-0.019853120669722557,0.20311269164085388,-0.13759739696979523
1701983703832693000,12.38669287109375,0.014508049935102463,0.22449298202991486,-0.1963931769132614
1701983703849679400,12.403679443359374,0.07360926270484924,0.20051652193069458,-0.08827003091573715
1701983703866683100,12.42068310546875,0.07925976812839508,0.029626963660120964,0.2961169183254242
1701983703883676200,12.43767626953125,0.06979135423898697,-0.41691553592681885,0.3260493278503418
1701983703900662800,12.454662841796875,0.06368270516395569,-0.46242499351501465,0.21670444309711456
1701983703917657900,12.471657958984375,-0.00931569468230009,-0.19868391752243042,0.03130684420466423
1701983703934652200,12.488652099609375,-0.02367102913558483,0.11071932315826416,-0.17302757501602173
1701983703951632600,12.505632568359376,-0.052228979766368866,0.3124575614929199,-0.2606867551803589
1701983703968633900,12.5226337890625,-0.06123924255371094,0.24113905429840088,-0.31413745880126953
1701983703985628400,12.53962841796875,-0.03787364438176155,0.09682214260101318,-0.28557950258255005
1701983704002617000,12.5566171875,-0.026572637259960175,-0.05421429127454758,-0.14477506279945374
1701983704019609600,12.573609619140624,-0.015882495790719986,-0.19517144560813904,0.004123340360820293
1701983704036605400,12.59060546875,0.0032070425804704428,-0.2535090744495392,0.07788532227277756
1701983704053581600,12.60758154296875,0.02687807008624077,-0.18051068484783173,0.07009678333997726
1701983704070587600,12.624587646484375,0.057879481464624405,-0.1440114825963974,0.07757988572120667
1701983704087580400,12.641580322265625,0.06123924255371094,-0.13545936346054077,0.1287398487329483
1701983704104573700,12.65857373046875,0.06750060617923737,-0.11927144229412079,0.13026700913906097
1701983704121562400,12.675562255859376,0.08002334833145142,0.039095375686883926,0.07223481684923172
1701983704138557700,12.6925576171875,0.08032877743244171,0.2324342280626297,-0.009621127508580685
1701983704155550700,12.70955078125,0.08307767659425735,0.2993239760398865,-0.0024434609804302454
1701983704172538600,12.72653857421875,0.0907134860754013,0.21823160350322723,0.04612032696604729
1701983704189535000,12.743534912109375,0.1033889427781105,0.05696318298578262,0.08460483700037003
1701983704206527000,12.76052685546875,0.13607023656368256,-0.0429132841527462,0.13408492505550385
1701983704223520000,12.77752001953125,0.156686931848526,-0.06688974797725677,0.19425514340400696
1701983704240501800,12.794501708984376,0.15760323405265808,-0.08460483700037003,0.23518311977386475
1701983704257501000,12.8115009765625,0.15073099732398987,-0.12889257073402405,0.2519819140434265
1701983704274489000,12.828489013671875,0.11560624837875366,-0.15622878074645996,0.23136521875858307
1701983704291486700,12.84548681640625,0.10155634582042694,-0.1996002197265625,0.1586722433567047
1701983704308480500,12.86248046875,0.10903944820165634,-0.256868839263916,0.076052725315094
1701983704325476400,12.879476318359375,0.11652254313230515,-0.2506074607372284,-0.01618792861700058
1701983704342457600,12.89645751953125,0.14446963369846344,-0.20861047506332397,-0.11911872029304504
1701983704359458600,12.91345849609375,0.16310101747512817,-0.16600263118743896,-0.13744467496871948
1701983704376448500,12.930448486328125,0.15561792254447937,-0.20265454053878784,-0.06811147183179855
1701983704393441500,12.947441650390624,0.15653422474861145,-0.24129177629947662,-0.011301007121801376
1701983704410441200,12.964441162109376,0.17287486791610718,-0.24663683772087097,0.0029016099870204926
1701983704427425500,12.981425537109375,0.19868391752243042,-0.18967366218566895,0.008857546374201775
1701983704444416800,12.998416748046875,0.21578814089298248,-0.09575312584638596,0.01664607785642147
1701983704461408500,13.015408447265624,0.2382374405860901,-0.01160643994808197,0.010995574295520782
1701983704478393600,13.0323935546875,0.24877487123012543,0.04642575979232788,-0.06582073122262955
1701983704495389400,13.049389404296875,0.25641068816185,0.1189660057425499,-0.1846340149641037
1701983704512388600,13.066388671875,0.26633724570274353,0.13439035415649414,-0.2538145184516907
1701983704529383000,13.0833828125,0.26419922709465027,0.11407908797264099,-0.22602014243602753
1701983704546372600,13.10037255859375,0.2382374405860901,0.16203200817108154,-0.15271630883216858
1701983704563354400,13.117354248046874,0.2373211532831192,0.25014930963516235,-0.07864890247583389
1701983704580355800,13.13435595703125,0.27519479393959045,0.2782491147518158,-0.08124507963657379
1701983704597348000,13.15134814453125,0.3237585723400116,0.26145032048225403,-0.1469130963087082
1701983704614342100,13.168342041015626,0.3240640163421631,0.19807305932044983,-0.17806722223758698
1701983704631330000,13.185330078125,0.31520646810531616,0.1644754707813263,-0.10170906037092209
1701983704648324000,13.202323974609374,0.3436116874217987,0.16279558837413788,0.14049901068210602
1701983704665315000,13.219315185546876,0.36560285091400146,0.20723603665828705,0.3962988257408142
1701983704682310100,13.23631005859375,0.3446807265281677,0.12324206531047821,0.5690209865570068
1701983704699295200,13.253295166015626,0.3228422701358795,-0.08124507963657379,0.6539312601089478
1701983704716293000,13.270293212890625,0.2814561724662781,-0.13515393435955048,0.5820018649101257
1701983704733284600,13.28728466796875,0.22159136831760406,-0.05665775015950203,0.31001409888267517
1701983704750279400,13.304279541015624,0.19379699230194092,0.0705549344420433,-0.04688390716910362
1701983704767270400,13.3212705078125,0.17211128771305084,0.15760323405265808,-0.34315356612205505
1701983704784263700,13.338263671875,0.1417207419872284,0.12339477986097336,-0.4827362596988678
1701983704801252600,13.355252685546875,0.0835358202457428,-0.018325956538319588,-0.46211954951286316
1701983704818247700,13.37224755859375,0.044135015457868576,-0.2165517359972,-0.3465133011341095
1701983704835238700,13.38923876953125,0.015882495790719986,-0.42378777265548706,-0.19562959671020508
1701983704852231000,13.40623095703125,-0.03375030308961868,-0.5823072791099548,-0.08109235763549805
1701983704869225000,13.423224853515626,-0.09300423413515091,-0.6343835592269897,-0.04948008432984352
1701983704886218500,13.440218505859375,-0.11163562536239624,-0.5600107312202454,-0.06398813426494598
1701983704903198200,13.4571982421875,-0.07681630551815033,-0.3680463135242462,-0.13041973114013672
1701983704920201000,13.474200927734374,0.003817907767370343,-0.11530081182718277,-0.26801711320877075
1701983704937193000,13.49119287109375,0.06704246252775192,0.07452555745840073,-0.4060726761817932
1701983704954189600,13.508189453125,0.041691552847623825,0.1290452778339386,-0.3956879675388336
1701983704971175400,13.525175537109375,-0.03420845419168472,0.10567969083786011,-0.2562579810619354
1701983704988170000,13.542169921875,-0.06368270516395569,0.22342395782470703,-0.10949759185314178
1701983705005162500,13.55916259765625,-0.06276640295982361,0.32131510972976685,0.015271631069481373
1701983705022152200,13.576152099609375,-0.0003054326225537807,0.37537670135498047,0.0354301854968071
1701983705039147500,13.5931474609375,0.08567385375499725,0.40454551577568054,-0.08506298810243607
1701983705056139300,13.61013916015625,0.11133018881082535,0.4957171380519867,-0.2535090744495392
1701983705073129700,13.627129638671875,0.08933904021978378,0.6310238242149353,-0.33536502718925476
1701983705090124000,13.6441240234375,0.059406645596027374,0.6023131608963013,-0.29016098380088806
1701983705107115300,13.661115234375,0.06276640295982361,0.4288274049758911,-0.2041817009449005
1701983705124098600,13.6780986328125,0.044745877385139465,0.22342395782470703,-0.10064005106687546
1701983705141090600,13.695090576171875,0.005497787147760391,0.20311269164085388,-0.01114829070866108
1701983705158094300,13.71209423828125,-0.004886921960860491,0.34284812211990356,0.04703662544488907
1701983705175084500,13.72908447265625,-0.022602014243602753,0.4619668424129486,0.005497787147760391
1701983705192074200,13.74607421875,-0.02015855349600315,0.580016553401947,-0.1794416606426239
1701983705209070800,13.76307080078125,-0.014813481830060482,0.7657195925712585,-0.2672535479068756
1701983705226061800,13.780061767578125,-0.05772676691412926,0.8017606139183044,-0.22128593921661377
1701983705243051000,13.797051025390624,-0.09086620807647705,0.6626361012458801,-0.14340060949325562
1701983705260046000,13.814046142578125,-0.14187344908714294,0.3900374472141266,0.013744467869400978
1701983705277038000,13.8310380859375,-0.2165517359972,0.11102475970983505,0.07849618047475815
1701983705294032600,13.84803271484375,-0.24587325751781464,0.10354165732860565,0.1791362315416336
1701983705311020000,13.86502001953125,-0.2678644061088562,0.12797626852989197,0.2620611786842346
1701983705328014300,13.882014404296875,-0.24098633229732513,0.12171489745378494,0.22250767052173615
1701983705345006300,13.89900634765625,-0.2275473028421402,0.0731511116027832,0.08292495459318161
1701983705361999600,13.91599951171875,-0.20295998454093933,-0.01572977937757969,-0.05711590126156807
1701983705378977500,13.9329775390625,-0.16737708449363708,-0.07757988572120667,-0.12202033400535583
1701983705395982300,13.949982421875,-0.14340060949325562,-0.17608191072940826,-0.03726277872920036
1701983705412976400,13.966976318359375,-0.15302173793315887,-0.3084869384765625,0.11560624837875366
1701983705429969700,13.9839697265625,-0.18310685455799103,-0.3859141170978546,0.1748601794242859
1701983705446960600,14.000960693359374,-0.1918116807937622,-0.423329621553421,0.144622340798378
1701983705463954200,14.0179541015625,-0.19883663952350616,-0.44745880365371704,0.096211276948452
1701983705480942600,14.034942626953125,-0.1918116807937622,-0.4495968222618103,0.09957103431224823
1701983705497938000,14.05193798828125,-0.15775595605373383,-0.44715335965156555,0.03084869496524334
1701983705514922500,14.068922607421875,-0.1670716404914856,-0.399200439453125,-0.04795292019844055
1701983705531918800,14.0859189453125,-0.22647829353809357,-0.30741792917251587,-0.06704246252775192
1701983705548914400,14.10291455078125,-0.21303924918174744,-0.2574796974658966,-0.09086620807647705
1701983705565906200,14.11990625,-0.15577064454555511,-0.19043724238872528,-0.048258353024721146
1701983705582899500,14.1368994140625,-0.09575312584638596,-0.15363261103630066,-0.02367102913558483
1701983705599894000,14.15389404296875,-0.06963863968849182,-0.19120082259178162,-0.07559457421302795
1701983705616884200,14.17088427734375,-0.07223481684923172,-0.22770002484321594,-0.03176499158143997
1701983705633877000,14.187876953125,-0.09926560521125793,-0.24404066801071167,0.016798794269561768
1701983705650858800,14.204858642578126,-0.12278391420841217,-0.20265454053878784,0.03894266113638878
1701983705667858400,14.2218583984375,-0.15454891324043274,-0.17058411240577698,0.0354301854968071
1701983705684855000,14.23885498046875,-0.17302757501602173,-0.19456058740615845,0.029932396486401558
1701983705701846000,14.255845947265625,-0.18081611394882202,-0.266642689704895,0.05360342562198639
1701983705718837800,14.272837646484374,-0.17302757501602173,-0.31383201479911804,0.10720685124397278
1701983705735829500,14.28982958984375,-0.14492778480052948,-0.3090978264808655,0.11591167747974396
1701983705752822300,14.306822265625,-0.1498146951198578,-0.2025018334388733,0.039095375686883926
1701983705769815000,14.32381494140625,-0.15286903083324432,-0.10048733651638031,-0.06352998316287994
1701983705786806800,14.340806884765625,-0.17867808043956757,-0.11010845750570297,-0.13148874044418335
1701983705803798500,14.357798583984374,-0.19792033731937408,-0.16569720208644867,-0.1368338167667389
1701983705820791300,14.374791259765624,-0.20876319706439972,-0.17852537333965302,-0.11133018881082535
1701983705837774000,14.391774169921876,-0.21533000469207764,-0.10781771689653397,-0.09224065393209457
1701983705854775600,14.408775634765625,-0.21700987219810486,-0.043218716979026794,-0.07742717117071152
1701983705871767800,14.425767822265625,-0.22632557153701782,0.007177666760981083,-0.05971207842230797
1701983705888760300,14.44276025390625,-0.20494529604911804,0.04214970022439957,-0.04993823543190956
1701983705905753000,14.459753173828124,-0.19196440279483795,0.06643159687519073,-0.04352414980530739
1701983705922744800,14.476744873046876,-0.1875356286764145,0.07299839705228806,-0.050243668258190155
1701983705939726000,14.49372607421875,-0.17043140530586243,0.07223481684923172,-0.07696902006864548
1701983705956729300,14.510729248046875,-0.1514945775270462,0.09773843735456467,-0.10537425428628922
1701983705973722000,14.52772216796875,-0.13759739696979523,0.1609629988670349,-0.11514809727668762
1701983705990711300,14.544711181640626,-0.09575312584638596,0.16065755486488342,-0.06123924255371094
1701983706007708200,14.561708251953124,-0.04703662544488907,0.08445212244987488,0.022602014243602753
1701983706024698000,14.578697998046875,-0.005803219974040985,-0.010995574295520782,0.10567969083786011
1701983706041690400,14.5956904296875,0.033139441162347794,-0.11316278576850891,0.21914790570735931
1701983706058684000,14.612683837890625,0.04993823543190956,-0.24174992740154266,0.3222314119338989
1701983706075674600,14.629674560546874,0.058795779943466187,-0.20983220636844635,0.3010038435459137
1701983706092664800,14.646664794921875,0.04993823543190956,0.02580905705690384,0.17440202832221985
1701983706109663000,14.6636630859375,0.02382374368607998,0.2790127098560333,0.018020525574684143
1701983706126652000,14.68065185546875,0.005039638374000788,0.46013423800468445,-0.14996741712093353
1701983706143644000,14.697643798828125,-0.02672535367310047,0.5432119369506836,-0.2811507284641266
1701983706160636400,14.714636474609375,-0.012828170321881771,0.4683809280395508,-0.2987131178379059
1701983706177629200,14.731629150390624,0.003512475173920393,0.2837468981742859,-0.20341812074184418
1701983706194621200,14.74862109375,0.006719517521560192,0.1270599663257599,-0.13286319375038147
1701983706211602400,14.7656025390625,-0.006872233934700489,-0.17287486791610718,-0.15042556822299957
1701983706228605400,14.78260546875,0.013744467869400978,-0.36331209540367126,-0.13439035415649414
1701983706245596000,14.799595947265624,-0.008857546374201775,-0.26801711320877075,-0.04306599870324135
1701983706262592500,14.816592529296875,-0.058948494493961334,-0.22357667982578278,0.06643159687519073
1701983706279581700,14.833581787109376,-0.1108720451593399,-0.18417587876319885,0.1547016203403473
1701983706296574700,14.85057470703125,-0.15500704944133759,-0.204487144947052,0.23380866646766663
1701983706313556700,14.867556640625,-0.17623461782932281,-0.24159720540046692,0.2496911734342575
1701983706330559000,14.88455908203125,-0.16249015927314758,-0.30085113644599915,0.1837177276611328
1701983706347550700,14.90155078125,-0.14340060949325562,-0.2791654169559479,0.08552113175392151
1701983706364543500,14.91854345703125,-0.14874568581581116,-0.22510384023189545,0.01817324012517929
1701983706381536300,14.935536376953126,-0.16768251359462738,-0.1059851199388504,-0.007941247895359993
1701983706398528000,14.952528076171875,-0.17073683440685272,-0.0009162978967651725,0.011301007121801376
1701983706415522000,14.96952197265625,-0.15027284622192383,0.04489859566092491,0.06750060617923737
1701983706432514300,14.986514404296875,-0.10399980843067169,-0.043218716979026794,0.13866640627384186
1701983706449505300,15.00350537109375,-0.04138612002134323,-0.19593502581119537,0.20341812074184418
1701983706466492200,15.0204921875,0.016035212203860283,-0.3500257730484009,0.16432274878025055
1701983706483497000,15.0374970703125,0.040622539818286896,-0.35414913296699524,0.07849618047475815
1701983706500473600,15.0544736328125,0.008857546374201775,-0.22067506611347198,0.046273041516542435
1701983706517474300,15.071474365234375,-0.03649919852614403,-0.096211276948452,0.07147123664617538
1701983706534466300,15.08846630859375,-0.031001411378383636,-0.13545936346054077,0.11575896292924881
1701983706551457800,15.105457763671875,0.044135015457868576,-0.3055853247642517,0.15424346923828125
1701983706568440600,15.122440673828125,0.16584990918636322,-0.5085453391075134,0.1264491081237793
1701983706585443300,15.139443359375,0.25106561183929443,-0.6664539575576782,0.08384125679731369
1701983706602435000,15.15643505859375,0.2687807083129883,-0.7231117486953735,0.12522737681865692
1701983706619426800,15.1734267578125,0.23640485107898712,-0.8446739315986633,0.2454151064157486
1701983706636419800,15.190419921875,0.17608191072940826,-1.0329731702804565,0.4063780903816223
1701983706653398800,15.207398681640624,0.09987647086381912,-1.1997393369674683,0.6204863786697388
1701983706670407700,15.22440771484375,0.031154127791523933,-1.2974777221679688,0.8385652899742126
1701983706687392500,15.241392578125,-0.01160643994808197,-1.3703234195709229,0.8723155856132507
1701983706704388600,15.258388671875,-0.020311269909143448,-1.29549241065979,0.7014260292053223
1701983706721365500,15.275365478515624,0.006719517521560192,-1.0346530675888062,0.43676865100860596
1701983706738359800,15.29235986328125,0.0429132841527462,-0.6948592066764832,0.16661348938941956
1701983706755364900,15.30936474609375,0.030085112899541855,-0.34116822481155396,-0.04382958263158798
1701983706772358100,15.326358154296875,-0.0022907445672899485,-0.07513642311096191,-0.22220222651958466
1701983706789350400,15.343350341796874,-0.07101308554410934,0.30970868468284607,-0.31413745880126953
1701983706806342100,15.360342041015626,-0.08414668589830399,0.6508769392967224,-0.20295998454093933
1701983706823334100,15.377334228515625,-0.07391469180583954,0.579405665397644,-0.126143679022789
1701983706840328400,15.394328369140625,-0.047189339995384216,0.48288896679878235,-0.11820242553949356
1701983706857315600,15.411315673828126,-0.01878410577774048,0.5505422949790955,-0.1742493063211441
1701983706874325500,15.428325439453126,0.009010262787342072,0.6224716901779175,-0.3066543638706207
1701983706891294500,15.44529443359375,0.005955935921519995,0.6724098920822144,-0.46929723024368286
1701983706908296200,15.462296142578126,-0.03497203439474106,0.7180721163749695,-0.5894849896430969
1701983706925287000,15.479286865234375,-0.07009678333997726,0.68325275182724,-0.6559165716171265
1701983706942273500,15.4962734375,-0.08979719132184982,0.6789767146110535,-0.6097962260246277
1701983706959274000,15.51327392578125,-0.1186605766415596,0.5937610268592834,-0.5222898125648499
1701983706976262100,15.53026220703125,-0.1411098688840866,0.43829581141471863,-0.46441030502319336
1701983706993256700,15.547256591796875,-0.15302173793315887,0.20555615425109863,-0.4980078935623169
1701983707010250200,15.564250244140625,-0.10919216275215149,0.16661348938941956,-0.5468770861625671
1701983707027238000,15.58123779296875,-0.023518312722444534,0.3003929853439331,-0.5516113042831421
1701983707044233700,15.598233642578125,0.04993823543190956,0.4360050559043884,-0.4746423065662384
1701983707061232600,15.615232666015626,0.076052725315094,0.42302417755126953,-0.3452915847301483
1701983707078219000,15.632218994140626,0.04795292019844055,0.35964691638946533,-0.2050980031490326
1701983707095207700,15.649207763671875,-0.0065668015740811825,0.2900082767009735,-0.061391957104206085
1701983707112197600,15.66619775390625,-0.04138612002134323,0.2474004179239273,0.09804387390613556
1701983707129196500,15.683196533203125,-0.04092797264456749,0.20066922903060913,0.18814650177955627
1701983707146184200,15.70018408203125,-0.014355333521962166,0.20433442294597626,0.182648703455925
1701983707163178500,15.717178466796875,0.011759156361222267,0.2643519341945648,0.12293662875890732
1701983707180172800,15.7341728515625,0.02122756652534008,0.30772337317466736,0.061391957104206085
1701983707197161700,15.75116162109375,0.01664607785642147,0.29474249482154846,0.031612277030944824
1701983707214156500,15.768156494140625,0.011453723534941673,0.20341812074184418,0.022602014243602753
1701983707231147300,15.785147216796876,-0.00931569468230009,0.1791362315416336,0.031001411378383636
1701983707248141800,15.802141845703124,-0.025503624230623245,0.1635591685771942,-0.00366519158706069
1701983707265132000,15.819132080078125,-0.017409659922122955,0.1817324161529541,-0.07391469180583954
1701983707282119400,15.836119384765626,-0.011301007121801376,0.24159720540046692,-0.13515393435955048
1701983707299121700,15.85312158203125,0.0039706239476799965,0.29107728600502014,-0.16264286637306213
1701983707316106800,15.870106689453126,0.019394971430301666,0.3065016269683838,-0.13775011897087097
1701983707333088500,15.887088623046875,0.021532999351620674,0.30375275015830994,-0.07819075137376785
1701983707350099000,15.904098876953125,0.010842857882380486,0.26450464129447937,-0.036651913076639175
1701983707367083000,15.9210830078125,-0.0064140851609408855,0.16233743727207184,-0.009926560334861279
1701983707384079400,15.938079345703125,-0.012217304669320583,0.08399397134780884,0.032070424407720566
1701983707401068000,15.955068115234376,-0.007941247895359993,0.04199698567390442,0.06154467165470123
1701983707418067200,15.972067138671875,-0.010842857882380486,0.058948494493961334,0.07620543986558914
1701983707435053600,15.989053466796875,-0.008399397134780884,0.18707747757434845,0.052839845418930054
1701983707452048100,16.006048095703125,0.014813481830060482,0.24388794600963593,0.005650503560900688
1701983707469034500,16.023034423828125,0.05726861581206322,0.22082778811454773,-0.060475658625364304
1701983707486032000,16.040031982421876,0.1014036312699318,0.23060162365436554,-0.058337632566690445
1701983707503020800,16.057020751953125,0.1111774742603302,0.24495697021484375,0.17928895354270935
1701983707520018400,16.074018310546876,0.013897184282541275,-0.1518000066280365,0.3159700334072113
1701983707537006800,16.0910068359375,0.0022907445672899485,-0.41493022441864014,0.2382374405860901
1701983707553999400,16.107999267578126,-0.05009094998240471,-0.2379320114850998,0.12095131725072861
1701983707570990300,16.124990234375,-0.08964447677135468,0.04444044828414917,0.05100724846124649
