time,seconds_elapsed,z,y,x
1702140104899171000,0.150171142578125,-1.8461811542510986,-3.0165443420410156,0.011592984199523926
1702140104916151800,0.16715185546875,-1.559877634048462,-3.297090530395508,0.13977836072444916
1702140104933158000,0.184157958984375,-1.2777867317199707,-3.6628646850585938,-0.005466073751449585
1702140104950140000,0.201139892578125,-1.26481294631958,-4.173311233520508,-0.3728840947151184
1702140104967137500,0.218137451171875,-1.8508729934692383,-4.837970733642578,-0.6679854393005371
1702140104984119600,0.23511962890625,-3.033918857574463,-5.85841178894043,-0.9435265064239502
1702140105001112800,0.25211279296875,-4.04262638092041,-6.840549468994141,-0.9093729257583618
1702140105018110000,0.26910986328125,-5.054612636566162,-7.756087303161621,-0.7281365394592285
1702140105035090200,0.286090087890625,-6.37424898147583,-8.199797630310059,0.03788578510284424
1702140105052090000,0.303090087890625,-7.124816417694092,-8.912710189819336,0.909365177154541
1702140105069085000,0.3200849609375,-6.9318718910217285,-9.753331184387207,2.3411693572998047
1702140105086073600,0.337073486328125,-5.442187309265137,-10.777812957763672,4.695047855377197
1702140105103066000,0.354066162109375,-4.093122482299805,-11.297069549560547,6.395598888397217
1702140105120053000,0.371052978515625,-4.982377529144287,-11.537845611572266,6.9400858879089355
1702140105137046500,0.388046630859375,-6.38333797454834,-11.962930679321289,8.43091869354248
1702140105154039300,0.405039306640625,-6.963745594024658,-12.625600814819336,11.23941707611084
1702140105171025200,0.422025146484375,-4.787637710571289,-13.05936336517334,14.32873821258545
1702140105188020700,0.439020751953125,-1.9630992412567139,-12.829788208007812,17.19112205505371
1702140105205008100,0.456008056640625,-0.5929818153381348,-11.674093246459961,18.74912452697754
1702140105222006000,0.473006103515625,-1.101560115814209,-10.395606994628906,19.48377799987793
1702140105238983400,0.4899833984375,-1.936821460723877,-9.669565200805664,20.45890998840332
1702140105255982300,0.506982421875,-1.630824089050293,-9.30727767944336,21.867603302001953
1702140105272978400,0.523978515625,-0.17130041122436523,-8.40123176574707,22.838298797607422
1702140105289956000,0.5409560546875,1.3425307273864746,-6.983681678771973,22.865753173828125
1702140105306955300,0.557955322265625,2.87323260307312,-5.097091197967529,22.56662940979004
1702140105323949600,0.574949462890625,4.203392028808594,-3.4084208011627197,23.121681213378906
1702140105340938200,0.591938232421875,4.456629753112793,-2.0419468879699707,25.227703094482422
1702140105357930800,0.6089306640625,3.1121749877929688,-1.1305829286575317,26.984874725341797
1702140105374921000,0.6259208984375,2.97701358795166,-1.6722773313522339,27.837360382080078
1702140105391916500,0.64291650390625,6.30718994140625,-2.975261688232422,27.21038818359375
1702140105408900600,0.659900634765625,8.651376724243164,-4.266619682312012,25.500391006469727
1702140105425894100,0.67689404296875,9.718049049377441,-5.883970737457275,24.53312110900879
1702140105442887000,0.693886962890625,11.955281257629395,-7.660285949707031,23.83211898803711
1702140105459871200,0.710871337890625,13.896388053894043,-9.798818588256836,22.62240219116211
1702140105476870100,0.7278701171875,14.163816452026367,-11.45466136932373,19.652389526367188
1702140105493860000,0.744860107421875,13.342621803283691,-12.26606559753418,17.038972854614258
1702140105510844200,0.76184423828125,12.857087135314941,-13.184206008911133,16.75812530517578
1702140105527844400,0.77884423828125,13.916316032409668,-14.177515029907227,16.95471954345703
1702140105544841200,0.79584130859375,15.13143539428711,-14.660452842712402,15.973043441772461
1702140105561824000,0.812823974609375,15.08102798461914,-14.778093338012695,14.113630294799805
1702140105578811100,0.82981103515625,14.761610984802246,-14.236401557922363,12.194917678833008
1702140105595804700,0.8468046875,13.786376953125,-14.398382186889648,13.276968002319336
1702140105612787500,0.863787353515625,12.055237770080566,-14.380191802978516,14.63723087310791
1702140105629784600,0.88078466796875,10.98100757598877,-13.42037296295166,13.732767105102539
1702140105646774800,0.89777490234375,10.445765495300293,-12.37330150604248,11.67081069946289
1702140105663773400,0.9147734375,10.139698028564453,-11.835884094238281,11.835810661315918
1702140105680757200,0.93175732421875,9.14270305633545,-10.605867385864258,12.366844177246094
1702140105697751600,0.94875146484375,7.91422176361084,-8.837117195129395,11.632543563842773
1702140105714742000,0.965741943359375,6.685535907745361,-7.381192684173584,11.176252365112305
1702140105731733000,0.98273291015625,5.809327602386475,-6.757479667663574,11.884634971618652
1702140105748725200,0.999725341796875,4.771368980407715,-6.19279670715332,12.744407653808594
1702140105765705200,1.016705322265625,4.073514461517334,-6.200252532958984,14.551801681518555
1702140105782698200,1.0336982421875,2.861525297164917,-7.266361713409424,18.263925552368164
1702140105799698000,1.050697998046875,-0.44445163011550903,-8.7421875,21.714962005615234
1702140105816692500,1.0676923828125,-3.3161134719848633,-9.79054069519043,20.861968994140625
1702140105833681700,1.084681640625,-3.5856075286865234,-9.898343086242676,17.446128845214844
1702140105850668000,1.10166796875,-2.417067527770996,-10.349024772644043,15.243926048278809
1702140105867662300,1.118662353515625,-1.3115100860595703,-10.564069747924805,13.67619514465332
1702140105884652300,1.13565234375,-1.651111125946045,-10.690457344055176,11.732695579528809
1702140105901644300,1.152644287109375,-1.228224754333496,-10.982583045959473,9.348581314086914
1702140105918633200,1.16963330078125,0.2978248596191406,-12.025325775146484,6.902859687805176
1702140105935625500,1.18662548828125,1.7644543647766113,-13.537086486816406,4.741801738739014
1702140105952619800,1.203619873046875,3.191986083984375,-16.037263870239258,3.5217623710632324
1702140105969604000,1.22060400390625,6.043075084686279,-18.3433837890625,4.4459428787231445
1702140105986599000,1.237598876953125,9.509035110473633,-18.19776153564453,6.982382774353027
1702140106003591400,1.25459130859375,8.774701118469238,-18.419218063354492,12.129409790039062
1702140106020578300,1.271578369140625,4.354626178741455,-20.00501823425293,15.556519508361816
1702140106037572600,1.288572509765625,5.869596481323242,-18.045135498046875,13.207210540771484
1702140106054563000,1.30556298828125,10.072665214538574,-16.320398330688477,11.666128158569336
1702140106071555800,1.322555908203125,11.10639476776123,-16.005807876586914,16.044429779052734
1702140106088542500,1.33954248046875,8.36122989654541,-17.468759536743164,21.242210388183594
1702140106105536000,1.356535888671875,5.988871097564697,-16.931190490722656,20.40655517578125
1702140106122529000,1.373529052734375,5.562819480895996,-16.499496459960938,19.641677856445312
1702140106139508200,1.39050830078125,6.873095512390137,-16.906848907470703,24.11174201965332
1702140106156509200,1.40750927734375,7.7699689865112305,-15.733829498291016,27.483436584472656
1702140106173502000,1.424501953125,6.77921724319458,-13.814298629760742,28.713844299316406
1702140106190488800,1.44148876953125,4.0748820304870605,-12.634872436523438,29.0838623046875
1702140106207473400,1.458473388671875,0.4503335952758789,-13.25121784210205,30.999277114868164
1702140106224471000,1.475470947265625,0.42464733123779297,-14.279894828796387,33.807926177978516
1702140106241473500,1.4924736328125,3.447803497314453,-15.889350891113281,36.49232482910156
1702140106258459000,1.509458984375,7.087094306945801,-17.621232986450195,38.06111145019531
1702140106275447600,1.526447509765625,8.38766098022461,-20.307809829711914,39.88423538208008
1702140106292439300,1.543439208984375,9.999861717224121,-20.86564064025879,40.84921646118164
1702140106309425700,1.56042578125,11.063603401184082,-21.491973876953125,41.881614685058594
1702140106326425000,1.577425048828125,12.677637100219727,-23.14327049255371,40.39874267578125
1702140106343409700,1.59440966796875,16.097654342651367,-25.448829650878906,37.4962158203125
1702140106360403000,1.61140283203125,18.04119110107422,-27.456911087036133,32.39304733276367
1702140106377389000,1.62838916015625,18.3206787109375,-27.988189697265625,26.264118194580078
1702140106394379000,1.64537890625,16.34697723388672,-28.491897583007812,22.406803131103516
1702140106411378200,1.662378173828125,13.161993026733398,-29.058937072753906,20.029455184936523
1702140106428367600,1.67936767578125,8.891162872314453,-29.428499221801758,17.54547119140625
1702140106445356800,1.696356689453125,4.665729522705078,-29.67884635925293,14.264335632324219
1702140106462349600,1.713349609375,3.1567869186401367,-29.1102237701416,10.33098030090332
1702140106479336400,1.73033642578125,3.4257450103759766,-27.220876693725586,6.71937894821167
1702140106496330000,1.747330078125,3.637578010559082,-24.753536224365234,4.014575481414795
1702140106513322800,1.76432275390625,4.361469268798828,-21.390928268432617,2.986194133758545
1702140106530309600,1.7813095703125,5.021030426025391,-18.41055679321289,4.236042022705078
1702140106547301400,1.79830126953125,5.500957489013672,-15.917720794677734,7.645727634429932
1702140106564297000,1.815296875,5.101968288421631,-14.500131607055664,10.773219108581543
1702140106581283600,1.83228369140625,4.496118545532227,-13.91099739074707,12.066974639892578
1702140106598277000,1.849277099609375,4.378544807434082,-13.945575714111328,12.8572416305542
1702140106615267600,1.866267578125,5.375707149505615,-14.690694808959961,14.132675170898438
1702140106632260000,1.883260009765625,7.651939868927002,-15.11451244354248,15.336746215820312
1702140106649240000,1.900239990234375,9.10947036743164,-16.737628936767578,18.640724182128906
1702140106666242300,1.9172421875,9.255105972290039,-18.92119598388672,24.293804168701172
1702140106683220000,1.934219970703125,7.914981842041016,-20.5446834564209,28.818862915039062
1702140106700222500,1.951222412109375,4.9571614265441895,-22.339200973510742,31.184436798095703
1702140106717216800,1.968216796875,2.2739171981811523,-24.00066375732422,30.0778865814209
1702140106734203600,1.98520361328125,2.4144675731658936,-25.4722900390625,28.272476196289062
1702140106751183600,2.00218359375,4.185485363006592,-27.504474639892578,30.343050003051758
1702140106768173300,2.01917333984375,5.111773490905762,-29.014583587646484,35.86734390258789
1702140106785169700,2.036169677734375,0.5068144798278809,-31.628067016601562,38.25075912475586
1702140106802174200,2.05317431640625,0.24981904029846191,-30.01203727722168,30.269018173217773
1702140106819148000,2.07014794921875,3.0508785247802734,-30.85790252685547,27.966960906982422
1702140106836148500,2.0871484375,8.228317260742188,-33.57095718383789,31.550127029418945
1702140106853145900,2.104145751953125,14.375677108764648,-31.849098205566406,36.354949951171875
1702140106870124000,2.1211240234375,13.651177406311035,-29.56277847290039,42.30970764160156
1702140106887123700,2.138123779296875,5.292294025421143,-27.023799896240234,42.260704040527344
1702140106904117000,2.155116943359375,2.5894663333892822,-23.6906681060791,36.806156158447266
1702140106921096700,2.1720966796875,6.789844512939453,-20.090370178222656,35.31418991088867
1702140106938098200,2.18909814453125,5.666975498199463,-19.802669525146484,38.22807312011719
1702140106955088400,2.20608837890625,-1.1933560371398926,-18.646507263183594,38.133487701416016
1702140106972081200,2.2230810546875,-1.931948184967041,-13.664183616638184,30.67793846130371
1702140106989068500,2.240068603515625,2.795229196548462,-10.492142677307129,29.909442901611328
1702140107006059500,2.2570595703125,2.020219087600708,-9.431142807006836,33.957027435302734
1702140107023056100,2.27405615234375,-4.589138984680176,-8.380879402160645,31.790822982788086
1702140107040041200,2.291041259765625,-6.982823371887207,-3.2664072513580322,23.89495277404785
1702140107057034500,2.308034423828125,-4.257554531097412,-0.4281758666038513,22.434823989868164
1702140107074027500,2.325027587890625,-4.021439075469971,1.442793846130371,23.492477416992188
1702140107091012000,2.34201220703125,-6.974676132202148,2.5583181381225586,23.336523056030273
1702140107108008700,2.3590087890625,-10.482650756835938,4.068094253540039,21.697811126708984
1702140107124986600,2.375986572265625,-11.264477729797363,5.945707321166992,18.392478942871094
1702140107141990700,2.39299072265625,-8.097661018371582,6.9020676612854,16.00090980529785
1702140107158981000,2.409981201171875,-4.934378147125244,6.367094039916992,14.290807723999023
1702140107175972000,2.42697216796875,-3.429720878601074,5.309808731079102,11.603751182556152
1702140107192965000,2.443965087890625,-2.4432995319366455,3.902966022491455,8.664484024047852
1702140107209952000,2.460951904296875,-1.209972620010376,2.9184701442718506,5.684735298156738
1702140107226943700,2.47794384765625,-1.0504318475723267,2.0943756103515625,4.094385147094727
1702140107243931100,2.49493115234375,-0.09142875671386719,1.1696217060089111,3.9872732162475586
1702140107260925000,2.511925048828125,2.065519332885742,0.6390364170074463,3.9605464935302734
1702140107277919500,2.52891943359375,3.9503467082977295,-0.00821530818939209,3.7540225982666016
1702140107294901000,2.54590087890625,5.430703639984131,-0.5339016914367676,3.13051700592041
1702140107311890200,2.56289013671875,5.751939296722412,-1.1902644634246826,2.555495262145996
1702140107328890600,2.579890625,5.399049282073975,-1.9831360578536987,2.7245864868164062
1702140107345882600,2.596882568359375,5.31741189956665,-2.388850212097168,3.4139575958251953
1702140107362875400,2.61387548828125,5.122842788696289,-2.379441499710083,4.295077323913574
1702140107379862300,2.6308623046875,4.5622687339782715,-2.322350025177002,4.964658737182617
1702140107396855800,2.647855712890625,5.365500450134277,-2.4559524059295654,6.023991584777832
1702140107413848600,2.6648486328125,5.173850059509277,-2.973877429962158,7.328136444091797
1702140107430835700,2.681835693359375,3.507216453552246,-3.757685899734497,9.459442138671875
1702140107447842300,2.69884228515625,2.131558656692505,-4.152508735656738,10.604765892028809
1702140107464820000,2.715820068359375,0.8020765781402588,-4.41166877746582,10.283365249633789
1702140107481812700,2.732812744140625,1.3716766834259033,-4.886261940002441,9.090239524841309
1702140107498799900,2.7497998046875,3.1210849285125732,-5.403689384460449,7.309444427490234
1702140107515793400,2.76679345703125,4.184424877166748,-5.847125053405762,4.943572521209717
1702140107532786000,2.783785888671875,4.2965240478515625,-5.984310150146484,2.627750873565674
1702140107549766000,2.800765869140625,3.9804365634918213,-5.9201836585998535,0.6986899375915527
1702140107566766300,2.817766357421875,3.859720230102539,-5.824419021606445,-0.7075710296630859
1702140107583755300,2.83475537109375,3.964167833328247,-5.710834503173828,-2.004197597503662
1702140107600743200,2.8517431640625,4.215222358703613,-5.6647772789001465,-3.2717652320861816
1702140107617734100,2.868734130859375,4.696735858917236,-5.8198981285095215,-4.281036376953125
1702140107634733600,2.885733642578125,5.318589687347412,-5.975393772125244,-5.052144527435303
1702140107651735000,2.902735107421875,5.804810523986816,-6.159497261047363,-5.5894246101379395
1702140107668703000,2.919702880859375,6.149744510650635,-6.34882926940918,-5.948233127593994
1702140107685696500,2.936696533203125,6.430196762084961,-6.594639301300049,-5.947760581970215
1702140107702699500,2.953699462890625,6.563506603240967,-6.823266983032227,-5.914259910583496
1702140107719684400,2.970684326171875,6.4173583984375,-7.030064582824707,-5.971179485321045
1702140107736678100,2.98767822265625,6.122908592224121,-7.297566890716553,-5.946387767791748
1702140107753670000,3.004669921875,5.668143272399902,-7.653970241546631,-5.964609622955322
1702140107770657000,3.021656982421875,5.227817535400391,-8.120783805847168,-6.001962661743164
1702140107787651000,3.038651123046875,5.0645222663879395,-8.768651008605957,-5.6620354652404785
1702140107804641300,3.055641357421875,5.16669225692749,-9.538930892944336,-5.016214370727539
1702140107821634000,3.072634033203125,4.8271870613098145,-10.392961502075195,-4.279018402099609
1702140107838624300,3.089624267578125,3.72902774810791,-11.399876594543457,-3.332343578338623
1702140107855615500,3.106615478515625,1.9444568157196045,-12.698025703430176,-1.9964652061462402
1702140107872606700,3.123606689453125,-0.012223005294799805,-14.413507461547852,-1.0205435752868652
1702140107889597700,3.14059765625,-1.263706088066101,-15.916236877441406,-0.7975645065307617
1702140107906588700,3.157588623046875,-1.5594139099121094,-17.461814880371094,0.5285243988037109
1702140107923576600,3.17457666015625,-0.563482403755188,-18.55727767944336,4.28523588180542
1702140107940573700,3.19157373046875,0.72548508644104,-18.239341735839844,9.685674667358398
1702140107957561900,3.208561767578125,0.16605782508850098,-16.205116271972656,13.08845329284668
1702140107974553000,3.225552978515625,-2.977416753768921,-14.48387336730957,13.995250701904297
1702140107991532000,3.242531982421875,-4.9237823486328125,-13.150958061218262,14.256183624267578
1702140108008529400,3.259529296875,-5.273975372314453,-12.185911178588867,16.42119598388672
1702140108025526000,3.276526123046875,-6.835202693939209,-11.63416576385498,19.72000503540039
1702140108042511000,3.293510986328125,-9.130620002746582,-11.718683242797852,21.44928741455078
1702140108059508200,3.31050830078125,-9.292119979858398,-12.443426132202148,22.17410659790039
1702140108076499500,3.32749951171875,-6.391740322113037,-13.1950044631958,23.066837310791016
1702140108093488000,3.344488037109375,-2.5874085426330566,-12.715848922729492,23.521570205688477
1702140108110484200,3.361484130859375,0.005343317985534668,-11.194194793701172,24.433746337890625
1702140108127457000,3.37845703125,0.8101326823234558,-9.84595775604248,26.195648193359375
1702140108144459800,3.395459716796875,0.9040637612342834,-9.181288719177246,28.330867767333984
1702140108161456000,3.4124560546875,1.4285800457000732,-8.923025131225586,29.923368453979492
1702140108178449400,3.429449462890625,2.86635160446167,-9.090314865112305,30.091297149658203
1702140108195435800,3.446435791015625,5.760015964508057,-10.382505416870117,29.320377349853516
1702140108212428000,3.463427978515625,9.736740112304688,-12.60108757019043,27.90060806274414
1702140108229412000,3.480412109375,12.815362930297852,-14.415868759155273,24.747303009033203
1702140108246410000,3.497409912109375,14.00621509552002,-15.196494102478027,20.835933685302734
1702140108263401200,3.514401123046875,14.212589263916016,-15.357795715332031,18.026948928833008
1702140108280392000,3.531391845703125,13.499934196472168,-15.89352798461914,17.140235900878906
1702140108297370400,3.548370361328125,12.161599159240723,-16.005470275878906,15.140536308288574
1702140108314371800,3.565371826171875,10.962737083435059,-15.243620872497559,12.068878173828125
1702140108331355400,3.58235546875,11.036140441894531,-14.340181350708008,11.230480194091797
1702140108348346000,3.59934619140625,10.309118270874023,-13.8718843460083,13.864799499511719
1702140108365337000,3.616337158203125,7.77055549621582,-14.251762390136719,17.56059455871582
1702140108382330400,3.633330322265625,5.41327428817749,-14.45473861694336,19.275968551635742
1702140108399323600,3.65032373046875,5.166752338409424,-14.050130844116211,17.82875633239746
1702140108416310300,3.667310302734375,5.656314849853516,-13.346881866455078,16.1634521484375
1702140108433302300,3.68430224609375,6.224263668060303,-11.715080261230469,14.823984146118164
1702140108450293500,3.70129345703125,6.219899654388428,-9.73979663848877,13.419248580932617
1702140108467288000,3.7182880859375,5.744524002075195,-9.02829360961914,13.184653282165527
1702140108484278000,3.735278076171875,4.84627103805542,-7.315042495727539,12.591705322265625
1702140108501276200,3.752276123046875,2.7387731075286865,-5.802676200866699,11.913518905639648
1702140108518267000,3.769266845703125,2.9988749027252197,-6.001499652862549,12.199483871459961
1702140108535255000,3.786255126953125,5.297809600830078,-9.606308937072754,14.981752395629883
1702140108552239400,3.8032392578125,7.068770408630371,-14.145387649536133,17.80190086364746
1702140108569231400,3.8202314453125,7.011120796203613,-16.184045791625977,18.966001510620117
1702140108586227000,3.83722705078125,4.300192356109619,-15.83462905883789,19.75238037109375
1702140108603226600,3.8542265625,-0.08011312037706375,-14.608421325683594,20.86821746826172
1702140108620210200,3.871210205078125,-4.898462295532227,-12.714638710021973,21.4746150970459
1702140108637200400,3.888200439453125,-8.392934799194336,-11.53704833984375,20.38273048400879
1702140108654195700,3.90519580078125,-8.803802490234375,-11.922896385192871,17.954687118530273
1702140108671176400,3.922176513671875,-6.191794395446777,-11.634779930114746,13.578145980834961
1702140108688177700,3.939177734375,-2.7311973571777344,-10.361260414123535,10.222391128540039
1702140108705168600,3.956168701171875,-0.996375560760498,-9.505318641662598,10.066327095031738
1702140108722159900,3.973159912109375,-1.630720615386963,-10.091211318969727,11.816913604736328
1702140108739150800,3.99015087890625,-3.1814308166503906,-12.042661666870117,11.15709400177002
1702140108756141800,4.007141845703125,-3.769014358520508,-15.78223705291748,6.540205955505371
1702140108773122600,4.02412255859375,-0.3410472869873047,-18.744752883911133,0.8991864919662476
1702140108790124300,4.041124267578125,3.922970771789551,-20.264360427856445,-0.003712177276611328
1702140108807112700,4.05811279296875,7.968465805053711,-20.18876838684082,4.2602410316467285
1702140108824108800,4.07510888671875,9.384746551513672,-18.751901626586914,9.003101348876953
1702140108841087000,4.0920869140625,6.674055576324463,-17.8771915435791,12.25611686706543
1702140108858088400,4.10908837890625,3.718815803527832,-17.867507934570312,13.299314498901367
1702140108875079400,4.126079345703125,4.3305840492248535,-18.679662704467773,14.323103904724121
1702140108892070400,4.1430703125,8.035591125488281,-19.319995880126953,16.88446807861328
1702140108909061600,4.1600615234375,9.211278915405273,-20.089736938476562,20.573719024658203
1702140108926052900,4.177052978515625,7.909781455993652,-20.308496475219727,22.05689811706543
1702140108943043600,4.194043701171875,7.514687538146973,-19.990442276000977,22.85770606994629
1702140108960032300,4.2110322265625,8.747798919677734,-19.415266036987305,26.83278465270996
1702140108977028600,4.228028564453125,10.085817337036133,-17.6307430267334,31.879451751708984
1702140108994017000,4.24501708984375,8.846782684326172,-15.476141929626465,33.888031005859375
1702140109011016200,4.26201611328125,6.858014106750488,-13.913656234741211,33.17091369628906
1702140109027993000,4.2789931640625,4.710729598999023,-15.382205963134766,34.96319580078125
1702140109044988200,4.29598828125,4.606694221496582,-18.224748611450195,37.59846878051758
1702140109061973000,4.312972900390625,8.057027816772461,-20.880016326904297,41.12687301635742
1702140109078972400,4.329972412109375,11.94963264465332,-21.244823455810547,43.91042709350586
1702140109095963400,4.34696337890625,12.297826766967773,-20.467824935913086,44.07564163208008
1702140109112954600,4.36395458984375,11.120004653930664,-21.16736602783203,42.624488830566406
1702140109129943300,4.380943359375,10.741220474243164,-22.670894622802734,39.79981231689453
1702140109146936600,4.3979365234375,12.72829818725586,-24.353496551513672,36.6649284362793
1702140109163928300,4.41492822265625,14.734238624572754,-26.47563934326172,34.39187240600586
1702140109180920800,4.4319208984375,14.995628356933594,-28.376707077026367,29.924774169921875
1702140109197909800,4.44890966796875,13.923577308654785,-29.144554138183594,25.02654266357422
1702140109214900700,4.465900634765625,11.73902416229248,-28.874954223632812,21.077133178710938
1702140109231892000,4.48289208984375,9.218467712402344,-27.95724868774414,17.896160125732422
1702140109248883000,4.499883056640625,7.326655387878418,-26.769123077392578,15.178719520568848
1702140109265874000,4.5168740234375,5.26665735244751,-26.30160903930664,13.06216049194336
1702140109282865000,4.533864990234375,3.215033531188965,-24.39056396484375,8.781439781188965
1702140109299856400,4.5508564453125,2.223691940307617,-21.623071670532227,4.213184356689453
1702140109316847400,4.567847412109375,2.2377395629882812,-18.862464904785156,2.78791880607605
1702140109333838600,4.584838623046875,2.767369270324707,-17.250343322753906,5.067405700683594
1702140109350826000,4.601825927734375,2.770970344543457,-15.838238716125488,7.375776290893555
1702140109367824400,4.618824462890625,1.4392509460449219,-14.250596046447754,7.357600212097168
1702140109384811500,4.6358115234375,0.8821477890014648,-13.073861122131348,6.82248067855835
1702140109401802500,4.652802490234375,2.278254508972168,-12.549357414245605,7.544148921966553
1702140109418793700,4.669793701171875,4.499268531799316,-12.514236450195312,9.633872985839844
1702140109435784700,4.68678466796875,6.809258460998535,-12.959104537963867,12.670114517211914
1702140109452776000,4.70377587890625,8.282947540283203,-14.17440128326416,15.743907928466797
1702140109469753300,4.72075341796875,9.150796890258789,-15.25849437713623,18.539106369018555
1702140109486758100,4.737758056640625,8.612197875976562,-16.721176147460938,22.53567886352539
1702140109503748900,4.754748779296875,7.762503147125244,-17.647083282470703,26.252986907958984
1702140109520740000,4.771739990234375,7.293528079986572,-18.4407901763916,27.43488311767578
1702140109537720800,4.788720947265625,6.317910194396973,-19.596643447875977,25.54067611694336
1702140109554722300,4.805722412109375,5.089828968048096,-21.73238182067871,23.82704734802246
1702140109571713500,4.822713623046875,4.893313407897949,-23.87004852294922,25.205665588378906
1702140109588702000,4.839701904296875,4.627286911010742,-24.71963119506836,28.796710968017578
1702140109605698000,4.856697998046875,2.5423808097839355,-25.231708526611328,30.52991485595703
1702140109622686500,4.8736865234375,2.766993522644043,-25.078929901123047,28.031024932861328
1702140109639677700,4.890677734375,5.570118427276611,-26.433340072631836,26.716127395629883
1702140109656668700,4.907668701171875,10.312494277954102,-28.70984649658203,27.694164276123047
1702140109673660000,4.924659912109375,15.752117156982422,-28.359533309936523,31.30336570739746
1702140109690651000,4.94165087890625,14.929508209228516,-26.531293869018555,37.60699462890625
1702140109707641900,4.958641845703125,7.302045822143555,-24.612071990966797,40.14817810058594
1702140109724633000,4.975633056640625,4.247158527374268,-20.28582763671875,36.19852066040039
1702140109741613800,4.99261376953125,5.820125579833984,-17.897552490234375,34.27902603149414
1702140109758615000,5.009614990234375,3.9219706058502197,-18.312612533569336,33.16242599487305
1702140109775606300,5.026606201171875,-0.9408519268035889,-18.908329010009766,29.75391960144043
1702140109792597800,5.04359765625,-0.8422024250030518,-15.044689178466797,24.424625396728516
1702140109809592300,5.06059228515625,2.513549566268921,-13.064321517944336,26.45753288269043
1702140109826580000,5.077580078125,1.3925981521606445,-11.902448654174805,30.401626586914062
1702140109843565800,5.09456591796875,-0.12717628479003906,-8.268077850341797,27.717924118041992
1702140109860561700,5.111561767578125,0.2594454288482666,-5.300783157348633,25.67977523803711
1702140109877553000,5.128552978515625,-0.3340517282485962,-3.4739933013916016,25.391468048095703
1702140109894543600,5.145543701171875,-2.0366411209106445,-1.975951075553894,23.74762535095215
1702140109911535000,5.16253515625,-1.983812689781189,-0.3398563861846924,20.690959930419922
1702140109928526300,5.1795263671875,-0.8354519605636597,1.8183083534240723,18.837121963500977
1702140109945517000,5.19651708984375,-3.0709762573242188,2.930262327194214,19.223278045654297
1702140109962500000,5.2135,-6.609241962432861,3.4176812171936035,17.480934143066406
1702140109979497000,5.2304970703125,-6.963751316070557,4.109334945678711,13.679194450378418
1702140109996490200,5.247490234375,-4.701453685760498,3.958850622177124,10.878087043762207
1702140110013481500,5.2644814453125,-1.5780482292175293,3.282057046890259,9.144000053405762
1702140110030472700,5.28147265625,0.2200411558151245,2.6473805904388428,7.824389457702637
1702140110047463400,5.29846337890625,-0.5400158762931824,2.1833841800689697,7.1690568923950195
1702140110064454700,5.31545458984375,-3.8412208557128906,1.2324488162994385,6.656706809997559
1702140110081445600,5.332445556640625,-5.9683756828308105,0.7200438976287842,4.967886924743652
1702140110098436600,5.3494365234375,-5.510725498199463,0.7054028511047363,2.7721004486083984
1702140110115427800,5.366427734375,-3.4709105491638184,0.46314549446105957,1.1514415740966797
1702140110132419000,5.383419189453125,-0.9938656687736511,-0.07880401611328125,0.9994354248046875
1702140110149410000,5.40041015625,1.2707023620605469,-0.9409250020980835,1.8276548385620117
1702140110166401000,5.417401123046875,3.293412685394287,-1.3686132431030273,2.6221141815185547
1702140110183379700,5.434379638671875,4.207239151000977,-1.5135976076126099,2.7149782180786133
1702140110200375300,5.451375244140625,4.419466018676758,-1.6983803510665894,2.513639450073242
1702140110217374200,5.468374267578125,4.485775947570801,-1.939378261566162,2.103419303894043
1702140110234365400,5.485365478515625,4.521742820739746,-2.2677879333496094,1.6230230331420898
1702140110251343600,5.502343505859375,4.496397018432617,-2.565915107727051,1.173365592956543
1702140110268340000,5.519340087890625,4.5321550369262695,-2.8638250827789307,0.9263839721679688
1702140110285329000,5.536328857421875,4.53695821762085,-3.2631821632385254,0.9959735870361328
1702140110302319900,5.55331982421875,4.7191901206970215,-3.4730918407440186,1.090719223022461
1702140110319311000,5.57031103515625,5.011994361877441,-3.3572237491607666,1.0411901473999023
1702140110336303600,5.5873037109375,5.038200378417969,-3.2336127758026123,1.0060176849365234
1702140110353296400,5.60429638671875,5.198284149169922,-2.9026622772216797,1.2820053100585938
1702140110370278100,5.621278076171875,4.844034671783447,-2.6798367500305176,1.6309547424316406
1702140110387278300,5.6382783203125,4.443516731262207,-2.552593231201172,2.102555274963379
1702140110404278800,5.65527880859375,4.190951347351074,-2.443838357925415,2.5219764709472656
1702140110421267200,5.67226708984375,4.2278523445129395,-2.338376522064209,2.967313766479492
1702140110438258400,5.689258544921875,4.543323516845703,-2.177077054977417,3.6376538276672363
1702140110455249400,5.70624951171875,4.993248462677002,-1.8820236921310425,4.689702033996582
1702140110472240600,5.72324072265625,5.296867847442627,-1.5848047733306885,5.398704528808594
1702140110489231400,5.7402314453125,5.027946472167969,-1.0103912353515625,4.966907024383545
1702140110506222600,5.75722265625,2.9855597019195557,-0.15847444534301758,4.071199417114258
1702140110523213600,5.774213623046875,-0.05807924270629883,0.5470924377441406,4.100339412689209
1702140110540205000,5.791205078125,-1.97951078414917,0.4632077217102051,5.0121870040893555
1702140110557192700,5.808192626953125,-1.6592869758605957,-0.1092379093170166,5.630063056945801
1702140110574190600,5.825190673828125,-0.17427444458007812,-1.0508511066436768,5.096583843231201
1702140110591167700,5.842167724609375,1.2432470321655273,-2.0270743370056152,3.266622543334961
1702140110608169200,5.859169189453125,2.223029136657715,-2.978886604309082,1.0194087028503418
1702140110625160400,5.876160400390625,2.8147850036621094,-3.835423231124878,-1.0428171157836914
1702140110642151400,5.8931513671875,3.279956817626953,-4.546164512634277,-2.5663740634918213
1702140110659142400,5.910142333984375,3.7014684677124023,-5.140224456787109,-3.539109468460083
1702140110676133600,5.927133544921875,4.2533464431762695,-5.567129135131836,-4.172586441040039
1702140110693124600,5.94412451171875,4.739405632019043,-5.908533096313477,-4.752569198608398
1702140110710115800,5.96111572265625,4.9420342445373535,-6.342052459716797,-5.127523899078369
1702140110727107000,5.978107177734375,5.06201171875,-6.828145980834961,-5.359886646270752
1702140110744097500,5.99509765625,4.8807759284973145,-7.658257484436035,-5.275351524353027
1702140110761073400,6.012073486328125,4.522914886474609,-8.74443244934082,-5.220600605010986
1702140110778079000,6.029078857421875,4.65476655960083,-9.851613998413086,-5.661342144012451
1702140110795072300,6.046072265625,5.785198211669922,-10.743478775024414,-6.0929718017578125
1702140110812060000,6.063059814453125,6.659345626831055,-11.789382934570312,-5.896790981292725
1702140110829053200,6.08005322265625,6.7714128494262695,-12.707154273986816,-5.375030517578125
1702140110846034000,6.097033935546875,6.130245208740234,-13.481163024902344,-4.825892925262451
1702140110863035400,6.114035400390625,4.974106788635254,-14.315895080566406,-4.131911277770996
1702140110880026400,6.1310263671875,3.2607014179229736,-15.592236518859863,-2.9395911693573
1702140110897017600,6.148017578125,1.4465727806091309,-16.746145248413086,-1.2907233238220215
1702140110914008800,6.1650087890625,-0.6465864181518555,-18.294288635253906,1.1929335594177246
1702140110931011300,6.18201123046875,-2.409942388534546,-19.864709854125977,3.9892578125
1702140110947990800,6.19899072265625,-5.061189651489258,-20.8703670501709,6.843206405639648
1702140110964982000,6.21598193359375,-7.89314603805542,-22.095794677734375,10.782978057861328
1702140110981964500,6.232964599609375,-9.14333724975586,-22.714073181152344,15.791834831237793
1702140110998964200,6.249964111328125,-8.704710960388184,-22.793285369873047,20.751508712768555
1702140111015955500,6.26695556640625,-6.652759552001953,-22.269432067871094,23.06295394897461
1702140111032935700,6.283935791015625,-3.6869454383850098,-21.640108108520508,23.616317749023438
1702140111049937400,6.3009375,-0.1788036823272705,-20.851289749145508,25.157062530517578
1702140111066925800,6.31792578125,2.213402032852173,-19.549541473388672,27.802967071533203
1702140111083922000,6.334921875,2.6231606006622314,-17.492942810058594,29.889436721801758
1702140111100910600,6.35191064453125,2.387752056121826,-15.057356834411621,30.357009887695312
1702140111117901800,6.36890185546875,3.886859178543091,-13.540352821350098,30.80062484741211
1702140111134892800,6.385892822265625,6.877071857452393,-13.081158638000488,30.99776840209961
1702140111151886000,6.402885986328125,10.408434867858887,-12.995566368103027,30.184967041015625
1702140111168870100,6.4198701171875,13.554414749145508,-13.321551322937012,28.332317352294922
1702140111185862100,6.436862060546875,15.692995071411133,-13.6967191696167,25.153335571289062
1702140111202859500,6.453859619140625,16.063220977783203,-13.778401374816895,21.44239616394043
1702140111219848400,6.470848388671875,14.690181732177734,-13.511860847473145,18.505582809448242
1702140111236839200,6.487839111328125,12.570849418640137,-13.800296783447266,16.881664276123047
1702140111253828400,6.504828369140625,11.398438453674316,-14.88551139831543,15.807600021362305
1702140111270823700,6.52182373046875,12.264812469482422,-16.53948402404785,14.198036193847656
1702140111287812400,6.538812255859375,12.680890083312988,-17.45644760131836,12.401759147644043
1702140111304803600,6.555803466796875,12.083672523498535,-17.119808197021484,10.899362564086914
1702140111321794800,6.572794921875,11.050992965698242,-16.69197654724121,10.362394332885742
1702140111338785800,6.589785888671875,9.830558776855469,-16.182518005371094,10.657569885253906
1702140111355776800,6.60677685546875,9.499001502990723,-16.32650375366211,12.250998497009277
1702140111372768000,6.62376806640625,9.593843460083008,-16.36977767944336,15.471905708312988
1702140111389759000,6.640759033203125,8.003738403320312,-16.068042755126953,17.49020767211914
1702140111406737000,6.65773681640625,5.295044422149658,-14.181927680969238,15.320965766906738
1702140111423741400,6.674741455078125,4.197166919708252,-11.874366760253906,12.039850234985352
1702140111440734500,6.691734375,4.752830505371094,-9.5792818069458,9.840536117553711
1702140111457723400,6.708723388671875,5.312015533447266,-7.925711631774902,8.819146156311035
1702140111474714600,6.725714599609375,5.882069110870361,-6.270718097686768,8.276901245117188
1702140111491705300,6.742705322265625,6.363486289978027,-4.598354816436768,7.518021583557129
1702140111508689200,6.759689208984375,8.756973266601562,-5.899874687194824,9.078658103942871
1702140111525690400,6.7766904296875,11.401463508605957,-9.729674339294434,13.266794204711914
1702140111542678500,6.793678466796875,10.802241325378418,-13.321215629577637,17.6610107421875
1702140111559669800,6.810669677734375,5.7748565673828125,-15.077377319335938,20.69188117980957
1702140111576660700,6.82766064453125,-0.6111479997634888,-15.818258285522461,21.761981964111328
1702140111593652000,6.84465185546875,-4.469435691833496,-15.756721496582031,20.776348114013672
1702140111610633000,6.861633056640625,-3.8793606758117676,-13.72350025177002,18.05522918701172
1702140111627623700,6.878623779296875,-0.9445749521255493,-12.393945693969727,16.82335662841797
1702140111644627700,6.895627685546875,1.179229736328125,-12.039663314819336,17.01848602294922
1702140111661613800,6.91261376953125,1.148547649383545,-10.599259376525879,16.363101959228516
1702140111678596900,6.929596923828125,-1.9214038848876953,-8.846689224243164,15.550790786743164
1702140111695598600,6.9465986328125,-6.036710739135742,-9.165306091308594,14.755788803100586
1702140111712589800,6.96358984375,-6.2603936195373535,-11.028719902038574,12.113951683044434
1702140111729580800,6.980580810546875,-2.384333610534668,-13.792909622192383,8.411916732788086
1702140111746571800,6.99757177734375,2.516798973083496,-16.458473205566406,5.659340858459473
1702140111763562800,7.014562744140625,6.064384937286377,-17.716272354125977,3.593022584915161
1702140111780554000,7.031553955078125,6.52963924407959,-18.543296813964844,3.585617780685425
1702140111797535000,7.048534912109375,5.889437675476074,-18.435075759887695,4.630772113800049
1702140111814529000,7.065529052734375,6.888934135437012,-17.08112144470215,5.4366960525512695
1702140111831519000,7.08251904296875,9.314955711364746,-16.445404052734375,9.107723236083984
1702140111848509000,7.099509033203125,8.780137062072754,-16.677627563476562,14.11088752746582
1702140111865499400,7.11649951171875,5.783443450927734,-18.37778663635254,15.442525863647461
1702140111882493000,7.133492919921875,6.7033371925354,-20.2733154296875,13.73402214050293
1702140111899486000,7.15048583984375,11.309368133544922,-21.24570083618164,15.179315567016602
1702140111916476400,7.167476318359375,14.72990608215332,-20.97460174560547,21.752246856689453
1702140111933465900,7.1844658203125,13.462725639343262,-19.682851791381836,26.31156349182129
1702140111950455300,7.201455322265625,11.411674499511719,-17.293556213378906,26.38933753967285
1702140111967458300,7.218458251953125,10.361152648925781,-15.955260276794434,28.759082794189453
1702140111984447000,7.235447021484375,7.226142883300781,-16.30191993713379,32.3255615234375
1702140112001438000,7.25243798828125,7.399847507476807,-17.346893310546875,33.97319793701172
1702140112018429700,7.2694296875,11.20759391784668,-18.423751831054688,34.904991149902344
1702140112035420000,7.286419921875,13.904133796691895,-20.084043502807617,37.2161750793457
1702140112052405000,7.303405029296875,13.140691757202148,-22.60895347595215,40.596527099609375
1702140112069398500,7.3203984375,12.6957368850708,-22.803361892700195,40.681541442871094
1702140112086397400,7.3373974609375,13.806722640991211,-23.855478286743164,40.24209213256836
1702140112103384600,7.354384521484375,16.113418579101562,-25.396987915039062,38.293277740478516
1702140112120375600,7.37137548828125,19.689157485961914,-26.76002311706543,36.80564880371094
1702140112137366800,7.38836669921875,20.09864616394043,-27.955039978027344,35.58201599121094
1702140112154347500,7.405347412109375,16.710472106933594,-29.90818977355957,31.240386962890625
1702140112171349000,7.422348876953125,13.608598709106445,-32.24884033203125,25.95260238647461
1702140112188340000,7.439340087890625,11.887749671936035,-34.600257873535156,21.71185302734375
1702140112205328600,7.45632861328125,9.884044647216797,-35.113311767578125,16.960372924804688
1702140112222324500,7.473324462890625,7.3219075202941895,-33.504005432128906,11.013137817382812
1702140112239312400,7.4903125,6.376938819885254,-29.92029571533203,5.9922943115234375
1702140112256304000,7.50730419921875,6.338420867919922,-26.04987335205078,3.8329668045043945
1702140112273295400,7.52429541015625,5.567885398864746,-23.197786331176758,4.323161602020264
1702140112290286600,7.54128662109375,2.789963722229004,-21.631160736083984,5.724437713623047
1702140112307267600,7.558267578125,0.22812747955322266,-20.599470138549805,3.9632678031921387
1702140112324268500,7.5752685546875,-0.572209358215332,-18.371623992919922,1.5004475116729736
1702140112341259800,7.592259765625,-0.2279186248779297,-16.501623153686523,1.2766318321228027
1702140112358250800,7.609250732421875,1.0723109245300293,-15.473494529724121,3.610842704772949
1702140112375241700,7.62624169921875,3.323763847351074,-14.750823020935059,6.319653511047363
1702140112392233000,7.64323291015625,5.822986602783203,-14.289130210876465,8.508567810058594
1702140112409211000,7.6602109375,7.697195053100586,-14.282386779785156,11.036735534667969
1702140112426215200,7.677215087890625,7.976829528808594,-15.58432388305664,14.223298072814941
1702140112443206100,7.6942060546875,7.667218208312988,-18.005857467651367,17.293315887451172
1702140112460197000,7.711197021484375,8.079277038574219,-21.262428283691406,21.264774322509766
1702140112477188400,7.728188232421875,8.495649337768555,-24.009288787841797,25.122817993164062
1702140112494179600,7.7451796875,8.079569816589355,-23.63653564453125,25.51470184326172
1702140112511160600,7.76216064453125,6.992032051086426,-23.92475700378418,25.16832733154297
1702140112528161500,7.77916162109375,5.737575531005859,-24.64748764038086,24.348251342773438
1702140112545152800,7.79615283203125,4.350821495056152,-25.266571044921875,24.413015365600586
1702140112562133800,7.8131337890625,1.7250300645828247,-25.544506072998047,23.960874557495117
1702140112579135000,7.830135009765625,1.632287621498108,-25.99990463256836,23.366064071655273
1702140112596123600,7.84712353515625,3.1786117553710938,-27.02068328857422,24.696239471435547
1702140112613119500,7.864119384765625,4.894675254821777,-27.7036190032959,26.84134292602539
1702140112630108400,7.8811083984375,4.900970458984375,-27.5889892578125,28.232839584350586
1702140112647099100,7.89809912109375,3.090369462966919,-27.781932830810547,28.022228240966797
1702140112664090400,7.91509033203125,4.279239177703857,-27.1270809173584,25.539602279663086
1702140112681081300,7.932081298828125,6.032032489776611,-27.035614013671875,25.547245025634766
1702140112698072600,7.949072509765625,6.260804176330566,-27.07183265686035,27.046186447143555
1702140112715063600,7.9660634765625,4.532179832458496,-25.511394500732422,26.057056427001953
1702140112732039700,7.983039794921875,3.3293778896331787,-24.026779174804688,26.215702056884766
1702140112749045800,8.000045654296875,3.337632656097412,-24.07388687133789,29.27569580078125
1702140112766033000,8.017032958984375,3.4462151527404785,-22.332073211669922,30.512004852294922
1702140112783028000,8.034028076171875,3.3271641731262207,-17.739505767822266,29.701141357421875
1702140112800019000,8.05101904296875,2.6559529304504395,-14.079264640808105,29.54261016845703
1702140112817010200,8.06801025390625,4.04556131362915,-11.393546104431152,30.321754455566406
1702140112834001700,8.085001708984375,3.5632517337799072,-8.671817779541016,30.62502670288086
1702140112850984200,8.101984130859375,-0.5904943943023682,-5.6214776039123535,28.660293579101562
1702140112867983400,8.1189833984375,-3.926114559173584,-2.461840867996216,23.18808364868164
1702140112884971300,8.13597119140625,-2.670762300491333,-0.3390730619430542,19.52206802368164
1702140112901968600,8.15296875,-0.71405029296875,0.823631763458252,19.550357818603516
1702140112918956500,8.16995654296875,-0.7171750664710999,2.2229363918304443,19.39291000366211
1702140112935945200,8.1869453125,-2.7536332607269287,3.441859006881714,17.704666137695312
1702140112952938000,8.20393798828125,-4.347484588623047,3.7566680908203125,14.816601753234863
1702140112969933800,8.220933837890625,-3.6506636142730713,3.4800474643707275,11.65887451171875
1702140112986918400,8.23791845703125,-2.2949411869049072,2.846728801727295,9.109047889709473
1702140113003914800,8.254914794921875,-1.3077218532562256,2.289832592010498,7.418632507324219
1702140113020903200,8.271903076171874,-1.4527686834335327,1.8065979480743408,6.213702201843262
1702140113037894400,8.288894287109375,-1.8415099382400513,1.542564868927002,5.053452491760254
1702140113054886400,8.305886474609375,-1.69100821018219,1.5574581623077393,3.913905143737793
1702140113071876600,8.322876708984374,-1.029970407485962,1.5801857709884644,3.4349098205566406
1702140113088867600,8.33986767578125,-0.7741978168487549,1.5492023229599,3.9051809310913086
1702140113105858600,8.356858642578125,-1.431330919265747,1.5195679664611816,3.95676326751709
1702140113122847000,8.373846923828125,-1.4305133819580078,1.0337260961532593,3.5652761459350586
1702140113139843600,8.390843505859374,-0.01320946216583252,0.2745676040649414,3.133204460144043
1702140113156830500,8.40783056640625,2.089747428894043,-0.5642211437225342,3.196237564086914
1702140113173820400,8.4248203125,4.034730911254883,-1.1591846942901611,4.043272972106934
1702140113190814200,8.441814208984376,5.511920928955078,-1.2468931674957275,4.898745536804199
1702140113207797800,8.4587978515625,5.7591352462768555,-1.7668503522872925,5.9294586181640625
1702140113224796200,8.475796142578124,5.21424674987793,-2.2186288833618164,6.093935966491699
1702140113241787400,8.492787353515626,4.214181900024414,-2.605158567428589,6.204504013061523
1702140113258778400,8.5097783203125,3.1207215785980225,-2.769059181213379,6.867161750793457
1702140113275769900,8.526769775390624,2.59554386138916,-2.8395755290985107,7.645698547363281
1702140113292750600,8.54375048828125,2.371487617492676,-3.274076461791992,8.054540634155273
1702140113309751800,8.560751708984375,2.995159387588501,-3.533339500427246,6.88902473449707
1702140113326741000,8.577740966796876,4.292266845703125,-3.4994516372680664,5.150113105773926
1702140113343735800,8.59473583984375,5.452386379241943,-3.5363998413085938,3.8299598693847656
1702140113360725000,8.61172509765625,6.104720115661621,-3.509368419647217,2.790590286254883
1702140113377706200,8.628706298828124,5.927175521850586,-3.5922064781188965,1.8254790306091309
1702140113394696400,8.645696533203125,5.018371105194092,-3.733071804046631,0.42753076553344727
1702140113411698400,8.662698486328125,4.124295234680176,-3.8835608959198,-1.4417786598205566
1702140113428689400,8.679689453125,3.8639421463012695,-4.120022773742676,-3.3341188430786133
1702140113445680600,8.6966806640625,4.7438063621521,-4.603423595428467,-4.785811901092529
1702140113462671600,8.713671630859375,5.984570503234863,-5.220126152038574,-5.880409240722656
1702140113479662600,8.73066259765625,7.3142595291137695,-5.7004594802856445,-6.669483184814453
1702140113496653800,8.74765380859375,7.7663702964782715,-5.99098014831543,-7.235012054443359
1702140113513645000,8.76464501953125,7.427479267120361,-6.199090003967285,-7.519931793212891
1702140113530636000,8.781635986328125,6.732983589172363,-6.39063024520874,-7.412858009338379
1702140113547627000,8.798626953125,6.108585834503174,-6.658975601196289,-7.265958786010742
1702140113564618000,8.815617919921875,5.699238300323486,-7.07309103012085,-6.984465599060059
1702140113581620000,8.832619873046875,5.502123832702637,-7.668632507324219,-6.340586185455322
1702140113598602000,8.84960205078125,5.40789794921875,-8.340734481811523,-5.632934093475342
1702140113615589600,8.866589599609375,5.276711463928223,-9.155008316040039,-5.104179382324219
1702140113632582400,8.88358251953125,5.003418922424316,-10.099061965942383,-4.658750057220459
1702140113649575000,8.900574951171874,4.362127780914307,-11.042818069458008,-4.213178634643555
1702140113666563300,8.917563232421875,3.057187557220459,-12.54954719543457,-3.6206717491149902
1702140113683544000,8.9345439453125,1.7188843488693237,-14.444068908691406,-2.55338191986084
1702140113700536000,8.9515361328125,1.3398451805114746,-16.031078338623047,-1.1498823165893555
1702140113717540400,8.968540283203126,1.0079187154769897,-17.724063873291016,0.36660003662109375
1702140113734529000,8.985529052734375,0.549991250038147,-19.01467514038086,2.1271820068359375
1702140113751507700,9.0025078125,-0.6064016819000244,-19.950048446655273,4.099921226501465
1702140113768501000,9.0195009765625,-2.8711135387420654,-20.03264045715332,7.780445098876953
1702140113785493500,9.036493408203125,-6.3274641036987305,-19.071529388427734,12.677427291870117
1702140113802487300,9.0534873046875,-9.658913612365723,-17.574316024780273,16.910831451416016
1702140113819473000,9.070472900390625,-11.405868530273438,-17.315832138061523,20.602947235107422
1702140113836465400,9.08746533203125,-10.81670093536377,-17.77354621887207,23.158552169799805
1702140113853458400,9.10445849609375,-9.174614906311035,-18.867202758789062,25.32803726196289
1702140113870450400,9.121450439453126,-6.551390647888184,-19.606861114501953,25.795013427734375
1702140113887440400,9.1384404296875,-3.115619659423828,-19.043960571289062,25.661094665527344
1702140113904442400,9.1554423828125,-1.0237922668457031,-17.30484962463379,25.748292922973633
1702140113921431000,9.17243115234375,-0.2680705785751343,-15.498332023620605,26.508785247802734
1702140113938422800,9.1894228515625,0.723202645778656,-14.611933708190918,28.2216796875
1702140113955412500,9.20641259765625,2.6705706119537354,-14.103041648864746,29.218664169311523
1702140113972404500,9.223404541015626,5.122134208679199,-14.271522521972656,29.429813385009766
1702140113989388800,9.240388916015625,8.2903470993042,-14.909170150756836,28.532421112060547
1702140114006389000,9.257388916015625,11.27273178100586,-15.999292373657227,26.768566131591797
1702140114023377400,9.27437744140625,13.297399520874023,-17.564245223999023,23.850780487060547
1702140114040369400,9.291369384765625,13.893033981323242,-19.643169403076172,20.102863311767578
1702140114057358800,9.30835888671875,14.108202934265137,-21.201204299926758,15.210697174072266
1702140114074350800,9.325350830078126,15.040783882141113,-21.0667667388916,11.240116119384766
1702140114091342000,9.342342041015625,15.148401260375977,-19.909709930419922,10.052321434020996
1702140114108322600,9.359322509765626,13.54642391204834,-18.866092681884766,10.937007904052734
1702140114125323500,9.376323486328126,9.962503433227539,-18.490209579467773,13.005453109741211
1702140114142315500,9.3933154296875,5.50471305847168,-18.803401947021484,15.137755393981934
1702140114159306200,9.41030615234375,1.8057539463043213,-19.107982635498047,15.357989311218262
1702140114176297500,9.42729736328125,0.9734221696853638,-17.012683868408203,11.92929744720459
1702140114193288400,9.444288330078125,2.9796977043151855,-13.645737648010254,9.153985977172852
1702140114210279700,9.46127978515625,5.659726142883301,-11.679346084594727,8.398455619812012
1702140114227267800,9.478267822265625,7.926008701324463,-10.072175025939941,7.340695381164551
1702140114244264200,9.49526416015625,8.208379745483398,-8.921313285827637,5.757654190063477
1702140114261252900,9.5122529296875,6.6972784996032715,-7.111767768859863,4.080682754516602
1702140114278243800,9.529243896484376,5.644547462463379,-6.33737850189209,4.14586067199707
1702140114295234800,9.54623486328125,6.204679489135742,-7.920364856719971,7.0207414627075195
1702140114312226300,9.563226318359375,7.918281078338623,-10.635736465454102,11.46710205078125
1702140114329210400,9.58021044921875,8.391691207885742,-13.064447402954102,15.149725914001465
1702140114346208300,9.597208251953125,5.9733452796936035,-14.740388870239258,17.627986907958984
1702140114363187200,9.614187255859376,0.5288886427879333,-14.649175643920898,18.928625106811523
1702140114380181800,9.631181640625,-5.385124683380127,-14.06277084350586,20.056583404541016
1702140114397181400,9.648181396484375,-6.8205084800720215,-14.333622932434082,20.51554298400879
1702140114414170000,9.665170166015624,-3.625386953353882,-15.100090026855469,19.173538208007812
1702140114431156000,9.682156005859374,0.7642439603805542,-15.295907974243164,16.55361557006836
1702140114448154600,9.699154541015625,2.7629382610321045,-12.951189041137695,13.420816421508789
1702140114465145000,9.71614501953125,-0.2764739990234375,-10.961423873901367,12.2413969039917
1702140114482144500,9.73314453125,-3.6397042274475098,-10.352945327758789,12.155742645263672
1702140114499125500,9.75012548828125,-4.103287696838379,-11.004969596862793,11.028764724731445
1702140114516121900,9.767121826171875,-2.1445212364196777,-11.378630638122559,8.651748657226562
1702140114533110300,9.7841103515625,-0.8795461654663086,-12.391545295715332,6.470870018005371
1702140114550101500,9.8011015625,-1.0961933135986328,-14.777015686035156,4.992480278015137
1702140114567092500,9.818092529296875,-1.0855703353881836,-18.070966720581055,4.368579864501953
1702140114584083500,9.83508349609375,3.202943801879883,-20.002338409423828,5.115146636962891
1702140114601072000,9.852072021484375,7.854977607727051,-19.064531326293945,8.338396072387695
1702140114618068500,9.869068359375,6.713637351989746,-17.19469451904297,10.925060272216797
1702140114635063000,9.88606298828125,2.381676435470581,-17.16280746459961,11.466458320617676
1702140114652048100,9.903048095703125,3.818593978881836,-18.6654109954834,11.66026496887207
1702140114669028400,9.9200283203125,12.113791465759277,-19.58159828186035,14.214559555053711
1702140114686030000,9.937030029296874,14.5612211227417,-20.232440948486328,17.772018432617188
1702140114703021000,9.95402099609375,12.038928985595703,-19.926105499267578,17.08915901184082
1702140114720012300,9.97101220703125,14.128681182861328,-18.94392204284668,18.155424118041992
1702140114737003500,9.98800341796875,18.665639877319336,-17.338603973388672,23.011817932128906
1702140114753994500,10.004994384765626,17.326772689819336,-15.271773338317871,25.95496368408203
1702140114770976300,10.021976318359375,11.712120056152344,-13.708675384521484,27.18259048461914
1702140114787975400,10.038975341796874,9.41686725616455,-13.52851676940918,28.775529861450195
1702140114804965600,10.055965576171875,11.611777305603027,-14.695198059082031,32.706363677978516
1702140114821960700,10.072960693359375,11.854015350341797,-15.253281593322754,36.168704986572266
1702140114838950000,10.089949951171874,11.005571365356445,-16.338354110717773,39.13325881958008
1702140114855940900,10.10694091796875,12.930635452270508,-17.087182998657227,39.961463928222656
1702140114872944400,10.1239443359375,15.170784950256348,-18.294567108154297,39.29317855834961
1702140114889915400,10.140915283203125,15.501118659973145,-20.527029037475586,39.5476188659668
1702140114906901000,10.15790087890625,15.873616218566895,-21.981884002685547,39.23270034790039
1702140114923905000,10.174905029296875,17.472782135009766,-22.062698364257812,37.611534118652344
1702140114940899300,10.1918994140625,18.27659034729004,-22.53219223022461,35.79740905761719
1702140114957887500,10.208887451171876,18.178787231445312,-24.146148681640625,33.746952056884766
1702140114974878700,10.225878662109375,17.157176971435547,-26.435306549072266,31.010509490966797
1702140114991869700,10.24286962890625,15.342763900756836,-29.367036819458008,27.20665168762207
1702140115008858400,10.2598583984375,14.82972240447998,-32.3198356628418,21.917869567871094
1702140115025854700,10.276854736328126,15.606462478637695,-32.25689697265625,15.834880828857422
1702140115042843000,10.2938427734375,14.21558666229248,-28.567869186401367,10.480178833007812
1702140115059834000,10.310834228515626,10.684646606445312,-24.32244110107422,6.953653335571289
1702140115076825000,10.3278251953125,7.300357818603516,-22.031726837158203,7.122903823852539
1702140115093805000,10.34480517578125,4.087689399719238,-20.917030334472656,8.417021751403809
1702140115110807300,10.361807373046876,1.678812026977539,-20.418598175048828,7.3018341064453125
1702140115127798300,10.37879833984375,1.4592018127441406,-20.024980545043945,4.746521949768066
1702140115144789800,10.395789794921875,3.134390354156494,-18.47595977783203,2.9178786277770996
1702140115161781000,10.412781005859374,5.122888088226318,-16.36159896850586,3.628754138946533
1702140115178771000,10.42977099609375,6.490524768829346,-14.243350982666016,5.9293036460876465
1702140115195760000,10.446760009765624,7.380406379699707,-13.085413932800293,8.69068431854248
1702140115212754200,10.463754150390624,8.907087326049805,-12.680154800415039,11.890941619873047
1702140115229740300,10.480740234375,10.529691696166992,-13.293428421020508,15.799729347229004
1702140115246733300,10.4977333984375,11.399901390075684,-14.476576805114746,20.077770233154297
1702140115263730000,10.51472998046875,9.591057777404785,-15.605730056762695,22.85860252380371
1702140115280707000,10.53170703125,6.297279357910156,-16.485197067260742,23.305755615234375
1702140115297706000,10.5487060546875,4.3681416511535645,-17.220617294311523,22.78020477294922
1702140115314697700,10.56569775390625,4.563269138336182,-18.045318603515625,22.12582015991211
1702140115331683600,10.58268359375,6.294188499450684,-19.325170516967773,22.29270362854004
1702140115348672000,10.599672119140624,8.136727333068848,-20.89809226989746,24.762557983398438
1702140115365667600,10.61666748046875,8.28792667388916,-21.510873794555664,26.395938873291016
1702140115382659300,10.633659423828124,7.547226905822754,-21.53765106201172,26.26447296142578
1702140115399649500,10.6506494140625,5.748664379119873,-22.02830696105957,25.253074645996094
1702140115416646400,10.667646484375,6.263164043426514,-24.33011245727539,24.700458526611328
1702140115433635300,10.68463525390625,9.596500396728516,-25.050500869750977,26.073162078857422
1702140115450618000,10.7016181640625,10.947364807128906,-25.722537994384766,29.813112258911133
1702140115467618600,10.71861865234375,10.96141242980957,-25.249095916748047,30.92709732055664
1702140115484605400,10.73560546875,10.47354507446289,-24.271867752075195,29.764469146728516
1702140115501606700,10.752606689453126,11.376371383666992,-23.866069793701172,27.338027954101562
1702140115518584600,10.76958447265625,14.535102844238281,-22.157840728759766,27.178707122802734
1702140115535584500,10.78658447265625,12.81619930267334,-21.981916427612305,32.33723068237305
1702140115552567300,10.8035673828125,8.037908554077148,-19.836416244506836,33.29121017456055
1702140115569564200,10.820564208984376,6.174734115600586,-15.254793167114258,28.919292449951172
1702140115586560500,10.837560546875,6.307305335998535,-13.549225807189941,28.86211585998535
1702140115603549000,10.854548828125,5.067020416259766,-13.296297073364258,28.326045989990234
1702140115620540200,10.8715400390625,4.196778297424316,-11.261229515075684,23.099695205688477
1702140115637528800,10.88852880859375,3.879873037338257,-9.680643081665039,22.850879669189453
1702140115654536000,10.905535888671874,2.744284152984619,-7.839278697967529,24.816944122314453
1702140115671513300,10.922513427734375,0.709552526473999,-5.915759086608887,25.329845428466797
1702140115688504600,10.939504638671876,-2.2404909133911133,-3.015141487121582,21.450775146484375
1702140115705495600,10.95649560546875,-3.189964532852173,-0.47821545600891113,18.411766052246094
1702140115722486500,10.973486572265625,-2.4154863357543945,0.18325459957122803,19.401525497436523
1702140115739477800,10.990477783203126,-1.586452841758728,1.4966740608215332,18.62335968017578
1702140115756471300,11.00747119140625,-1.7957522869110107,2.554229736328125,15.893088340759277
1702140115773457400,11.02445751953125,-1.1803947687149048,3.0818700790405273,12.57260513305664
1702140115790448400,11.041448486328125,0.36791175603866577,2.8127970695495605,11.24425220489502
1702140115807440000,11.05843994140625,1.0499427318572998,1.97954523563385,11.11503791809082
1702140115824435200,11.075435302734375,0.5259184837341309,1.8512051105499268,9.985397338867188
1702140115841414700,11.09241455078125,-0.4618161916732788,1.7600984573364258,8.242083549499512
1702140115858414000,11.1094140625,-0.7857214212417603,1.3754817247390747,6.347841262817383
1702140115875408000,11.126407958984375,-0.012238264083862305,0.4636869430541992,4.776189804077148
1702140115892387000,11.143386962890625,1.5117671489715576,-0.42014360427856445,3.6322860717773438
1702140115909388800,11.160388916015625,2.7275662422180176,-0.9939758777618408,3.2509870529174805
1702140115926379800,11.1773798828125,3.1023528575897217,-0.8968863487243652,3.107786178588867
1702140115943371000,11.19437109375,2.134091854095459,-0.7086625099182129,2.872025489807129
1702140115960362200,11.2113623046875,0.9039158821105957,-0.6866903305053711,2.746702194213867
1702140115977353000,11.22835302734375,0.39813804626464844,-0.8873534202575684,2.454960823059082
1702140115994344200,11.24534423828125,1.0601909160614014,-1.3934636116027832,2.4822206497192383
1702140116011332900,11.262332763671875,2.19470477104187,-1.561069369316101,2.429384231567383
1702140116028337700,11.279337646484375,2.683340549468994,-1.4506847858428955,2.4589195251464844
1702140116045308700,11.29630859375,2.5581588745117188,-1.4937691688537598,2.54046630859375
1702140116062308600,11.31330859375,2.4807329177856445,-1.7310454845428467,2.246479034423828
1702140116079289000,11.3302890625,2.867116689682007,-2.1527957916259766,1.6766977310180664
1702140116096290800,11.347290771484374,3.588432788848877,-2.5223336219787598,1.1159496307373047
1702140116113281800,11.36428173828125,4.013718605041504,-3.0799949169158936,1.010263442993164
1702140116130273000,11.38127294921875,3.847036838531494,-3.955217123031616,1.0274639129638672
1702140116147264000,11.398263916015624,3.3772895336151123,-4.631329536437988,0.4966392517089844
1702140116164255000,11.4152548828125,3.1601977348327637,-4.937931060791016,-0.2585268020629883
1702140116181246200,11.43224609375,3.120391845703125,-5.201984405517578,-0.7271318435668945
1702140116198234600,11.449234619140626,2.7333693504333496,-5.4407124519348145,-0.8018856048583984
1702140116215222300,11.46622216796875,1.8511552810668945,-5.705844879150391,-0.7190456390380859
1702140116232219600,11.4832197265625,0.8596839904785156,-5.734357833862305,-0.9163327217102051
1702140116249211100,11.500211181640625,0.5834259986877441,-5.7137932777404785,-1.0946202278137207
1702140116266191000,11.517191162109375,0.839820384979248,-5.670857906341553,-1.302332878112793
1702140116283190000,11.53418994140625,0.7895808219909668,-5.792429447174072,-1.4069600105285645
1702140116300179500,11.551179443359375,0.3362283706665039,-5.867799758911133,-1.5676898956298828
1702140116317174800,11.5681748046875,-0.18803930282592773,-5.907039642333984,-1.513838768005371
1702140116334166300,11.585166259765625,-0.5263576507568359,-5.595609664916992,-1.5852737426757812
1702140116351146800,11.602146728515624,-1.0766572952270508,-5.227534770965576,-1.5447399616241455
1702140116368148200,11.619148193359376,-1.6992945671081543,-4.930941104888916,-1.6449756622314453
1702140116385140200,11.63614013671875,-1.9734721183776855,-4.753257751464844,-1.885657787322998
1702140116402119000,11.653118896484376,-1.8082962036132812,-4.710491180419922,-2.0368456840515137
1702140116419118800,11.670118896484375,-1.0203380584716797,-4.361727714538574,0.1348741054534912
1702140116436104400,11.6871044921875,-0.4597344398498535,-3.8934171199798584,-0.15764474868774414
1702140116453103600,11.704103515625,-1.6856656074523926,-3.873415231704712,-0.9134786128997803
1702140116470092300,11.72109228515625,-0.9149580001831055,-4.040048599243164,-1.6995455026626587
1702140116487088400,11.73808837890625,-0.8344411849975586,-4.04628849029541,-1.9966864585876465
1702140116504077000,11.7550771484375,-0.10204219818115234,-3.861477851867676,-2.1624794006347656
1702140116521068300,11.772068359375,0.5856165885925293,-3.6059012413024902,-1.5587224960327148
1702140116538045700,11.789045654296874,1.1845641136169434,-3.257155418395996,-0.5592758655548096
1702140116555050200,11.80605029296875,1.1243300437927246,-2.8663249015808105,-0.22482562065124512
1702140116572041500,11.82304150390625,0.5560288429260254,-2.2977495193481445,-0.34150421619415283
1702140116589032700,11.84003271484375,0.13846588134765625,-2.033090591430664,-0.6346793174743652
1702140116606023400,11.8570234375,0.45210981369018555,-1.9203624725341797,-0.681708574295044
1702140116623013600,11.874013671875,1.1704249382019043,-1.926316261291504,-0.39790910482406616
1702140116640006700,11.891006591796875,1.4092679023742676,-1.9827666282653809,-0.47400712966918945
1702140116656992300,11.9079921875,1.198167324066162,-1.9090371131896973,-0.69983971118927
1702140116673992400,11.924992431640625,0.8943376541137695,-1.7637124061584473,-0.8346715569496155
1702140116690968300,11.94196826171875,0.6265454292297363,-1.678450584411621,-0.878119945526123
1702140116707970000,11.958969970703125,0.5776395797729492,-1.70338773727417,-0.9232071042060852
1702140116724961300,11.975961181640624,0.7287616729736328,-1.7620158195495605,-0.8297246098518372
1702140116741949400,11.992949462890625,1.0073356628417969,-1.7491559982299805,-0.7710230946540833
1702140116758945800,12.00994580078125,1.3317980766296387,-1.683577060699463,-0.7031711339950562
1702140116775939600,12.026939697265625,1.3979973793029785,-1.5440831184387207,-0.6475829482078552
1702140116792925700,12.04392578125,1.1334929466247559,-1.391371726989746,-0.5988622903823853
1702140116809916700,12.060916748046875,0.9199399948120117,-1.3106980323791504,-0.4399663209915161
1702140116826905600,12.077905517578126,1.0017790794372559,-1.3494911193847656,-0.17602038383483887
1702140116843901400,12.0949013671875,1.3041930198669434,-1.436798095703125,-0.153519868850708
1702140116860889900,12.111889892578125,1.3109321594238281,-1.5037236213684082,-0.226082444190979
1702140116877870600,12.12887060546875,1.0938029289245605,-1.5090084075927734,-0.3380953073501587
1702140116894869800,12.145869873046875,0.9334220886230469,-1.5391030311584473,-0.3047305941581726
1702140116911866000,12.1628662109375,1.1223421096801758,-1.579780101776123,-0.16656959056854248
1702140116928839700,12.179839599609375,1.516263484954834,-1.6048312187194824,-0.020647883415222168
1702140116945841400,12.19684130859375,1.7490506172180176,-1.54384183883667,0.013714432716369629
1702140116962840600,12.213840576171876,1.7113213539123535,-1.4846100807189941,-0.019650816917419434
1702140116979827500,12.230827392578124,1.3756422996520996,-1.4337282180786133,-0.02459251880645752
1702140116996818700,12.247818603515626,1.1480145454406738,-1.5065207481384277,-0.0478135347366333
1702140117013810000,12.264809814453125,1.1416330337524414,-1.578615665435791,-0.05137932300567627
1702140117030798300,12.28179833984375,1.2180066108703613,-1.628251075744629,-0.038635075092315674
1702140117047794700,12.298794677734374,1.1395883560180664,-1.6861567497253418,-0.029916703701019287
1702140117064783400,12.315783447265625,1.074131965637207,-1.7269554138183594,-0.0900808572769165
1702140117081763300,12.332763427734376,1.085646629333496,-1.7069249153137207,-0.06967753171920776
1702140117098762800,12.3497626953125,1.0741429328918457,-1.6391096115112305,-0.04049551486968994
1702140117115753700,12.366753662109375,1.4114327430725098,-1.6122088432312012,-0.014286279678344727
1702140117132747500,12.38374755859375,0.8416695594787598,-1.7623682022094727,0.10189509391784668
1702140117149728500,12.400728515625,0.5904932022094727,-1.499770164489746,0.16977214813232422
1702140117166717200,12.41771728515625,0.754974365234375,-1.4625177383422852,0.14655041694641113
