time,seconds_elapsed,z,y,x
1702137370388389400,0.112389404296875,-1.715223789215088,-1.6870851516723633,-0.5773780345916748
1702137370405374500,0.12937451171875,-1.5752825736999512,-1.972818374633789,-0.6575812101364136
1702137370422369500,0.14636962890625,-2.2113828659057617,-2.477612018585205,-0.5951205492019653
1702137370439361800,0.16336181640625,-2.4039926528930664,-1.4984126091003418,0.7425605058670044
1702137370456349400,0.180349365234375,-2.0235366821289062,-2.4931092262268066,-0.06819730997085571
1702137370473344800,0.1973447265625,-1.6534504890441895,-2.607635498046875,-0.08542686700820923
1702137370490329300,0.214329345703125,-1.7124900817871094,-2.675983428955078,-0.13950353860855103
1702137370507321900,0.23132177734375,-1.986750602722168,-2.9825448989868164,-0.5597991347312927
1702137370524321800,0.24832177734375,-3.078158378601074,-3.36362361907959,-0.9094157814979553
1702137370541309200,0.26530908203125,-5.411942481994629,-3.577786684036255,-0.9029372334480286
1702137370558303500,0.282303466796875,-6.4484052658081055,-4.292549133300781,-0.3635956048965454
1702137370575289900,0.299289794921875,-5.422677040100098,-5.322983264923096,-0.8827673196792603
1702137370592274700,0.316274658203125,-4.2555155754089355,-5.942710876464844,-1.573320746421814
1702137370609266400,0.333266357421875,-3.2568650245666504,-6.251890659332275,-1.3258562088012695
1702137370626265300,0.350265380859375,-4.106694221496582,-6.38182258605957,-1.09869384765625
1702137370643259100,0.367259033203125,-4.154806613922119,-8.293045997619629,-0.12941408157348633
1702137370660251600,0.384251708984375,-3.7262215614318848,-8.994462013244629,2.1114492416381836
1702137370677238800,0.40123876953125,-3.825871229171753,-9.141494750976562,4.38018798828125
1702137370694234600,0.418234619140625,-5.031268119812012,-9.04452133178711,5.904394626617432
1702137370711206100,0.4352060546875,-6.508156776428223,-8.880203247070312,7.680558681488037
1702137370728218000,0.452218017578125,-7.610597610473633,-10.192523956298828,10.568613052368164
1702137370745207600,0.46920751953125,-5.154180526733398,-10.921417236328125,13.149606704711914
1702137370762198300,0.4861982421875,-1.2390449047088623,-10.40075969696045,14.463440895080566
1702137370779193300,0.503193359375,1.3178420066833496,-8.884011268615723,16.451637268066406
1702137370796180500,0.520180419921875,-0.3565406799316406,-7.495702743530273,18.324575424194336
1702137370813174300,0.53717431640625,-4.738602638244629,-6.395677089691162,17.977046966552734
1702137370830167800,0.554167724609375,-7.022011756896973,-6.701878070831299,17.602588653564453
1702137370847151000,0.571151123046875,-5.023571491241455,-7.100674629211426,17.893415451049805
1702137370864152600,0.588152587890625,-0.49000978469848633,-7.027935981750488,18.746551513671875
1702137370881138000,0.605137939453125,3.5386152267456055,-5.660211086273193,19.171794891357422
1702137370898135000,0.622135009765625,3.1365420818328857,-4.047982215881348,19.550567626953125
1702137370915121000,0.639120849609375,0.06612706184387207,-3.7707366943359375,20.8518123626709
1702137370932095700,0.656095703125,-0.44962650537490845,-4.085809707641602,22.699312210083008
1702137370949109200,0.673109130859375,1.6319266557693481,-5.417752265930176,24.762866973876953
1702137370966095600,0.690095703125,5.708056926727295,-6.433506488800049,25.208555221557617
1702137370983088400,0.70708837890625,9.69945240020752,-8.219093322753906,23.235084533691406
1702137371000082700,0.724082763671875,12.619139671325684,-9.22481632232666,20.57138442993164
1702137371017069000,0.741069091796875,11.613229751586914,-9.416802406311035,20.23522186279297
1702137371034068200,0.758068115234375,9.19941520690918,-10.732921600341797,20.875385284423828
1702137371051046700,0.775046630859375,10.834200859069824,-11.993321418762207,19.957027435302734
1702137371068046300,0.79204638671875,13.630455017089844,-13.531490325927734,18.875530242919922
1702137371085037600,0.80903759765625,15.460131645202637,-15.027627944946289,16.628143310546875
1702137371102030000,0.826030029296875,15.374780654907227,-15.660979270935059,14.146551132202148
1702137371119018500,0.8430185546875,15.573448181152344,-15.121286392211914,13.476080894470215
1702137371136014300,0.860014404296875,15.56121826171875,-15.133001327514648,11.156248092651367
1702137371153003800,0.877003662109375,14.29777717590332,-14.389646530151367,11.976160049438477
1702137371169997800,0.893997802734375,14.89388656616211,-13.590035438537598,11.440652847290039
1702137371186979000,0.91097900390625,14.669187545776367,-12.869344711303711,9.696121215820312
1702137371203982600,0.927982666015625,14.418838500976562,-11.320627212524414,6.8678693771362305
1702137371220969500,0.944969482421875,14.62651252746582,-9.144489288330078,5.51894474029541
1702137371237964000,0.961964111328125,12.76306438446045,-7.016416549682617,5.46451473236084
1702137371254950400,0.978950439453125,9.293612480163574,-5.120408058166504,5.267964839935303
1702137371271945500,0.995945556640625,7.782438278198242,-4.781579971313477,5.337436199188232
1702137371288937500,1.0129375,8.240485191345215,-5.637219429016113,6.213381767272949
1702137371305929700,1.0299296875,9.500457763671875,-6.700622081756592,7.303060054779053
1702137371322919000,1.0469189453125,11.172904968261719,-7.998356342315674,8.4957914352417
1702137371339913000,1.063912841796875,10.419541358947754,-8.83818531036377,11.231480598449707
1702137371356899600,1.080899658203125,7.993819713592529,-11.165420532226562,14.84401798248291
1702137371373895200,1.097895263671875,3.9512710571289062,-10.855650901794434,16.822986602783203
1702137371390875600,1.114875732421875,1.370929479598999,-10.907891273498535,14.811288833618164
1702137371407876000,1.1318759765625,1.2099769115447998,-11.176834106445312,13.750207901000977
1702137371424870400,1.148870361328125,5.299917697906494,-11.528336524963379,12.335494995117188
1702137371441858000,1.165858154296875,9.130971908569336,-10.815272331237793,10.649468421936035
1702137371458852600,1.1828525390625,11.04427433013916,-9.662482261657715,10.250128746032715
1702137371475841300,1.19984130859375,8.607799530029297,-8.599226951599121,10.023004531860352
1702137371492834000,1.216833984375,4.912112236022949,-8.494112014770508,8.806678771972656
1702137371509828400,1.233828369140625,3.673560619354248,-8.894635200500488,7.479704856872559
1702137371526814700,1.250814697265625,4.562662601470947,-9.713549613952637,6.458962440490723
1702137371543810300,1.267810302734375,6.04429817199707,-11.75450611114502,6.1986403465271
1702137371560812800,1.284812744140625,8.81626033782959,-13.393686294555664,8.016292572021484
1702137371577793300,1.301793212890625,8.637735366821289,-13.530096054077148,10.932110786437988
1702137371594781700,1.31878173828125,5.78806209564209,-13.945282936096191,11.687070846557617
1702137371611775700,1.335775634765625,2.1210098266601562,-14.797106742858887,10.447640419006348
1702137371628765400,1.352765380859375,2.62762451171875,-16.607295989990234,8.347518920898438
1702137371645755000,1.3697548828125,9.379522323608398,-17.55109214782715,7.986247539520264
1702137371662760400,1.386760498046875,12.265995979309082,-17.853193283081055,12.807849884033203
1702137371679734000,1.403734130859375,8.60903549194336,-17.81639289855957,18.061199188232422
1702137371696730600,1.420730712890625,1.460824966430664,-18.316858291625977,18.35095977783203
1702137371713726500,1.4377265625,1.4016103744506836,-19.79191780090332,17.771080017089844
1702137371730719700,1.4547197265625,7.569756507873535,-20.8116455078125,24.002363204956055
1702137371747707600,1.471707763671875,8.509321212768555,-18.90532875061035,29.339887619018555
1702137371764698400,1.488698486328125,3.092599630355835,-16.762407302856445,31.12717056274414
1702137371781691000,1.50569091796875,-0.2638261318206787,-16.50249481201172,32.89710235595703
1702137371798683100,1.52268310546875,-1.473320484161377,-17.04549789428711,36.40926742553711
1702137371815671300,1.53967138671875,-0.3190324306488037,-18.754629135131836,40.64212417602539
1702137371832654000,1.556654052734375,2.9799373149871826,-20.99138832092285,42.02725601196289
1702137371849662200,1.573662109375,6.411886215209961,-23.410240173339844,42.658302307128906
1702137371866641400,1.590641357421875,9.360772132873535,-24.365251541137695,42.99533462524414
1702137371883640800,1.607640869140625,12.282378196716309,-25.085758209228516,43.55183410644531
1702137371900630800,1.624630859375,15.344915390014648,-26.04942512512207,42.935997009277344
1702137371917624800,1.641624755859375,18.12777328491211,-27.12140464782715,41.468849182128906
1702137371934613000,1.658613037109375,19.112226486206055,-27.434598922729492,37.38497543334961
1702137371951606500,1.6756064453125,19.02312660217285,-28.232059478759766,32.317848205566406
1702137371968595700,1.692595703125,19.51683235168457,-29.512699127197266,27.50182342529297
1702137371985582600,1.70958251953125,19.51436996459961,-29.216442108154297,23.74359130859375
1702137372002579500,1.726579345703125,16.407861709594727,-28.070571899414062,20.65107536315918
1702137372019573800,1.74357373046875,11.507962226867676,-26.642452239990234,17.352325439453125
1702137372036553500,1.760553466796875,8.978721618652344,-26.062053680419922,13.809542655944824
1702137372053556200,1.77755615234375,7.002168655395508,-25.622177124023438,11.670086860656738
1702137372070545700,1.794545654296875,5.707967758178711,-22.894241333007812,10.672806739807129
1702137372087539700,1.811539794921875,4.164481163024902,-21.07632064819336,11.146675109863281
1702137372104526300,1.8285263671875,1.979395866394043,-19.189376831054688,11.221189498901367
1702137372121521400,1.845521484375,-0.9915351867675781,-17.977235794067383,10.719440460205078
1702137372138513400,1.862513427734375,-3.288778781890869,-16.464590072631836,8.97773551940918
1702137372155503900,1.87950390625,-4.737987518310547,-15.701032638549805,7.52858829498291
1702137372172490200,1.896490234375,-3.0397794246673584,-15.475482940673828,6.450185298919678
1702137372189489200,1.9134892578125,-0.9433655738830566,-15.56538200378418,6.317992210388184
1702137372206466300,1.93046630859375,0.33814191818237305,-15.554100036621094,6.134642601013184
1702137372223472400,1.947472412109375,1.8653407096862793,-14.45445442199707,5.256126403808594
1702137372240459300,1.964459228515625,3.1963956356048584,-14.208970069885254,6.402046203613281
1702137372257442000,1.981442138671875,4.450942039489746,-15.243804931640625,8.89769458770752
1702137372274442800,1.99844287109375,5.8752264976501465,-16.691349029541016,12.141409873962402
1702137372291429000,2.01542919921875,7.039119720458984,-18.46612548828125,15.877422332763672
1702137372308426000,2.032426025390625,7.726800918579102,-19.312150955200195,19.39501953125
1702137372325417700,2.049417724609375,6.299607276916504,-20.159992218017578,20.777429580688477
1702137372342413000,2.0664130859375,4.547230243682861,-21.483163833618164,19.53611946105957
1702137372359402200,2.08340234375,3.8554444313049316,-23.40265655517578,17.809961318969727
1702137372376393200,2.100393310546875,4.173395156860352,-25.621774673461914,17.67236328125
1702137372393386500,2.117386474609375,4.900118350982666,-28.966203689575195,23.063026428222656
1702137372410374400,2.13437451171875,5.646288871765137,-30.0537109375,25.337764739990234
1702137372427361800,2.15136181640625,5.910634517669678,-30.06781005859375,23.76563835144043
1702137372444360000,2.16835986328125,6.228570461273193,-30.67593002319336,23.186372756958008
1702137372461351700,2.1853515625,7.0799479484558105,-33.45846176147461,24.398719787597656
1702137372478333400,2.20233349609375,8.40785026550293,-35.07971954345703,30.33529281616211
1702137372495332400,2.219332275390625,9.748337745666504,-30.693967819213867,30.686540603637695
1702137372512328000,2.236327880859375,7.845731735229492,-27.277572631835938,30.446285247802734
1702137372529319400,2.2533193359375,4.77275276184082,-26.509241104125977,31.384239196777344
1702137372546306000,2.27030615234375,3.6782333850860596,-23.7979736328125,30.204132080078125
1702137372563302000,2.287302001953125,4.764978408813477,-19.922130584716797,29.93100357055664
1702137372580291300,2.304291259765625,4.835600852966309,-17.676420211791992,31.477235794067383
1702137372597282300,2.3212822265625,3.3873183727264404,-14.96848201751709,30.791900634765625
1702137372614275000,2.338275146484375,2.0388152599334717,-12.837106704711914,27.202510833740234
1702137372631252000,2.355251953125,3.6444835662841797,-11.059873580932617,25.015338897705078
1702137372648259000,2.372259033203125,6.173215866088867,-8.649056434631348,23.896493911743164
1702137372665251300,2.389251220703125,6.156809329986572,-6.8496479988098145,26.303442001342773
1702137372682238700,2.40623876953125,4.650632858276367,-4.204987525939941,25.73353385925293
1702137372699236600,2.423236572265625,3.0700151920318604,-0.24160552024841309,21.99542236328125
1702137372716221200,2.44022119140625,1.6936213970184326,1.8422596454620361,21.29901123046875
1702137372733216500,2.457216552734375,1.602010726928711,3.4358346462249756,19.457717895507812
1702137372750207500,2.47420751953125,1.5687098503112793,4.482131481170654,17.280811309814453
1702137372767196400,2.491196533203125,1.4476597309112549,4.10357666015625,14.80046558380127
1702137372784190500,2.5081904296875,2.224006175994873,3.377345561981201,13.448601722717285
1702137372801182700,2.5251826171875,3.5411829948425293,3.2576904296875,11.540026664733887
1702137372818182000,2.542181884765625,4.065217971801758,3.1782238483428955,9.483139038085938
1702137372835160800,2.559160888671875,3.190884590148926,2.915083408355713,7.689044952392578
1702137372852140500,2.576140625,2.0907840728759766,2.7151827812194824,6.268110275268555
1702137372869150000,2.59314990234375,1.0358902215957642,2.265258550643921,4.989981651306152
1702137372886136000,2.610135986328125,0.2705271244049072,2.11283016204834,4.266951560974121
1702137372903113000,2.627113037109375,-0.1087878942489624,1.1868360042572021,4.875270843505859
1702137372920121000,2.64412109375,-0.07587683200836182,0.7155466079711914,5.140566825866699
1702137372937111800,2.66111181640625,0.2175501585006714,0.5497143268585205,4.892240524291992
1702137372954105600,2.678105712890625,-0.11148607730865479,0.7702529430389404,4.943865776062012
1702137372971097600,2.69509765625,-1.1124807596206665,0.27182745933532715,5.819994926452637
1702137372988089900,2.71208984375,-1.0512545108795166,-1.0685570240020752,7.000511169433594
1702137373005078000,2.729078125,0.7284185290336609,-2.1497316360473633,7.492596626281738
1702137373022070800,2.74607080078125,3.057586431503296,-2.9721882343292236,7.330304145812988
1702137373039065000,2.763065185546875,4.761585712432861,-3.472278118133545,6.9443511962890625
1702137373056051500,2.780051513671875,5.255273818969727,-3.676194667816162,5.719270706176758
1702137373073046800,2.797046875,4.3051910400390625,-3.7500782012939453,4.81268310546875
1702137373090028000,2.814028076171875,3.5645408630371094,-3.4229671955108643,5.4149169921875
1702137373107025400,2.831025390625,1.9901224374771118,-3.508302688598633,5.996400833129883
1702137373124022500,2.8480224609375,0.6888858079910278,-4.154818534851074,5.1669416427612305
1702137373141012700,2.8650126953125,0.9240967035293579,-4.2993879318237305,2.312284469604492
1702137373158005000,2.8820048828125,1.8321642875671387,-4.224260330200195,-0.6383819580078125
1702137373174993200,2.8989931640625,2.651643753051758,-4.289083957672119,-3.0746355056762695
1702137373191986200,2.915986083984375,2.9186618328094482,-4.62254524230957,-4.583590507507324
1702137373208987000,2.93298681640625,2.2187814712524414,-5.706298351287842,-5.170722484588623
1702137373225966600,2.949966552734375,1.7359076738357544,-6.5162672996521,-5.651211738586426
1702137373242951400,2.966951416015625,1.4435911178588867,-7.087714672088623,-6.5593976974487305
1702137373259954200,2.9839541015625,1.4230868816375732,-7.3932952880859375,-7.598312854766846
1702137373276941000,3.000941162109375,1.6133278608322144,-8.024313926696777,-7.919005393981934
1702137373293938000,3.01793798828125,1.5823818445205688,-8.725543022155762,-7.863277435302734
1702137373310928100,3.03492822265625,1.5344018936157227,-9.31070613861084,-7.746006965637207
1702137373327917000,3.0519169921875,1.0304464101791382,-9.924957275390625,-7.407100677490234
1702137373344911000,3.0689111328125,-0.06449007987976074,-10.815046310424805,-6.920114040374756
1702137373361901600,3.085901611328125,-1.3409794569015503,-12.011131286621094,-6.280337810516357
1702137373378896000,3.102895751953125,-2.8716988563537598,-13.357707977294922,-5.9941511154174805
1702137373395882000,3.119882080078125,-4.269700527191162,-15.222027778625488,-5.755532741546631
1702137373412877000,3.136876953125,-4.877565383911133,-16.419992446899414,-5.885275363922119
1702137373429869000,3.153869140625,-5.429466724395752,-17.721302032470703,-4.9969072341918945
1702137373446861300,3.170861328125,-6.012933731079102,-19.747337341308594,-0.7496733665466309
1702137373463851800,3.187851806640625,-5.975668907165527,-21.308868408203125,6.163393497467041
1702137373480844300,3.20484423828125,-5.0250349044799805,-20.649005889892578,12.189760208129883
1702137373497832700,3.221832763671875,-4.920619964599609,-18.078889846801758,15.619029998779297
1702137373514829000,3.2388291015625,-6.453132629394531,-15.95252799987793,18.941631317138672
1702137373531805700,3.2558056640625,-8.378318786621094,-14.52773380279541,24.13900375366211
1702137373548798500,3.272798583984375,-10.36805534362793,-14.311599731445312,29.632871627807617
1702137373565800700,3.28980078125,-11.127077102661133,-14.281810760498047,32.079551696777344
1702137373582795800,3.306795654296875,-8.570924758911133,-14.877840042114258,33.074554443359375
1702137373599773400,3.3237734375,-2.508348226547241,-14.534893989562988,33.59602737426758
1702137373616776200,3.340776123046875,2.594515085220337,-13.249601364135742,34.35243606567383
1702137373633767000,3.357766845703125,4.847296714782715,-10.640518188476562,34.595035552978516
1702137373650759400,3.374759521484375,4.875899314880371,-8.430073738098145,34.607933044433594
1702137373667749600,3.39174951171875,4.3372297286987305,-6.392648220062256,34.68257141113281
1702137373684742400,3.408742431640625,4.274106979370117,-5.737504005432129,35.56095886230469
1702137373701723100,3.42572314453125,7.528581619262695,-6.723356246948242,37.21735382080078
1702137373718725600,3.4427255859375,10.572639465332031,-8.431045532226562,37.64739990234375
1702137373735715800,3.4597158203125,11.34692096710205,-11.239060401916504,35.70750427246094
1702137373752707000,3.47670703125,12.661764144897461,-13.38804817199707,32.0651969909668
1702137373769699000,3.493698974609375,13.625373840332031,-16.346538543701172,29.83057403564453
1702137373786689300,3.510689208984375,13.852045059204102,-18.801555633544922,27.962574005126953
1702137373803684600,3.5276845703125,13.96617603302002,-20.091442108154297,26.034015655517578
1702137373820674600,3.544674560546875,13.029366493225098,-20.284835815429688,24.406896591186523
1702137373837652700,3.56165283203125,12.168807029724121,-19.977123260498047,22.69765853881836
1702137373854647600,3.5786474609375,13.24667739868164,-18.64211082458496,18.926687240600586
1702137373871637200,3.59563720703125,16.182689666748047,-17.082521438598633,17.107330322265625
1702137373888630800,3.612630859375,16.957765579223633,-14.999833106994629,15.898628234863281
1702137373905626600,3.629626708984375,14.235475540161133,-13.370353698730469,14.785069465637207
1702137373922617000,3.6466171875,8.542699813842773,-11.695698738098145,13.799583435058594
1702137373939608600,3.663608642578125,4.462894916534424,-10.636795997619629,12.126157760620117
1702137373956596700,3.6805966796875,3.3270912170410156,-10.888949394226074,11.936980247497559
1702137373973589000,3.697589111328125,5.299258232116699,-12.341317176818848,13.283775329589844
1702137373990581200,3.714581298828125,6.7327880859375,-13.907129287719727,15.80540943145752
1702137374007581700,3.731581787109375,6.83046293258667,-14.753440856933594,19.345321655273438
1702137374024573000,3.748572998046875,3.0293917655944824,-13.869282722473145,22.671241760253906
1702137374041563100,3.765563232421875,-3.1406588554382324,-14.043850898742676,24.220657348632812
1702137374058546000,3.7825458984375,-7.9823479652404785,-13.60861587524414,23.143657684326172
1702137374075546400,3.79954638671875,-8.311187744140625,-13.557779312133789,20.451534271240234
1702137374092539000,3.816538818359375,-4.567850589752197,-13.100651741027832,17.559402465820312
1702137374109529300,3.833529296875,-0.40846729278564453,-12.026137351989746,16.039939880371094
1702137374126522000,3.850522216796875,1.4203760623931885,-10.823043823242188,16.212430953979492
1702137374143512600,3.8675126953125,1.7793946266174316,-9.782950401306152,16.290599822998047
1702137374160505300,3.88450537109375,1.3831324577331543,-8.732645034790039,15.69394302368164
1702137374177493200,3.9014931640625,-0.11058378219604492,-8.848896026611328,14.432523727416992
1702137374194491000,3.918490966796875,0.2773928642272949,-10.504352569580078,12.80038833618164
1702137374211474700,3.935474609375,2.5156731605529785,-13.552263259887695,12.283166885375977
1702137374228471000,3.952470947265625,5.039999961853027,-16.50570297241211,11.292763710021973
1702137374245465000,3.969465087890625,7.900416851043701,-17.84894561767578,14.013443946838379
1702137374262454300,3.986454345703125,8.174782752990723,-16.523544311523438,18.53204345703125
1702137374279444700,4.00344482421875,2.41409969329834,-17.259811401367188,19.431900024414062
1702137374296437500,4.0204375,-0.21001958847045898,-20.220211029052734,14.951506614685059
1702137374313428000,4.037427978515625,7.324514389038086,-20.766437530517578,13.268180847167969
1702137374330420500,4.05442041015625,11.506281852722168,-21.614727020263672,20.50105857849121
1702137374347406800,4.07140673828125,9.091692924499512,-20.152935028076172,25.923744201660156
1702137374364404500,4.088404541015625,3.3482396602630615,-19.384872436523438,26.34347152709961
1702137374381396200,4.105396240234375,2.7290287017822266,-20.769733428955078,29.885713577270508
1702137374398382000,4.122382080078125,6.114997863769531,-18.978410720825195,36.213558197021484
1702137374415374600,4.13937451171875,4.890759468078613,-16.104692459106445,42.933509826660156
1702137374432372000,4.1563720703125,-2.199904203414917,-13.78238582611084,45.63688659667969
1702137374449360100,4.173360107421875,-7.238421440124512,-17.900217056274414,48.59585189819336
1702137374466352600,4.1903525390625,0.21329808235168457,-24.35438346862793,50.2578239440918
1702137374483355100,4.207355224609375,11.08019733428955,-27.979028701782227,52.95279312133789
1702137374500333000,4.2243330078125,16.851778030395508,-26.870771408081055,55.57576370239258
1702137374517328400,4.241328369140625,15.18895435333252,-24.618844985961914,55.103782653808594
1702137374534318600,4.258318603515625,13.019699096679688,-26.412839889526367,55.29310989379883
1702137374551298600,4.275298583984375,14.018105506896973,-28.556350708007812,53.113834381103516
1702137374568302800,4.292302734375,16.64286994934082,-31.846694946289062,49.420562744140625
1702137374585291000,4.309291015625,19.766157150268555,-35.687503814697266,42.77544021606445
1702137374602284500,4.326284423828125,19.94818115234375,-37.58985900878906,35.11725616455078
1702137374619264800,4.3432646484375,17.22362518310547,-39.37706756591797,28.636188507080078
1702137374636255200,4.360255126953125,13.093184471130371,-39.42711639404297,21.169479370117188
1702137374653256200,4.377256103515625,9.503894805908203,-36.867523193359375,12.205379486083984
1702137374670255400,4.39425537109375,8.720422744750977,-31.36127281188965,6.577570915222168
1702137374687241200,4.4112412109375,8.802385330200195,-24.73573112487793,5.739121437072754
1702137374704234000,4.42823388671875,6.370963096618652,-20.090824127197266,8.954237937927246
1702137374721227500,4.4452275390625,2.4342880249023438,-17.298574447631836,10.480949401855469
1702137374738213400,4.46221337890625,0.4632596969604492,-16.388883590698242,8.393260955810547
1702137374755207200,4.479207275390625,1.9016389846801758,-15.017290115356445,6.061209678649902
1702137374772189400,4.496189453125,3.8900365829467773,-13.230403900146484,5.789793014526367
1702137374789183500,4.51318359375,4.617056369781494,-12.024046897888184,7.481264591217041
1702137374806183000,4.530182861328125,4.506406784057617,-11.202640533447266,10.228785514831543
1702137374823173600,4.547173583984375,3.435391902923584,-10.82422924041748,12.60680103302002
1702137374840163800,4.564163818359375,2.939490795135498,-12.847748756408691,15.393478393554688
1702137374857158700,4.58115869140625,3.6224474906921387,-15.30008602142334,16.4512882232666
1702137374874146600,4.598146484375,6.667741775512695,-14.925372123718262,14.691902160644531
1702137374891128600,4.615128662109375,8.295022010803223,-14.299989700317383,14.253973007202148
1702137374908135000,4.632135009765625,6.253056049346924,-15.044519424438477,16.20956039428711
1702137374925122300,4.649122314453125,2.8945841789245605,-16.661888122558594,19.941917419433594
1702137374942107000,4.66610693359375,1.3008512258529663,-18.330097198486328,21.91422462463379
1702137374959100700,4.6831005859375,1.7248508930206299,-20.418533325195312,21.590435028076172
1702137374976089600,4.700089599609375,4.460771083831787,-22.72443389892578,21.94538688659668
1702137374993078500,4.71707861328125,7.832632541656494,-24.168594360351562,22.00972557067871
1702137375010070500,4.734070556640625,9.354352951049805,-25.834636688232422,22.462871551513672
1702137375027061200,4.751061279296875,8.637715339660645,-27.271333694458008,23.844358444213867
1702137375044049200,4.768049072265625,5.397525310516357,-29.618526458740234,26.939449310302734
1702137375061048300,4.78504833984375,4.393810749053955,-32.47469711303711,26.760393142700195
1702137375078040600,4.80204052734375,8.342982292175293,-32.28279495239258,27.65328598022461
1702137375095028000,4.819028076171875,11.150863647460938,-34.30662155151367,32.72975158691406
1702137375112031000,4.836031005859375,14.15684700012207,-33.44184875488281,35.94960021972656
1702137375129011000,4.853010986328125,14.430082321166992,-30.673221588134766,37.7252311706543
1702137375146005200,4.870005126953125,10.772653579711914,-26.58829116821289,39.074039459228516
1702137375163004000,4.88700390625,7.068759918212891,-22.05870246887207,36.24211502075195
1702137375179996400,4.903996337890625,5.49058723449707,-19.20961570739746,33.898983001708984
1702137375196987000,4.92098681640625,7.304225921630859,-17.686782836914062,32.788368225097656
1702137375213979600,4.937979736328125,7.850037574768066,-15.255237579345703,32.659828186035156
1702137375230970000,4.95497021484375,6.3961687088012695,-11.217315673828125,31.76235580444336
1702137375247959800,4.971959716796875,4.3822102546691895,-9.140718460083008,31.635364532470703
1702137375264955400,4.988955322265625,2.9412121772766113,-7.258750915527344,30.89592742919922
1702137375281948000,5.005947998046875,3.51835298538208,-4.181280612945557,26.90035629272461
1702137375298934000,5.02293408203125,5.305600166320801,-2.309340476989746,23.23639678955078
1702137375315928300,5.03992822265625,8.645936965942383,0.14664673805236816,21.50426483154297
1702137375332919300,5.056919189453125,8.391623497009277,2.731773853302002,22.524883270263672
1702137375349911800,5.073911865234375,3.2368602752685547,3.9695234298706055,23.446027755737305
1702137375366901500,5.090901611328125,-1.4338877201080322,4.262091159820557,20.30792808532715
1702137375383894800,5.107894775390625,-1.6789939403533936,4.073639869689941,15.287161827087402
1702137375400885200,5.12488525390625,2.0283164978027344,3.4249775409698486,11.72388744354248
1702137375417867000,5.141866943359375,5.9474778175354,3.0302751064300537,9.603642463684082
1702137375434868200,5.1588681640625,7.164124488830566,2.6491665840148926,8.187344551086426
1702137375451860700,5.17586083984375,4.988975524902344,1.7457599639892578,7.506142616271973
1702137375468851200,5.192851318359375,2.1819169521331787,1.372307538986206,6.643528938293457
1702137375485833000,5.2098330078125,-0.5475260019302368,0.7704498767852783,5.7588043212890625
1702137375502834400,5.22683447265625,-2.4997966289520264,0.6689457893371582,4.455942153930664
1702137375519827000,5.243826904296875,-3.0656845569610596,0.30196046829223633,4.218086242675781
1702137375536817400,5.2608173828125,-1.8401751518249512,0.06975412368774414,4.2453813552856445
1702137375553810000,5.277809814453125,0.18328428268432617,-0.14038586616516113,3.70892333984375
1702137375570800600,5.294800537109375,0.18969690799713135,-0.0073888301849365234,2.8361873626708984
1702137375587793000,5.31179296875,-1.8327093124389648,-0.8023700714111328,2.254368782043457
1702137375604783400,5.328783447265625,-2.8299965858459473,-1.3487426042556763,1.6674003601074219
1702137375621776100,5.345776123046875,-2.356919288635254,-1.4652231931686401,0.8794803619384766
1702137375638766300,5.362766357421875,-0.28987714648246765,-1.2579889297485352,1.1242713928222656
1702137375655758800,5.3797587890625,1.8463304042816162,-0.9976435899734497,2.8243026733398438
1702137375672749600,5.39674951171875,3.3869898319244385,-1.1167651414871216,5.285971641540527
1702137375689739000,5.413739013671875,3.6715972423553467,-0.5568758845329285,5.6093645095825195
1702137375706735900,5.43073583984375,3.375274896621704,0.02649056911468506,4.730395317077637
1702137375723724000,5.44772412109375,3.178769588470459,-0.09122812747955322,5.972816467285156
1702137375740715500,5.464715576171875,2.8740031719207764,-0.826920211315155,7.260580062866211
1702137375757708000,5.4817080078125,3.0500998497009277,-1.5058255195617676,7.423343658447266
1702137375774687000,5.49868701171875,3.902463912963867,-2.0017590522766113,6.971770286560059
1702137375791691000,5.51569091796875,5.015729904174805,-2.1890108585357666,4.961565971374512
1702137375808681700,5.532681640625,5.904592514038086,-2.007549524307251,4.994476318359375
1702137375825674200,5.54967431640625,5.813962936401367,-2.1855883598327637,6.07017183303833
1702137375842665000,5.5666650390625,4.354259967803955,-2.3434910774230957,6.372548580169678
1702137375859651600,5.583651611328125,2.4063525199890137,-2.2568087577819824,5.479916572570801
1702137375876648000,5.60064794921875,1.5022294521331787,-3.214339017868042,3.2721028327941895
1702137375893640200,5.61764013671875,3.1509816646575928,-3.462294101715088,-0.6368041038513184
1702137375910630700,5.634630615234375,3.4843502044677734,-3.7905044555664062,-3.4927473068237305
1702137375927614500,5.651614501953125,3.1020185947418213,-4.254654407501221,-4.20766544342041
1702137375944614000,5.66861376953125,1.190847396850586,-4.145496368408203,-4.471507549285889
1702137375961606400,5.6856064453125,-0.572824239730835,-5.3298797607421875,-3.8716344833374023
1702137375978595800,5.702595947265625,-0.40254807472229004,-6.490314483642578,-2.8014025688171387
1702137375995586800,5.7195869140625,0.21279406547546387,-7.229017734527588,-2.699697256088257
1702137376012582700,5.736582763671875,0.5362576246261597,-7.863212585449219,-3.686291217803955
1702137376029560300,5.753560302734375,0.6330235004425049,-8.557360649108887,-4.884661674499512
1702137376046562300,5.770562255859375,0.7437851428985596,-9.10923957824707,-5.948935508728027
1702137376063556000,5.78755615234375,0.8491901755332947,-9.522536277770996,-6.577112197875977
1702137376080546000,5.804546142578125,0.26109790802001953,-10.219758987426758,-6.363314628601074
1702137376097538600,5.82153857421875,-0.5822821855545044,-11.210630416870117,-5.622775077819824
1702137376114529300,5.838529296875,-1.3697203397750854,-12.155875205993652,-5.0629119873046875
1702137376131521500,5.855521484375,-1.5916035175323486,-13.069990158081055,-5.441059112548828
1702137376148505900,5.872505859375,-0.018625259399414062,-14.334872245788574,-6.7331671714782715
1702137376165504500,5.88950439453125,-2.9440183639526367,-15.758703231811523,-6.384373664855957
1702137376182480600,5.906480712890625,-5.5792083740234375,-16.87328338623047,-3.941364049911499
1702137376199490000,5.923489990234375,-5.304498672485352,-18.09604835510254,-0.5797305107116699
1702137376216478200,5.940478271484375,-3.5456502437591553,-19.658824920654297,2.9026546478271484
1702137376233470700,5.957470703125,-1.3905783891677856,-20.154476165771484,7.1640520095825195
1702137376250461400,5.97446142578125,-2.285029172897339,-19.9489803314209,8.964895248413086
1702137376267454000,5.991453857421875,-4.20827579498291,-19.385175704956055,11.37173080444336
1702137376284444200,6.008444091796875,-5.259134769439697,-19.029008865356445,18.933494567871094
1702137376301437000,6.02543701171875,-5.832033157348633,-16.61209487915039,23.584205627441406
1702137376318427400,6.042427490234375,-6.733756065368652,-14.06307315826416,25.43841552734375
1702137376335417000,6.0594169921875,-8.309146881103516,-12.52975845336914,26.73271942138672
1702137376352413000,6.076412841796875,-9.305418014526367,-12.138901710510254,29.209617614746094
1702137376369402600,6.093402587890625,-9.571776390075684,-12.710941314697266,33.27556610107422
1702137376386390000,6.11039013671875,-8.270004272460938,-12.459757804870605,35.75300598144531
1702137376403389000,6.127388916015625,-4.588361740112305,-11.058143615722656,35.471961975097656
1702137376420365800,6.14436572265625,0.23915314674377441,-9.750296592712402,35.99421310424805
1702137376437368600,6.16136865234375,3.2679200172424316,-8.736259460449219,38.48704528808594
1702137376454359300,6.178359375,4.2016377449035645,-8.37035083770752,41.248077392578125
1702137376471341600,6.195341552734375,5.656033992767334,-8.995406150817871,41.850868225097656
1702137376488342500,6.212342529296875,8.207695007324219,-10.683218955993652,38.65848922729492
1702137376505334800,6.229334716796875,12.058431625366211,-13.224319458007812,34.84809875488281
1702137376522325800,6.24632568359375,15.29214859008789,-15.215385437011719,31.993383407592773
1702137376539318000,6.263318115234375,15.4155855178833,-16.96404266357422,30.27387237548828
1702137376556299000,6.280299072265625,14.854757308959961,-18.919586181640625,27.41067123413086
1702137376573301200,6.29730126953125,15.757411003112793,-20.56743621826172,23.579265594482422
1702137376590291700,6.314291748046875,17.57913589477539,-20.88881492614746,19.50094223022461
1702137376607284200,6.3312841796875,18.3209171295166,-20.237953186035156,17.7545166015625
1702137376624274400,6.3482744140625,16.356346130371094,-19.643693923950195,18.93589210510254
1702137376641267200,6.36526708984375,13.45384407043457,-19.44649887084961,21.080793380737305
1702137376658257700,6.382257568359375,11.65396785736084,-19.098461151123047,21.505409240722656
1702137376675250000,6.39925,12.397665977478027,-18.484241485595703,19.39126205444336
1702137376692230100,6.416230224609375,15.292283058166504,-16.35710906982422,13.777886390686035
1702137376709233400,6.4332333984375,14.444628715515137,-14.191078186035156,9.172924995422363
1702137376726224600,6.450224609375,8.889334678649902,-11.035028457641602,7.423618793487549
1702137376743217700,6.4672177734375,2.2197601795196533,-7.726312160491943,7.248278617858887
1702137376760206800,6.484206787109375,1.8393782377243042,-8.558550834655762,9.770109176635742
1702137376777199400,6.501199462890625,6.311951637268066,-12.657604217529297,14.169663429260254
1702137376794189600,6.518189453125,10.866118431091309,-15.165201187133789,16.65348243713379
1702137376811165400,6.53516552734375,12.994721412658691,-14.289270401000977,17.79366683959961
1702137376828170000,6.552169921875,8.81956672668457,-13.573097229003906,20.233116149902344
1702137376845157000,6.5691572265625,0.021333813667297363,-12.109597206115723,21.31708526611328
1702137376862156000,6.586156005859375,-9.214607238769531,-12.146156311035156,21.76810073852539
1702137376879148500,6.6031484375,-12.29554557800293,-13.55129623413086,19.723718643188477
1702137376896138800,6.620138671875,-7.621415138244629,-13.420071601867676,14.534780502319336
1702137376913131500,6.637131591796875,-0.2955923080444336,-13.892422676086426,11.60285758972168
1702137376930123500,6.65412353515625,6.970454692840576,-11.731385231018066,10.64650821685791
1702137376947110100,6.671110107421875,7.781756401062012,-9.339095115661621,11.375286102294922
1702137376964107300,6.688107177734375,3.1541194915771484,-8.537618637084961,12.093961715698242
1702137376981097500,6.705097412109375,-0.3348731994628906,-9.628677368164062,12.10749626159668
1702137376998087700,6.722087646484375,0.15526103973388672,-13.344521522521973,12.3184232711792
1702137377015069700,6.739069580078125,4.128161430358887,-16.35617446899414,11.359968185424805
1702137377032058000,6.75605810546875,8.012178421020508,-17.529598236083984,10.563763618469238
1702137377049063000,6.77306298828125,9.824302673339844,-16.828088760375977,11.960171699523926
1702137377066057200,6.79005712890625,6.291113376617432,-16.667194366455078,14.318400382995605
1702137377083046400,6.80704638671875,2.130969762802124,-15.786354064941406,12.597501754760742
1702137377100034300,6.824034423828125,2.1547703742980957,-16.10076141357422,13.009812355041504
1702137377117032000,6.841031982421875,4.517528533935547,-17.040760040283203,16.86008071899414
1702137377134032400,6.858032470703125,4.653476715087891,-17.860492706298828,20.061145782470703
1702137377151014100,6.87501416015625,2.714681386947632,-18.751516342163086,20.772951126098633
1702137377168000500,6.89200048828125,2.730790138244629,-18.51139259338379,23.116783142089844
1702137377184998100,6.908998046875,3.4041574001312256,-17.53872299194336,30.0169677734375
1702137377201986000,6.925986083984375,2.63539719581604,-15.956682205200195,35.50752639770508
1702137377218978800,6.942978759765625,0.4486653804779053,-14.008909225463867,38.03623580932617
1702137377235969000,6.959968994140625,-1.6456152200698853,-14.314553260803223,40.16246795654297
1702137377252961500,6.97696142578125,-2.0378918647766113,-16.152877807617188,43.04102325439453
1702137377269954000,6.9939541015625,1.5953938961029053,-18.227554321289062,48.4216194152832
1702137377286947800,7.01094775390625,6.074770927429199,-20.268306732177734,53.018192291259766
1702137377303932000,7.027931884765625,9.432027816772461,-21.189111709594727,52.543487548828125
1702137377320927500,7.044927490234375,11.278644561767578,-23.295515060424805,51.42753601074219
1702137377337908500,7.061908447265625,11.61815357208252,-24.44812774658203,50.39443588256836
1702137377354902300,7.07890234375,11.102298736572266,-25.904401779174805,49.60151290893555
1702137377371890200,7.09589013671875,10.939706802368164,-30.332775115966797,46.28868865966797
1702137377388886800,7.11288671875,15.149216651916504,-35.8458137512207,38.88007354736328
1702137377405874700,7.129874755859375,20.984867095947266,-37.468387603759766,30.896419525146484
1702137377422868700,7.14686865234375,22.6185302734375,-37.1596794128418,24.636882781982422
1702137377439860700,7.16386083984375,17.9229736328125,-35.34478759765625,19.67788314819336
1702137377456859600,7.180859619140625,10.40882396697998,-33.92169189453125,17.06959342956543
1702137377473850400,7.197850341796875,5.232402801513672,-32.021148681640625,13.093549728393555
1702137377490855200,7.214855224609375,3.944185256958008,-29.050031661987305,7.351065635681152
1702137377507830800,7.231830810546875,3.9148387908935547,-24.55978775024414,4.677389621734619
1702137377524828400,7.248828369140625,3.012516975402832,-19.84292221069336,5.56126594543457
1702137377541816000,7.265816162109375,0.608311653137207,-17.444477081298828,7.0271782875061035
1702137377558808800,7.282808837890625,-0.5135784149169922,-15.560544967651367,5.108526706695557
1702137377575799300,7.29979931640625,1.0687227249145508,-13.944685935974121,3.285947322845459
1702137377592791800,7.316791748046875,2.5702075958251953,-13.880637168884277,6.410394668579102
1702137377609780000,7.333780029296875,1.3167996406555176,-13.311293601989746,7.867722034454346
1702137377626764800,7.350764892578125,-0.16660213470458984,-13.87763786315918,7.958057403564453
1702137377643767600,7.367767578125,1.0898571014404297,-15.248516082763672,7.143033504486084
1702137377660758000,7.384758056640625,5.009293556213379,-15.60835075378418,5.855277061462402
1702137377677748200,7.401748291015625,9.14837646484375,-17.062049865722656,8.640883445739746
1702137377694741000,7.418740966796875,10.817145347595215,-17.76123046875,14.60654067993164
1702137377711731200,7.435731201171875,9.945778846740723,-18.15496063232422,21.12613296508789
1702137377728722400,7.452722412109375,8.116877555847168,-18.70368194580078,23.969501495361328
1702137377745715700,7.4697158203125,6.451605319976807,-20.270626068115234,23.98291015625
1702137377762707000,7.48670703125,5.370424747467041,-23.09650993347168,23.69280242919922
1702137377779697400,7.503697509765625,5.323586463928223,-26.357004165649414,25.288684844970703
1702137377796690000,7.52068994140625,7.301506042480469,-29.317062377929688,28.910430908203125
1702137377813680400,7.537680419921875,9.363237380981445,-30.616802215576172,31.168319702148438
1702137377830670600,7.554670654296875,6.295257568359375,-31.197566986083984,31.874813079833984
1702137377847666000,7.571666015625,1.8852392435073853,-33.901676177978516,30.38898277282715
1702137377864656100,7.58865625,1.7856965065002441,-33.943031311035156,28.83359146118164
1702137377881644300,7.605644287109375,2.3816802501678467,-36.51987838745117,33.26267623901367
1702137377898641400,7.622641357421875,4.315621376037598,-36.99492263793945,37.600582122802734
1702137377915629300,7.63962939453125,11.14508056640625,-33.739749908447266,38.13682174682617
1702137377932622000,7.6566220703125,12.453686714172363,-31.76624870300293,40.26654815673828
1702137377949610000,7.67360986328125,10.584474563598633,-30.31991958618164,39.204769134521484
1702137377966607400,7.690607421875,10.188897132873535,-24.66876220703125,34.32727813720703
1702137377983595800,7.707595703125,7.797447204589844,-20.94478416442871,36.824317932128906
1702137378000588300,7.72458837890625,4.773486137390137,-19.313247680664062,40.274654388427734
1702137378017570800,7.74157080078125,2.9869017601013184,-16.572643280029297,37.018310546875
1702137378034571300,7.7585712890625,0.9929194450378418,-12.457632064819336,31.23055076599121
1702137378051561500,7.7755615234375,1.6424040794372559,-8.961565017700195,27.632720947265625
1702137378068554200,7.79255419921875,4.332208633422852,-6.305177211761475,28.716604232788086
1702137378085544400,7.80954443359375,5.474186420440674,-4.64287805557251,32.560516357421875
1702137378102539000,7.8265390625,3.1859793663024902,-0.09565341472625732,30.450801849365234
1702137378119526000,7.84352587890625,-1.4132699966430664,1.1333043575286865,24.313068389892578
1702137378136516000,7.86051611328125,0.9017233848571777,3.1863245964050293,16.57427978515625
1702137378153511000,7.877510986328125,4.8562822341918945,3.217237949371338,15.797059059143066
1702137378170492400,7.894492431640625,7.742178440093994,3.4674062728881836,16.074819564819336
1702137378187493400,7.911493408203125,7.50132942199707,3.7800564765930176,14.804405212402344
1702137378204484000,7.928484130859375,5.324023246765137,3.8493857383728027,12.523726463317871
1702137378221479200,7.945479248046875,3.571178913116455,3.5822949409484863,10.062570571899414
1702137378238469400,7.962469482421875,2.471759557723999,3.0816359519958496,8.102254867553711
1702137378255459800,7.9794599609375,1.2375156879425049,2.254189968109131,7.293168067932129
1702137378272442000,7.996442138671875,0.023969531059265137,1.5575785636901855,6.3857269287109375
1702137378289442800,8.01344287109375,-0.5809119343757629,0.8365864753723145,5.311290740966797
1702137378306432500,8.0304326171875,-0.9639779329299927,0.3071248531341553,4.097399711608887
1702137378323435300,8.047435302734375,-1.4336276054382324,-0.32063937187194824,2.8441877365112305
1702137378340418300,8.064418212890626,-1.5834486484527588,-0.9218873977661133,2.0837841033935547
1702137378357409000,8.081408935546875,-0.6219723224639893,-1.4290387630462646,1.5840768814086914
1702137378374401300,8.0984013671875,0.9118733406066895,-1.6945552825927734,1.178619384765625
1702137378391371500,8.11537158203125,1.6848351955413818,-1.9042167663574219,0.7069864273071289
1702137378408374800,8.132374755859376,2.178203821182251,-1.9676549434661865,0.22023487091064453
1702137378425377500,8.14937744140625,2.206132173538208,-1.5105946063995361,-0.5384836196899414
1702137378442357200,8.166357177734374,2.417443037033081,-0.9522068500518799,-0.21181392669677734
1702137378459346700,8.1833466796875,2.5251400470733643,-0.6390557289123535,1.3825798034667969
1702137378476344600,8.200344482421874,2.952282190322876,-0.35399651527404785,2.527676582336426
1702137378493336300,8.21733642578125,3.6481378078460693,-0.25475454330444336,2.938314437866211
1702137378510322400,8.234322509765626,4.528635501861572,-0.7427624464035034,3.219881057739258
1702137378527313700,8.251313720703125,5.254483222961426,-1.3932819366455078,3.5773544311523438
1702137378544308200,8.26830810546875,5.469067573547363,-1.7520179748535156,3.714411735534668
1702137378561301500,8.285301513671875,5.1910295486450195,-1.8247897624969482,3.834878921508789
1702137378578289700,8.30228955078125,4.72269344329834,-1.707726240158081,3.528339385986328
1702137378595283500,8.319283447265626,4.214056968688965,-2.1210732460021973,3.0325489044189453
1702137378612272000,8.336272216796875,4.088038921356201,-2.601736307144165,2.793339729309082
1702137378629266000,8.353265869140625,4.501456260681152,-2.9036595821380615,3.7860679626464844
1702137378646257400,8.37025732421875,4.1702680587768555,-2.4867513179779053,4.420863151550293
1702137378663248000,8.387247802734375,2.0456650257110596,-1.6748356819152832,3.2181005477905273
1702137378680241000,8.404240966796875,-1.7267885208129883,-0.44899511337280273,2.605726718902588
1702137378697239000,8.421239013671874,-4.292483329772949,-0.29998111724853516,5.570286273956299
1702137378714231600,8.4382314453125,-2.623577117919922,-0.653630256652832,8.143041610717773
1702137378731212000,8.4552119140625,-0.8054239749908447,0.8218369483947754,7.734073162078857
1702137378748211700,8.472211669921874,-1.2979726791381836,3.450272560119629,5.808261394500732
1702137378765205000,8.489205078125,-1.8271210193634033,4.683798789978027,5.482520580291748
1702137378782197500,8.506197509765625,-0.07524633407592773,4.22583532333374,5.7204132080078125
1702137378799187700,8.523187744140625,2.3367726802825928,2.528745651245117,3.623476505279541
1702137378816180700,8.5401806640625,3.4703707695007324,0.35767364501953125,0.4610319137573242
1702137378833168600,8.557168701171875,2.847860813140869,-1.9341468811035156,-2.176301956176758
1702137378850165800,8.574165771484376,1.3040255308151245,-3.987617015838623,-4.082167625427246
1702137378867142100,8.59114208984375,-0.5326364040374756,-5.6510539054870605,-5.249648094177246
1702137378884149200,8.608149169921875,-1.5515217781066895,-6.689225196838379,-6.082197666168213
1702137378901137200,8.62513720703125,-1.7772161960601807,-7.597620010375977,-6.425305366516113
1702137378918129700,8.642129638671875,-1.231299638748169,-8.812865257263184,-5.868846416473389
1702137378935117600,8.65911767578125,-1.0190930366516113,-10.276965141296387,-5.316039562225342
1702137378952101400,8.676101318359375,-0.47731518745422363,-11.47651481628418,-5.620052337646484
1702137378969103000,8.69310302734375,0.7742060422897339,-11.91889762878418,-6.644829273223877
1702137378986095600,8.710095703125,2.0271096229553223,-12.065555572509766,-7.493316650390625
1702137379003085800,8.7270859375,2.662184238433838,-12.495309829711914,-7.276592254638672
1702137379020078300,8.744078369140626,1.7237281799316406,-13.507369995117188,-5.989053726196289
1702137379037068800,8.76106884765625,0.06709861755371094,-14.880718231201172,-4.496037483215332
1702137379054052000,8.778052001953125,-0.9416989088058472,-16.09039306640625,-3.05751371383667
1702137379071041500,8.79504150390625,-1.4459805488586426,-16.749713897705078,-2.356295108795166
1702137379088031700,8.81203173828125,-1.8067023754119873,-17.640087127685547,-1.895911455154419
1702137379105037800,8.829037841796875,-1.093445062637329,-18.86323356628418,-1.2194762229919434
1702137379122027500,8.846027587890624,-0.6174975037574768,-19.986705780029297,0.0171205997467041
1702137379139017700,8.863017822265626,-1.1393063068389893,-21.14574432373047,4.8838911056518555
1702137379156010800,8.8800107421875,-2.8337392807006836,-21.911909103393555,12.044325828552246
1702137379173001000,8.8970009765625,-5.499675273895264,-21.594242095947266,17.367172241210938
1702137379189994000,8.913993896484374,-8.487993240356445,-20.5733699798584,17.64236831665039
1702137379206981600,8.930981689453125,-10.10482120513916,-20.75189781188965,16.573856353759766
1702137379223978200,8.947978271484375,-4.881920337677002,-20.121807098388672,20.601215362548828
1702137379240967200,8.96496728515625,-0.48888540267944336,-17.36273765563965,29.740713119506836
1702137379257959400,8.98195947265625,-4.3541460037231445,-13.918928146362305,36.379112243652344
1702137379274950000,8.998949951171875,-13.649932861328125,-11.501919746398926,35.64704132080078
1702137379291942700,9.015942626953125,-15.370637893676758,-12.679075241088867,37.54948425292969
1702137379308932900,9.032932861328124,-6.083892822265625,-13.577088356018066,41.12530517578125
1702137379325925600,9.049925537109376,1.8808599710464478,-11.96268081665039,42.39067077636719
1702137379342915800,9.066915771484375,4.212998390197754,-9.759018898010254,43.16463088989258
1702137379359908600,9.08390869140625,3.9449098110198975,-7.363062858581543,44.03418731689453
1702137379376897300,9.100897216796875,3.1924800872802734,-8.629104614257812,45.42795944213867
1702137379393894000,9.117893798828124,5.781895637512207,-12.502654075622559,45.30773162841797
1702137379410880800,9.134880859375,9.943958282470703,-18.185815811157227,44.199546813964844
1702137379427873500,9.15187353515625,14.237649917602539,-23.681825637817383,40.158447265625
1702137379444860400,9.1688603515625,18.637113571166992,-28.38313102722168,33.99336242675781
1702137379461857800,9.18585791015625,18.06268310546875,-30.379486083984375,28.236324310302734
1702137379478848000,9.202847900390625,13.558765411376953,-29.459896087646484,24.619770050048828
1702137379495840500,9.219840576171874,9.507932662963867,-27.15703582763672,21.90250587463379
1702137379512831000,9.2368310546875,10.013134956359863,-24.309284210205078,19.030559539794922
1702137379529823700,9.25382373046875,11.886737823486328,-20.517704010009766,17.88399887084961
1702137379546806800,9.270806884765625,12.033428192138672,-18.211565017700195,18.74049186706543
1702137379563803400,9.287803466796875,10.084853172302246,-17.80023193359375,19.26728630065918
1702137379580797200,9.304797119140625,8.210363388061523,-16.893455505371094,17.471189498901367
1702137379597789400,9.32178955078125,7.032552719116211,-16.085954666137695,13.898520469665527
1702137379614780200,9.3387802734375,5.547091960906982,-14.934240341186523,11.467547416687012
1702137379631771100,9.355771240234375,3.650214672088623,-14.246137619018555,11.55263614654541
1702137379648763100,9.37276318359375,1.582340955734253,-13.534631729125977,13.657302856445312
1702137379665755400,9.38975537109375,-0.5348830223083496,-13.032000541687012,16.57265281677246
1702137379682746000,9.40674609375,-3.884746551513672,-12.126358985900879,18.593219757080078
1702137379699728100,9.42372802734375,-6.782881259918213,-11.277290344238281,19.354095458984375
1702137379716718300,9.44071826171875,-7.786454677581787,-11.872312545776367,21.33098602294922
1702137379733721600,9.4577216796875,-7.1521406173706055,-12.93269157409668,22.932544708251953
1702137379750712000,9.474712158203126,-5.6656904220581055,-12.592455863952637,22.910215377807617
1702137379767703300,9.491703369140625,-5.122989654541016,-11.470881462097168,21.478595733642578
1702137379784697600,9.508697509765625,-4.642145156860352,-9.102505683898926,19.152896881103516
1702137379801687600,9.5256875,-5.889531135559082,-7.5162672996521,18.118389129638672
1702137379818688500,9.5426884765625,-11.587773323059082,-7.569499492645264,17.14813232421875
1702137379835667500,9.55966748046875,-12.973920822143555,-9.973392486572266,17.354537963867188
1702137379852650800,9.576650634765626,-7.904389381408691,-11.516265869140625,14.02678108215332
1702137379869653500,9.593653564453126,-2.1056861877441406,-11.972230911254883,9.474892616271973
1702137379886644000,9.61064404296875,1.9025177955627441,-11.641735076904297,6.240020275115967
1702137379903624400,9.62762451171875,3.096348285675049,-12.257150650024414,7.764415264129639
1702137379920615700,9.64461572265625,1.141920566558838,-13.20480728149414,14.283710479736328
1702137379937622000,9.6616220703125,-2.1850199699401855,-14.536731719970703,19.661134719848633
1702137379954610200,9.678610107421875,-0.5392923355102539,-13.757888793945312,20.32692527770996
1702137379971602400,9.6956025390625,1.1958198547363281,-16.92778778076172,18.470335006713867
1702137379988593200,9.71259326171875,3.767328977584839,-19.70444107055664,13.232301712036133
1702137380005585700,9.729585693359375,5.990578651428223,-21.82775115966797,12.525457382202148
1702137380022576400,9.746576416015625,9.2488431930542,-21.720252990722656,19.85315704345703
1702137380039568400,9.763568359375,8.723092079162598,-19.463714599609375,26.581199645996094
1702137380056558800,9.780558837890625,5.191469192504883,-18.69068145751953,30.171764373779297
1702137380073543000,9.79754296875,5.580289363861084,-17.629976272583008,31.49169921875
1702137380090538500,9.81453857421875,10.078678131103516,-15.245281219482422,37.32760238647461
1702137380107538000,9.831537841796875,6.849557876586914,-12.155613899230957,44.94900131225586
1702137380124512300,9.84851220703125,-3.347362995147705,-8.216240882873535,42.72063446044922
1702137380141517600,9.865517578125,-12.935779571533203,-8.80064582824707,40.313270568847656
1702137380158510300,9.88251025390625,-13.611676216125488,-13.071784019470215,41.074710845947266
1702137380175500800,9.899500732421876,-7.244906425476074,-19.733722686767578,47.591209411621094
1702137380192491000,9.916490966796875,-1.7489337921142578,-19.273786544799805,54.492584228515625
1702137380209483300,9.933483154296875,-3.4853720664978027,-15.655838012695312,55.61476135253906
1702137380226468900,9.95046875,-7.465149402618408,-15.524866104125977,52.02509689331055
1702137380243469000,9.967468994140624,-4.707510948181152,-18.76958465576172,49.59947204589844
1702137380260457000,9.98445703125,0.014164924621582031,-23.623632431030273,48.825199127197266
1702137380277449700,10.00144970703125,3.0499889850616455,-29.556396484375,46.95443344116211
1702137380294440000,10.01843994140625,6.398561477661133,-36.91957092285156,43.25148391723633
1702137380311431400,10.035431396484375,8.47653865814209,-41.45901107788086,36.412357330322266
1702137380328422700,10.052422607421875,7.837706565856934,-44.273414611816406,26.447040557861328
1702137380345415200,10.069415283203124,7.301701545715332,-43.460472106933594,16.86511993408203
1702137380362419000,10.0864189453125,6.443514347076416,-38.45634841918945,10.693887710571289
1702137380379398700,10.103398681640625,4.607333183288574,-32.1461181640625,9.09699535369873
1702137380396389000,10.12038916015625,2.902642250061035,-27.448421478271484,6.165901184082031
1702137380413381600,10.137381591796874,2.170602798461914,-22.917098999023438,3.0956368446350098
1702137380430369500,10.15436962890625,0.9930496215820312,-18.975662231445312,2.109159469604492
1702137380447367200,10.1713671875,0.4777507781982422,-16.828786849975586,2.848404884338379
1702137380464354800,10.188354736328124,2.665226936340332,-14.226832389831543,3.3701136112213135
1702137380481347300,10.205347412109376,4.253704071044922,-12.029550552368164,5.391478061676025
1702137380498337800,10.222337890625,3.787444591522217,-10.802045822143555,8.436856269836426
1702137380515330300,10.239330322265625,2.6523189544677734,-10.776159286499023,10.025047302246094
1702137380532308200,10.25630810546875,2.336933135986328,-11.406533241271973,10.66866683959961
1702137380549315600,10.273315673828124,2.9922871589660645,-12.2285737991333,11.554060935974121
1702137380566294000,10.2902939453125,3.6661884784698486,-13.749003410339355,12.786728858947754
1702137380583296300,10.307296142578124,4.9011101722717285,-16.640390396118164,15.820735931396484
1702137380600284000,10.324283935546875,6.157620429992676,-19.455595016479492,20.108291625976562
1702137380617281800,10.34128173828125,6.182107925415039,-21.371437072753906,25.228389739990234
1702137380634269700,10.358269775390625,4.83601188659668,-22.165695190429688,26.488502502441406
1702137380651253000,10.3752529296875,3.3014259338378906,-23.73101806640625,26.196136474609375
1702137380668253000,10.3922529296875,2.033162832260132,-27.402225494384766,26.10190200805664
1702137380685245400,10.409245361328125,3.295818567276001,-31.99510955810547,27.91164207458496
1702137380702235600,10.426235595703124,6.550180912017822,-32.424049377441406,31.68006134033203
1702137380719207400,10.44320751953125,3.4912595748901367,-31.50210189819336,36.7318115234375
1702137380736218400,10.46021826171875,-3.4078407287597656,-30.837535858154297,35.72282791137695
1702137380753214500,10.47721435546875,-5.124720096588135,-29.975505828857422,29.501401901245117
1702137380770201900,10.494201904296874,-1.6941657066345215,-32.1041374206543,24.903240203857422
1702137380787195000,10.51119482421875,7.11591911315918,-32.435237884521484,26.23922348022461
1702137380804182000,10.52818212890625,11.548140525817871,-32.0282096862793,33.94164276123047
1702137380821167600,10.545167724609374,10.022830963134766,-28.768505096435547,40.70574188232422
1702137380838160100,10.56216015625,3.089395761489868,-25.844802856445312,41.66893005371094
1702137380855149800,10.57914990234375,-2.6209187507629395,-21.922414779663086,36.700401306152344
1702137380872138800,10.596138671875,-1.7112858295440674,-18.62311553955078,33.93391799926758
1702137380889133000,10.613133056640624,0.704454779624939,-16.66957664489746,35.44038772583008
1702137380906123800,10.630123779296875,0.824446439743042,-16.248950958251953,34.7213134765625
1702137380923119600,10.64711962890625,3.581287384033203,-11.151091575622559,27.381622314453125
1702137380940109300,10.664109375,5.223954200744629,-8.87257194519043,27.994203567504883
1702137380957095700,10.681095703125,3.8357768058776855,-7.123517990112305,29.6639347076416
1702137380974099700,10.698099609375,1.7062551975250244,-5.4533610343933105,28.441600799560547
1702137380991092200,10.71509228515625,3.145153284072876,-2.457242488861084,24.292484283447266
1702137381008082000,10.73208203125,4.1558837890625,0.4716113805770874,21.733154296875
1702137381025074400,10.749074462890626,4.249089241027832,1.6817927360534668,21.35649299621582
1702137381042067000,10.76606689453125,3.9022295475006104,3.9054067134857178,19.74428939819336
1702137381059058200,10.78305810546875,1.5405651330947876,4.613681793212891,18.637962341308594
1702137381076049000,10.800048828125,2.021130084991455,4.435941696166992,16.453392028808594
1702137381093041200,10.817041259765626,5.168598175048828,4.763998508453369,13.005840301513672
1702137381110020900,10.834020751953124,6.859577655792236,5.098184585571289,10.60498332977295
1702137381127019300,10.851019287109375,5.435819625854492,4.734399795532227,9.372262001037598
1702137381144019200,10.868019287109375,2.745182514190674,4.307392597198486,8.089502334594727
1702137381161004800,10.8850048828125,0.7329024076461792,3.760239601135254,6.983146667480469
1702137381177997800,10.901997802734375,-0.34211644530296326,3.0968406200408936,6.015501976013184
1702137381194989600,10.918989501953124,-0.5920584201812744,2.1777474880218506,4.997840881347656
1702137381211980500,10.93598046875,-0.15835413336753845,1.5168052911758423,4.196769714355469
1702137381228971000,10.952970947265625,-0.42467617988586426,0.9782700538635254,4.1201372146606445
1702137381245976600,10.9699765625,-1.3779114484786987,0.09416365623474121,4.444936752319336
1702137381262956000,10.9869560546875,-1.6851884126663208,-0.6740658283233643,4.3538007736206055
1702137381279946800,11.00394677734375,-1.0256896018981934,-1.629641056060791,3.6893529891967773
1702137381296938800,11.020938720703125,0.298640638589859,-2.610435962677002,2.4201154708862305
1702137381313929500,11.037929443359374,1.8357911109924316,-3.8733975887298584,1.565603256225586
1702137381330922000,11.054921875,3.440185785293579,-5.5958967208862305,1.191915512084961
1702137381347913200,11.071913330078125,5.663437366485596,-6.923995018005371,0.7693042755126953
1702137381364904200,11.088904296875,5.839118003845215,-7.698037147521973,0.3577003479003906
1702137381381885000,11.105885009765625,4.1103057861328125,-8.960566520690918,-0.22161102294921875
1702137381398895600,11.1228955078125,3.299774169921875,-9.340030670166016,-1.0741186141967773
1702137381415880200,11.139880126953125,3.878762722015381,-9.4247465133667,-1.6071677207946777
1702137381432866800,11.15686669921875,5.214877605438232,-9.267133712768555,-1.0313968658447266
1702137381449864000,11.173864013671874,6.00847053527832,-9.453201293945312,0.4994945526123047
1702137381466851300,11.190851318359375,6.317610740661621,-9.080982208251953,1.0592193603515625
1702137381483847000,11.207846923828125,6.1392927169799805,-8.746587753295898,0.40955543518066406
1702137381500836600,11.224836669921874,5.453167915344238,-8.335750579833984,-0.7575697898864746
1702137381517827000,11.2418271484375,4.678835391998291,-7.333491325378418,-1.3045310974121094
1702137381534819800,11.25881982421875,3.9777958393096924,-6.466940879821777,0.7698163986206055
1702137381551799800,11.2757998046875,3.3654944896698,-5.828652858734131,2.930952548980713
1702137381568803000,11.292802978515626,2.5436253547668457,-5.137977123260498,3.3097481727600098
1702137381585792300,11.309792236328125,1.7292762994766235,-4.315267086029053,2.02203369140625
1702137381602783700,11.32678369140625,0.8865547180175781,-2.3880631923675537,0.8734583854675293
1702137381619779800,11.34377978515625,-0.24886465072631836,-0.8386759757995605,1.9546551704406738
1702137381636767700,11.360767822265625,-0.6169376373291016,0.2719240188598633,4.699193477630615
1702137381653742800,11.377742919921875,-0.07437825202941895,1.5006542205810547,8.24267864227295
1702137381670752000,11.394751953125,-1.5216078758239746,3.2319464683532715,8.49118423461914
1702137381687732200,11.411732177734375,-4.024415969848633,3.782494068145752,6.29111909866333
1702137381704734000,11.42873388671875,-4.180387496948242,4.1009321212768555,4.041111946105957
1702137381721726500,11.4457265625,-1.8511958122253418,4.09566593170166,3.4712047576904297
1702137381738717700,11.4627177734375,-0.07384419441223145,3.913055896759033,3.2511916160583496
1702137381755708200,11.479708251953125,0.1756422519683838,3.526370048522949,2.5925707817077637
1702137381772690400,11.4966904296875,-0.4822840690612793,2.326915740966797,0.8983919620513916
1702137381789691100,11.513691162109374,-1.4396705627441406,0.38700294494628906,-1.4544771909713745
1702137381806682000,11.53068212890625,-1.2930197715759277,-1.6848301887512207,-3.5109381675720215
1702137381823675600,11.547675537109376,-0.4484987258911133,-3.489198684692383,-4.904388427734375
1702137381840666600,11.56466650390625,0.2633695602416992,-4.993361473083496,-5.774490833282471
1702137381857654500,11.581654541015626,0.8733775615692139,-5.848316192626953,-6.750852584838867
1702137381874652000,11.59865185546875,0.8229246139526367,-6.730533123016357,-7.058396339416504
1702137381891627300,11.615627197265624,0.5685439109802246,-8.23694896697998,-6.234785079956055
1702137381908621600,11.63262158203125,0.27039241790771484,-10.009267807006836,-5.842617988586426
1702137381925625600,11.64962548828125,0.9695062637329102,-11.206619262695312,-6.214210033416748
1702137381942606300,11.6666064453125,2.6181039810180664,-12.003278732299805,-6.855553150177002
1702137381959597800,11.683597900390625,3.7180073261260986,-13.090097427368164,-6.662042140960693
1702137381976595000,11.700594970703126,3.580575942993164,-14.29666519165039,-6.012504577636719
1702137381993587200,11.717587158203125,1.7755804061889648,-15.389830589294434,-5.447964668273926
1702137382010574800,11.734574951171876,-0.7888476848602295,-16.713348388671875,-4.840109825134277
1702137382027560700,11.751560791015624,-0.9559118747711182,-18.720752716064453,-3.2336466312408447
1702137382044554200,11.76855419921875,1.8118577003479004,-19.20604705810547,-1.945357322692871
1702137382061548500,11.785548583984376,1.8344855308532715,-19.470216751098633,0.2618553638458252
1702137382078541800,11.802541748046876,-3.2236714363098145,-20.527572631835938,4.641171932220459
1702137382095528000,11.81952783203125,-6.775632858276367,-22.443326950073242,9.276738166809082
1702137382112522200,11.836522216796874,-3.2235584259033203,-22.18333625793457,13.385135650634766
1702137382129515300,11.853515380859376,0.3011241555213928,-20.262775421142578,16.466535568237305
1702137382146508800,11.8705087890625,0.4235285520553589,-17.619571685791016,17.64997100830078
1702137382163496400,11.887496337890624,-3.566209554672241,-16.366260528564453,21.662864685058594
1702137382180494600,11.90449462890625,-8.115777969360352,-14.899802207946777,27.064010620117188
1702137382197484000,11.921484130859374,-12.355785369873047,-13.659423828125,29.262344360351562
1702137382214480000,11.93847998046875,-13.43377685546875,-13.5849027633667,31.046628952026367
1702137382231452200,11.9554521484375,-10.465448379516602,-14.35256290435791,32.83032989501953
1702137382248462000,11.972462158203125,-5.9933013916015625,-14.403725624084473,35.067771911621094
1702137382265442300,11.9894423828125,-3.059939384460449,-13.062826156616211,35.97920227050781
1702137382282443000,12.006443115234376,-2.566727876663208,-11.418481826782227,36.834136962890625
1702137382299438000,12.02343798828125,-2.3120126724243164,-11.095056533813477,38.82809829711914
1702137382316428300,12.04042822265625,0.8042842149734497,-11.762932777404785,41.72951126098633
1702137382333404700,12.05740478515625,6.190691947937012,-12.759483337402344,43.380306243896484
1702137382350411000,12.074410888671874,12.190980911254883,-13.593652725219727,41.14525604248047
1702137382367398400,12.0913984375,16.22420883178711,-13.64535903930664,37.334835052490234
1702137382384397300,12.108397216796876,18.051742553710938,-14.384063720703125,33.40199279785156
1702137382401384700,12.125384765625,18.62884521484375,-15.428505897521973,29.569961547851562
1702137382418377000,12.142376953125,18.57929229736328,-16.673568725585938,25.973041534423828
1702137382435357000,12.15935693359375,20.1021671295166,-17.538105010986328,21.23006820678711
1702137382452349400,12.176349365234374,21.80678367614746,-17.481700897216797,17.898849487304688
1702137382469349400,12.193349365234376,20.94248390197754,-17.120548248291016,19.321674346923828
1702137382486344200,12.21034423828125,17.494701385498047,-17.656532287597656,21.521318435668945
1702137382503333600,12.227333740234375,13.594335556030273,-16.84036636352539,20.37566566467285
1702137382520326000,12.244325927734375,11.304109573364258,-15.547224044799805,15.094141960144043
1702137382537305900,12.261305908203125,10.63798713684082,-13.573846817016602,9.743634223937988
1702137382554308900,12.278308837890625,10.503898620605469,-13.428123474121094,8.998053550720215
1702137382571288600,12.29528857421875,10.038339614868164,-14.406883239746094,10.556307792663574
1702137382588291600,12.31229150390625,9.977375984191895,-14.163389205932617,11.739629745483398
1702137382605279700,12.32927978515625,8.621781349182129,-14.093391418457031,12.838963508605957
1702137382622277400,12.34627734375,7.025676727294922,-14.232746124267578,14.862201690673828
1702137382639265500,12.363265625,5.0361409187316895,-13.159099578857422,16.629446029663086
1702137382656257800,12.3802578125,0.6728277206420898,-11.677600860595703,17.32416534423828
1702137382673248300,12.397248291015625,-3.603320598602295,-10.828910827636719,18.03921890258789
1702137382690240800,12.41424072265625,-5.252207279205322,-9.309405326843262,18.869327545166016
1702137382707231500,12.4312314453125,-6.19023323059082,-10.127845764160156,19.33898162841797
1702137382724223700,12.4482236328125,-5.779980659484863,-10.5732421875,19.482746124267578
1702137382741205800,12.465205810546875,-5.468578815460205,-10.448911666870117,19.389301300048828
1702137382758208500,12.48220849609375,-4.734742164611816,-10.83203411102295,19.59107208251953
1702137382775195400,12.4991953125,-4.329580307006836,-12.774073600769043,18.99486541748047
1702137382792185000,12.51618505859375,-2.6050949096679688,-13.995165824890137,15.460145950317383
1702137382809180200,12.53318017578125,-1.0411105155944824,-15.976880073547363,10.849388122558594
1702137382826172200,12.550172119140624,2.063814401626587,-17.534391403198242,7.974916458129883
1702137382843163100,12.5671630859375,3.6234052181243896,-18.265668869018555,9.843527793884277
1702137382860155600,12.58415576171875,5.594709873199463,-18.302635192871094,12.703433990478516
1702137382877145900,12.601145751953124,6.412034034729004,-16.15213966369629,14.831255912780762
1702137382894138400,12.618138427734374,3.5610642433166504,-15.499373435974121,17.479551315307617
1702137382911128800,12.63512890625,-0.6872668266296387,-17.26396942138672,19.713581085205078
1702137382928122000,12.6521220703125,1.4282746315002441,-18.915985107421875,19.970190048217773
1702137382945103000,12.66910302734375,7.091463565826416,-18.957439422607422,19.407546997070312
1702137382962102000,12.68610205078125,10.190078735351562,-18.059913635253906,24.357084274291992
1702137382979097300,12.703097412109376,6.572847366333008,-17.308734893798828,31.038244247436523
1702137382996087300,12.72008740234375,2.1198627948760986,-16.594263076782227,35.814788818359375
1702137383013079000,12.7370791015625,3.7448019981384277,-14.360992431640625,39.759822845458984
1702137383030069500,12.754069580078125,6.487616539001465,-11.497940063476562,44.91130065917969
1702137383047058200,12.77105810546875,4.9014573097229,-9.331226348876953,49.57907485961914
1702137383064055600,12.7880556640625,-0.420107364654541,-8.430238723754883,49.896751403808594
1702137383081043700,12.805043701171876,-1.8607096672058105,-10.478141784667969,53.201690673828125
1702137383098037000,12.822037109375,4.147111892700195,-13.283267974853516,57.740966796875
1702137383115017200,12.839017333984375,11.694294929504395,-15.77539348602295,59.21888732910156
1702137383132008200,12.85600830078125,15.204874992370605,-16.77739906311035,57.649993896484375
1702137383149009400,12.873009521484375,13.798690795898438,-17.52846908569336,54.75276184082031
1702137383166002000,12.890001953125,12.390837669372559,-17.7578182220459,51.1812858581543
1702137383182992400,12.906992431640624,12.73485279083252,-20.606168746948242,50.16413116455078
1702137383199993900,12.923993896484374,15.625603675842285,-24.60511589050293,48.760101318359375
1702137383216972800,12.940972900390625,18.36540412902832,-29.410221099853516,42.36930847167969
1702137383233970700,12.957970703125,18.375272750854492,-33.248291015625,31.270423889160156
1702137383250956300,12.974956298828126,18.345630645751953,-33.96949768066406,22.36046600341797
1702137383267948300,12.9919482421875,16.62801170349121,-32.304283142089844,18.184301376342773
1702137383284944000,13.00894384765625,12.167192459106445,-29.27674102783203,15.819612503051758
1702137383301934000,13.02593408203125,7.011624336242676,-26.96403694152832,13.890766143798828
1702137383318924500,13.042924560546876,4.109015941619873,-24.924957275390625,11.033636093139648
1702137383335916800,13.059916748046875,2.9693336486816406,-23.938570022583008,7.166258811950684
1702137383352907300,13.0769072265625,3.6743478775024414,-22.32332992553711,5.281146049499512
1702137383369899800,13.093899658203124,4.960495948791504,-19.448143005371094,5.129441738128662
1702137383386892500,13.110892578125,5.303594589233398,-17.139253616333008,6.911153316497803
1702137383403883000,13.127883056640625,3.8182997703552246,-14.577142715454102,7.890531539916992
1702137383420873000,13.144873046875,0.6142416000366211,-13.732304573059082,8.858198165893555
1702137383437865500,13.161865478515624,-0.9934482574462891,-13.952264785766602,8.84096622467041
1702137383454856200,13.178856201171875,0.36187124252319336,-14.915670394897461,9.295499801635742
1702137383471847200,13.19584716796875,2.7946090698242188,-15.160650253295898,10.451789855957031
1702137383488839000,13.2128388671875,4.695364952087402,-14.799887657165527,11.753448486328125
1702137383505831700,13.229831787109376,6.250865936279297,-15.459542274475098,14.00300407409668
1702137383522822100,13.246822265625,7.4179606437683105,-17.280044555664062,16.609607696533203
1702137383539814400,13.263814453125,7.48502779006958,-19.269628524780273,18.60389518737793
1702137383556804900,13.280804931640626,7.518599033355713,-21.41266632080078,21.00643539428711
1702137383573788200,13.2977880859375,7.344262599945068,-23.2849178314209,22.315174102783203
1702137383590783500,13.314783447265626,7.307351589202881,-26.314838409423828,23.137548446655273
1702137383607787800,13.331787841796874,8.776101112365723,-30.125486373901367,25.995594024658203
1702137383624767700,13.348767822265625,10.658425331115723,-33.300453186035156,32.84666442871094
1702137383641763300,13.365763427734375,9.860753059387207,-33.47162628173828,36.90167236328125
1702137383658754000,13.382754150390625,3.8616461753845215,-35.748260498046875,36.281986236572266
1702137383675746300,13.399746337890624,2.2332215309143066,-35.83514404296875,31.4788761138916
1702137383692736800,13.41673681640625,3.263740062713623,-36.96900939941406,31.72110939025879
1702137383709729000,13.43372900390625,5.3292951583862305,-38.681434631347656,38.94708251953125
1702137383726719700,13.4507197265625,7.801239013671875,-36.257957458496094,46.949684143066406
1702137383743712500,13.46771240234375,8.920439720153809,-29.113046646118164,43.29562759399414
1702137383760702500,13.484702392578125,8.659404754638672,-26.87452507019043,40.0723876953125
1702137383777695200,13.5016953125,11.574116706848145,-24.856739044189453,36.50349426269531
1702137383794685400,13.518685546875,11.957528114318848,-20.662389755249023,35.22590255737305
1702137383811678200,13.53567822265625,7.876506805419922,-19.28960609436035,37.35575866699219
1702137383828668400,13.55266845703125,7.118854522705078,-16.85499382019043,34.634552001953125
1702137383845661200,13.5696611328125,5.753291130065918,-11.275056838989258,28.494735717773438
1702137383862651000,13.58665087890625,1.9614005088806152,-10.282687187194824,32.01198196411133
1702137383879644700,13.603644775390626,1.3582267761230469,-6.665741920471191,30.857357025146484
1702137383896633900,13.6206337890625,1.3511385917663574,-4.765990734100342,29.277971267700195
1702137383913627000,13.637626953125,5.181357383728027,-0.5388303995132446,24.82524871826172
1702137383930617300,13.654617431640625,8.739409446716309,1.5067802667617798,24.42205810546875
1702137383947609600,13.671609619140625,9.428665161132812,2.985538959503174,23.888172149658203
1702137383964600000,13.68860009765625,7.443273544311523,3.0250349044799805,21.305870056152344
1702137383981592600,13.705592529296876,5.6201581954956055,3.3920552730560303,17.821456909179688
1702137383998572500,13.722572509765625,5.373603343963623,3.5051612854003906,14.919116973876953
1702137384015575800,13.739575927734375,6.7362380027771,3.6211681365966797,12.879718780517578
1702137384032566300,13.756566162109374,7.693839073181152,3.291135549545288,11.084735870361328
1702137384049548300,13.77354833984375,7.417476177215576,2.7115979194641113,9.025035858154297
1702137384066549200,13.79054931640625,6.115603923797607,1.813858985900879,7.1753034591674805
1702137384083541500,13.80754150390625,3.1035947799682617,1.5149569511413574,5.366689682006836
1702137384100532000,13.824531982421876,-0.9712553024291992,0.7760965824127197,5.830946922302246
1702137384117524500,13.8415244140625,-3.5248172283172607,-0.4296901226043701,6.4593048095703125
1702137384134522400,13.8585224609375,-2.2626521587371826,-1.3795444965362549,5.233255386352539
1702137384151507500,13.875507568359374,0.15118229389190674,-1.7990188598632812,2.7327747344970703
1702137384168497700,13.89249755859375,1.2700185775756836,-2.8791139125823975,0.28447437286376953
1702137384185488000,13.90948779296875,1.6291563510894775,-4.114208221435547,-1.6012954711914062
1702137384202484500,13.926484375,2.0207178592681885,-5.242764472961426,-2.3212671279907227
1702137384219472400,13.943472412109376,2.5640335083007812,-5.961998462677002,-1.9797863960266113
1702137384236463600,13.960463623046875,3.090914011001587,-6.184396743774414,-1.4929924011230469
1702137384253456400,13.977456298828125,3.486950635910034,-6.111176490783691,-1.502915382385254
1702137384270446800,13.99444677734375,3.934786319732666,-5.953986644744873,-1.8315114974975586
1702137384287439000,14.011439208984376,4.743816375732422,-5.7762227058410645,-1.4604835510253906
1702137384304429800,14.028429931640625,5.190831661224365,-5.728027820587158,-0.4245882034301758
1702137384321414100,14.0454140625,5.471018314361572,-4.713594436645508,-0.31522178649902344
1702137384338407400,14.062407470703125,4.90444278717041,-3.6418118476867676,-0.02914905548095703
1702137384355397400,14.0793974609375,4.321913242340088,-2.36167049407959,-0.326812744140625
1702137384372386000,14.096385986328125,3.773621082305908,-1.6834142208099365,0.021440505981445312
1702137384389378600,14.113378662109374,3.5689847469329834,-1.149185061454773,0.7370576858520508
1702137384406370800,14.130370849609376,3.8752236366271973,-0.6869970560073853,1.232682228088379
1702137384423357000,14.14735693359375,4.580374717712402,-0.49789249897003174,1.8633956909179688
1702137384440364000,14.164364013671875,5.392370700836182,-0.33705294132232666,1.5106945037841797
1702137384457353700,14.181353759765624,5.665645122528076,-0.3458549976348877,1.254817008972168
1702137384474335200,14.198335205078125,5.202010154724121,-0.34311044216156006,1.177760124206543
1702137384491326500,14.215326416015625,4.206786632537842,-0.21835501492023468,1.3434600830078125
1702137384508327400,14.232327392578124,3.030850410461426,-0.5650408864021301,2.095675468444824
1702137384525316000,14.249316162109375,3.2307674884796143,-1.13755464553833,3.446335792541504
1702137384542307800,14.266307861328125,3.845266819000244,-1.8840405941009521,4.297040939331055
1702137384559305200,14.28330517578125,4.386123180389404,-2.278810977935791,3.937222480773926
1702137384576293000,14.300293212890624,3.3552920818328857,-2.356013536453247,3.222342014312744
1702137384593285600,14.31728564453125,2.466144561767578,-2.7749733924865723,4.767494201660156
1702137384610276000,14.334276123046875,3.8796839714050293,-3.109312057495117,7.44265604019165
1702137384627268900,14.351268798828125,6.823215007781982,-0.82527756690979,7.753415584564209
1702137384644246500,14.36824658203125,4.473471164703369,2.072819232940674,6.2335076332092285
1702137384661254100,14.385254150390624,-2.038177490234375,4.609849452972412,3.967860698699951
1702137384678231800,14.402231689453124,-6.441150665283203,6.2018351554870605,3.5324692726135254
1702137384695218400,14.419218505859375,-3.9033946990966797,6.962913990020752,3.846360206604004
1702137384712217000,14.436217041015626,1.2824585437774658,9.092166900634766,1.7288017272949219
1702137384729212700,14.453212646484374,3.032762050628662,9.699865341186523,-0.5378060340881348
1702137384746208000,14.4702080078125,1.4774507284164429,7.6971049308776855,-2.093318223953247
1702137384763189800,14.487189697265626,-1.4076225757598877,4.946457862854004,-4.291049957275391
1702137384780191000,14.50419091796875,-3.2088215351104736,2.8902883529663086,-5.070099830627441
1702137384797180700,14.5211806640625,-3.612578868865967,-0.2761831283569336,-4.861411094665527
1702137384814176500,14.538176513671875,-2.058385133743286,-2.8794894218444824,-5.911528587341309
1702137384831148300,14.555148193359376,-0.23999595642089844,-5.2434186935424805,-6.520989894866943
1702137384848158200,14.572158203125,2.2976622581481934,-7.238955497741699,-6.951132297515869
1702137384865145000,14.58914501953125,4.686776638031006,-8.499531745910645,-7.511732578277588
1702137384882139400,14.606139404296876,5.593655109405518,-9.720869064331055,-6.520981788635254
1702137384899132000,14.6231318359375,5.720699310302734,-10.80144214630127,-5.375406742095947
1702137384916128500,14.64012841796875,5.42141580581665,-11.536712646484375,-4.772327899932861
1702137384933115100,14.657115234375,5.519529342651367,-11.92763900756836,-5.295176029205322
1702137384950105300,14.674105224609375,5.937741279602051,-12.190862655639648,-5.992625713348389
1702137384967095800,14.691095703125,5.07621955871582,-12.659675598144531,-7.019204139709473
1702137384984091100,14.708091064453125,4.233323574066162,-13.17491340637207,-5.169649124145508
1702137385001080800,14.725080810546874,4.926640033721924,-13.774483680725098,-2.0283126831054688
1702137385018072000,14.742072021484375,5.667126178741455,-14.698308944702148,1.486803412437439
1702137385035056000,14.75905615234375,4.9261274337768555,-15.999432563781738,3.409546136856079
1702137385052044300,14.776044189453126,3.866241693496704,-17.244125366210938,2.0893607139587402
1702137385069046800,14.793046875,3.6073293685913086,-19.207033157348633,0.8627347946166992
1702137385086034700,14.81003466796875,2.984701633453369,-21.053726196289062,4.77943754196167
1702137385103032300,14.8270322265625,1.6432303190231323,-22.1374454498291,12.160527229309082
1702137385120011300,14.84401123046875,-1.2730426788330078,-21.199052810668945,16.437036514282227
1702137385137010000,14.861010009765625,-4.768300533294678,-19.554243087768555,16.427974700927734
1702137385154005800,14.878005859375,-6.7819504737854,-18.967967987060547,17.495792388916016
1702137385170980400,14.89498046875,-7.627527713775635,-19.297080993652344,24.557872772216797
1702137385187983400,14.9119833984375,-9.481203079223633,-17.533510208129883,32.69584274291992
1702137385204981200,14.928981201171876,-14.081805229187012,-14.740804672241211,32.15825271606445
1702137385221969000,14.945968994140625,-15.479393005371094,-14.895498275756836,30.24863052368164
1702137385238961400,14.96296142578125,-11.065686225891113,-16.727144241333008,32.059871673583984
1702137385255960300,14.979960205078125,-5.933132171630859,-17.825607299804688,34.98955154418945
1702137385272944400,14.9969443359375,-2.786983013153076,-16.70659637451172,36.61962890625
1702137385289937700,15.013937744140625,-0.2730473279953003,-13.817962646484375,36.246707916259766
1702137385306918700,15.030918701171874,1.819533348083496,-11.9995756149292,35.62103271484375
1702137385323919400,15.04791943359375,3.2921206951141357,-11.837129592895508,35.39286804199219
1702137385340910600,15.06491064453125,4.620635032653809,-12.947300910949707,35.99627685546875
1702137385357900500,15.081900634765624,5.69221305847168,-14.189775466918945,35.10999298095703
1702137385374893000,15.09889306640625,6.977933883666992,-16.219911575317383,33.73775100708008
1702137385391870700,15.11587060546875,9.053069114685059,-18.59303855895996,32.856170654296875
1702137385408865300,15.132865234375,11.382732391357422,-21.70966339111328,32.270957946777344
1702137385425869300,15.149869384765625,10.652071952819824,-24.088729858398438,30.578981399536133
1702137385442850800,15.166850830078126,11.176382064819336,-25.324459075927734,26.08263397216797
1702137385459838500,15.18383837890625,13.629638671875,-23.466907501220703,20.502803802490234
1702137385476832800,15.200832763671874,17.74478530883789,-18.339534759521484,14.33372688293457
1702137385493823000,15.217822998046875,18.182519912719727,-14.126343727111816,9.955230712890625
1702137385510814200,15.234814208984375,15.471352577209473,-12.149943351745605,8.660562515258789
1702137385527810800,15.251810791015625,11.237768173217773,-12.13033390045166,10.717601776123047
1702137385544799000,15.268799072265624,7.785825252532959,-10.601572036743164,10.697163581848145
1702137385561789200,15.2857890625,5.267636775970459,-11.846494674682617,11.835010528564453
1702137385578783000,15.302782958984375,4.077702522277832,-11.764284133911133,10.409828186035156
1702137385595770600,15.3197705078125,1.8628010749816895,-10.689034461975098,10.860931396484375
1702137385612763100,15.33676318359375,-1.931647539138794,-9.50372314453125,13.958077430725098
1702137385629756400,15.35375634765625,-6.19670295715332,-10.121036529541016,19.176300048828125
1702137385646750700,15.370750732421875,-7.079598426818848,-11.118135452270508,20.984256744384766
1702137385663746800,15.387746826171876,-5.2918009757995605,-11.933713912963867,21.9360408782959
1702137385680739300,15.4047392578125,-3.3165054321289062,-12.658025741577148,23.47364044189453
1702137385697729800,15.421729736328125,-0.8095275163650513,-13.897820472717285,25.444595336914062
1702137385714722300,15.438722412109374,0.83875572681427,-13.75256061553955,25.98474884033203
1702137385731712500,15.45571240234375,-0.9931529760360718,-13.126325607299805,25.226123809814453
1702137385748705300,15.472705322265625,-5.149817943572998,-11.367328643798828,22.710912704467773
1702137385765695500,15.489695556640624,-8.989910125732422,-10.159544944763184,19.459747314453125
1702137385782686200,15.506686279296876,-9.456562995910645,-10.410782814025879,16.21120834350586
1702137385799678500,15.523678466796875,-5.346381664276123,-12.336236953735352,15.062320709228516
1702137385816671000,15.5406708984375,-0.6244869232177734,-14.330076217651367,17.016050338745117
1702137385833661700,15.55766162109375,2.109861373901367,-14.797773361206055,19.36114501953125
1702137385850654000,15.574654052734376,0.7598109245300293,-14.925760269165039,20.430166244506836
1702137385867644200,15.59164404296875,-1.9225497245788574,-16.744718551635742,19.002206802368164
1702137385884637000,15.608636962890625,-1.0355663299560547,-17.91116714477539,14.63033676147461
1702137385901627400,15.62562744140625,2.5255212783813477,-20.39632797241211,15.14156436920166
1702137385918619600,15.64261962890625,6.92133903503418,-20.797760009765625,16.002479553222656
1702137385935609900,15.65960986328125,11.467477798461914,-19.612743377685547,18.578601837158203
1702137385952600300,15.676600341796876,9.549949645996094,-17.806217193603516,22.555112838745117
1702137385969595400,15.693595458984374,2.1764655113220215,-18.534282684326172,31.18090057373047
1702137385986585900,15.7105859375,-2.4015989303588867,-18.391284942626953,37.31233215332031
1702137386003575800,15.727575927734375,0.30739521980285645,-17.886913299560547,40.06354522705078
1702137386020553200,15.74455322265625,5.892899513244629,-16.221555709838867,44.50313186645508
1702137386037558800,15.761558837890625,6.353122234344482,-14.955645561218262,49.163795471191406
1702137386054551600,15.778551513671875,2.6365280151367188,-14.140344619750977,52.00349807739258
1702137386071525600,15.795525634765625,0.7573730945587158,-13.716878890991211,52.12302017211914
1702137386088532000,15.812531982421875,1.3592948913574219,-16.237159729003906,54.60575485229492
1702137386105527600,15.829527587890626,2.9445252418518066,-18.709428787231445,55.66795349121094
1702137386122517500,15.846517578125,6.377676486968994,-17.587718963623047,56.08045196533203
1702137386139507700,15.8635078125,8.121842384338379,-16.99852180480957,57.68149948120117
1702137386156500000,15.8805,6.950531482696533,-17.937746047973633,55.79792022705078
1702137386173487400,15.8974873046875,5.426924705505371,-21.384227752685547,52.81025314331055
1702137386190483000,15.91448291015625,6.7199296951293945,-26.156627655029297,49.243717193603516
1702137386207473400,15.931473388671876,9.034173965454102,-32.00727081298828,46.62726593017578
1702137386224455400,15.948455322265625,10.697064399719238,-38.56161117553711,40.02714920043945
1702137386241454800,15.965454833984374,11.824686050415039,-40.92523193359375,29.151538848876953
1702137386258450400,15.982450439453125,11.094304084777832,-39.05303192138672,20.019237518310547
1702137386275427300,15.99942724609375,8.697647094726562,-33.75872802734375,14.569537162780762
1702137386292420400,16.01642041015625,4.660170078277588,-28.122453689575195,12.115878105163574
1702137386309424400,16.03342431640625,0.9585304260253906,-24.17925453186035,10.893293380737305
1702137386326414300,16.050414306640626,-0.5924091339111328,-21.156478881835938,8.918313026428223
1702137386343405000,16.067405029296875,-1.5264124870300293,-18.71067237854004,8.54490852355957
1702137386360397600,16.0843974609375,-1.4489459991455078,-16.00021743774414,8.479514122009277
1702137386377383400,16.101383544921877,0.5662050247192383,-14.419236183166504,8.25586223602295
1702137386394381000,16.118381103515624,3.3105392456054688,-12.160408020019531,7.921533584594727
1702137386411359500,16.135359375,4.350123882293701,-11.160584449768066,8.617279052734375
1702137386428364000,16.152364013671875,2.962390899658203,-11.35110092163086,10.235252380371094
1702137386445353700,16.169353759765624,-0.20377016067504883,-11.314452171325684,11.241497993469238
1702137386462346200,16.18634619140625,-1.8526155948638916,-13.27415943145752,12.476994514465332
1702137386479336200,16.203336181640626,0.9518246650695801,-14.89221477508545,11.417142868041992
1702137386496330000,16.220330078125,5.660636901855469,-15.519903182983398,10.842437744140625
1702137386513319700,16.237319580078125,8.112875938415527,-16.77417755126953,14.46163272857666
1702137386530309600,16.2543095703125,8.141214370727539,-19.599153518676758,25.72994613647461
1702137386547305000,16.271304931640625,6.243368148803711,-20.165084838867188,32.03776931762695
1702137386564295000,16.288294921875,3.021636486053467,-21.29076385498047,31.36602210998535
1702137386581285400,16.305285400390623,2.07625675201416,-23.680505752563477,26.66619873046875
1702137386598267400,16.322267333984374,5.218311309814453,-26.550901412963867,21.77894401550293
1702137386615268600,16.3392685546875,9.054245948791504,-32.401329040527344,29.094345092773438
1702137386632250400,16.35625048828125,10.153475761413574,-34.44427490234375,38.302364349365234
1702137386649261600,16.373261474609375,7.180095672607422,-31.559810638427734,37.518028259277344
1702137386666246400,16.390246337890623,2.9740865230560303,-28.662172317504883,33.90886688232422
1702137386683234000,16.407234130859376,2.389486074447632,-28.102859497070312,31.917476654052734
1702137386700226600,16.4242265625,4.642571449279785,-31.756614685058594,31.52617645263672
1702137386717217000,16.441217041015626,11.33499526977539,-33.51907730102539,35.83240509033203
1702137386734209300,16.458209228515624,17.0667724609375,-28.532665252685547,38.173736572265625
1702137386751189500,16.475189453125,13.754254341125488,-24.560108184814453,39.15920639038086
1702137386768192500,16.492192626953123,4.783140182495117,-20.14073944091797,38.455604553222656
1702137386785182000,16.509181884765624,-1.4048244953155518,-21.55333709716797,35.974308013916016
1702137386802174000,16.526174072265626,-0.2911282181739807,-15.749765396118164,28.42514419555664
1702137386819168300,16.543168212890624,4.941676139831543,-13.000177383422852,30.47777557373047
1702137386836155000,16.56015478515625,6.500400543212891,-10.655954360961914,34.22797393798828
1702137386853149700,16.577149658203126,6.4469122886657715,-7.116737365722656,31.16570281982422
1702137386870143500,16.5941435546875,5.250097751617432,-4.120526313781738,27.673614501953125
1702137386887129000,16.611129150390624,5.369675636291504,-1.580777645111084,27.275020599365234
1702137386904124200,16.628124267578126,6.381556034088135,0.7912532091140747,26.737688064575195
1702137386921117200,16.6451171875,5.665614128112793,2.372161388397217,25.176359176635742
1702137386938107100,16.662107177734374,3.6248602867126465,4.37449312210083,21.846637725830078
1702137386955097300,16.679097412109375,3.2358450889587402,5.756993293762207,17.84577178955078
1702137386972088600,16.696088623046876,3.678476095199585,6.060026168823242,15.606584548950195
1702137386989080600,16.71308056640625,4.508281707763672,5.78164005279541,13.754860877990723
1702137387006069500,16.730069580078126,4.9611897468566895,5.030524730682373,12.433144569396973
1702137387023056100,16.74705615234375,4.3661041259765625,4.829920768737793,10.897472381591797
1702137387040055800,16.764055908203126,2.799520254135132,4.583133697509766,10.086410522460938
1702137387057046000,16.7810458984375,1.2435975074768066,3.8118348121643066,8.887563705444336
1702137387074034000,16.798033935546876,0.49452030658721924,2.732590675354004,7.8218488693237305
1702137387091018500,16.8150185546875,0.33993208408355713,1.39564847946167,6.235577583312988
1702137387108019000,16.83201904296875,1.367638111114502,-0.09604668617248535,4.205007553100586
1702137387125011700,16.84901171875,2.5704941749572754,-1.6045222282409668,2.7135238647460938
1702137387142005200,16.866005126953127,2.956799030303955,-2.841947555541992,1.8557929992675781
1702137387158996500,16.88299658203125,2.426062822341919,-4.134005546569824,1.7610950469970703
1702137387175987200,16.8999873046875,2.4568393230438232,-5.013984203338623,1.3176641464233398
1702137387192977700,16.916977783203127,2.9880361557006836,-5.7639546394348145,0.6551790237426758
1702137387209970000,16.933969970703124,3.241981029510498,-6.3690266609191895,0.1611328125
1702137387226960400,16.95096044921875,2.96132755279541,-6.737608909606934,0.27248573303222656
1702137387243956700,16.967956787109376,2.6693458557128906,-6.954895496368408,0.8845386505126953
1702137387260941000,16.984941162109376,2.6175379753112793,-6.640376091003418,1.2638816833496094
1702137387277938400,17.0019384765625,3.2669453620910645,-5.950943470001221,1.4345169067382812
1702137387294926300,17.01892626953125,4.318147659301758,-5.503312110900879,1.8903999328613281
1702137387311918800,17.0359189453125,4.962153911590576,-5.247945785522461,2.078171730041504
1702137387328909000,17.052908935546874,4.9780988693237305,-5.454034805297852,1.719940185546875
1702137387345901800,17.06990185546875,5.2043776512146,-5.297386169433594,1.082228660583496
1702137387362892000,17.08689208984375,5.5522236824035645,-5.097122669219971,0.7352008819580078
1702137387379884300,17.10388427734375,6.280797004699707,-5.151708602905273,1.1699786186218262
1702137387396873200,17.120873291015624,7.004746913909912,-5.0701117515563965,1.9003701210021973
1702137387413868800,17.137868896484374,7.3380537033081055,-4.979079723358154,2.6464643478393555
1702137387430858200,17.154858154296875,7.352363586425781,-4.522599697113037,2.321474075317383
1702137387447850500,17.1718505859375,6.80899715423584,-4.132720947265625,1.089728832244873
1702137387464841000,17.188841064453126,5.583879470825195,-4.18289041519165,0.5990266799926758
1702137387481833200,17.205833251953123,4.814182758331299,-3.738992214202881,1.0983881950378418
1702137387498822000,17.22282177734375,4.298816204071045,-3.2176218032836914,2.19976806640625
1702137387515818000,17.23981787109375,4.412599563598633,-2.1363394260406494,3.3200578689575195
1702137387532796700,17.256796630859377,3.942397117614746,-0.7980194091796875,3.356086254119873
1702137387549799200,17.273799072265625,2.9599435329437256,0.19816923141479492,3.147589683532715
1702137387566776600,17.290776611328123,1.7047889232635498,1.701219081878662,3.20059871673584
1702137387583784700,17.30778466796875,-0.46262073516845703,3.758188247680664,2.6082253456115723
1702137387600772400,17.3247724609375,-2.813966751098633,6.349587917327881,1.7245073318481445
1702137387617764900,17.341764892578126,-3.6496458053588867,7.300257205963135,2.215507984161377
1702137387634755300,17.35875537109375,-2.3554320335388184,6.8141584396362305,1.0946385860443115
1702137387651747800,17.375747802734374,-0.402590274810791,6.01387882232666,-1.3403427600860596
1702137387668738600,17.392738525390627,0.6630468368530273,4.586091995239258,-2.8248085975646973
1702137387685730800,17.409730712890624,0.5005559921264648,2.695920944213867,-3.5816099643707275
1702137387702721000,17.426720947265625,-0.24542641639709473,0.4981718063354492,-3.919428825378418
1702137387719702000,17.443701904296876,-0.6096673011779785,-1.472580909729004,-4.483782768249512
1702137387736704800,17.460704833984376,-0.9756624698638916,-3.1941685676574707,-5.09649658203125
1702137387753693200,17.477693115234374,-0.7592887878417969,-4.376684188842773,-5.583242893218994
1702137387770689500,17.494689453125,-0.2148725986480713,-5.580070495605469,-5.810776710510254
1702137387787677000,17.511677001953124,0.845883846282959,-6.856225967407227,-5.64387845993042
1702137387804660000,17.528659912109376,1.9656814336776733,-7.7413649559021,-5.287861347198486
1702137387821655000,17.545655029296874,2.659238338470459,-8.504565238952637,-4.51595401763916
1702137387838645200,17.562645263671875,2.99906063079834,-9.066788673400879,-3.8876261711120605
1702137387855640000,17.57964013671875,2.8253397941589355,-9.766180038452148,-3.4625205993652344
1702137387872625700,17.596625732421874,2.32948637008667,-10.582232475280762,-3.297269105911255
1702137387889618200,17.6136181640625,1.7075597047805786,-11.587117195129395,-3.3403656482696533
1702137387906608400,17.6306083984375,1.0698719024658203,-12.798398971557617,-3.202913284301758
1702137387923612700,17.64761279296875,1.3348946571350098,-13.464765548706055,-2.9559175968170166
1702137387940601300,17.664601318359374,2.2854185104370117,-14.55012321472168,-0.8082363605499268
1702137387957593900,17.68159375,1.5837746858596802,-15.510871887207031,2.5486700534820557
1702137387974584300,17.698584228515625,-3.0271263122558594,-14.838422775268555,1.468261957168579
1702137387991576800,17.715576904296874,-5.385619163513184,-15.406068801879883,0.1903247833251953
1702137388008556800,17.732556884765625,-2.345395088195801,-16.999635696411133,4.526645660400391
1702137388025559800,17.749559814453125,-0.13155514001846313,-16.910724639892578,14.133062362670898
1702137388042549800,17.7665498046875,-4.3924970626831055,-15.281204223632812,20.677167892456055
1702137388059531800,17.78353173828125,-9.278538703918457,-13.358509063720703,19.24808120727539
1702137388076532700,17.80053271484375,-10.316390037536621,-12.339193344116211,16.11431121826172
1702137388093525500,17.817525390625,-9.065130233764648,-12.605133056640625,20.85690689086914
1702137388110516000,17.834515869140624,-9.611322402954102,-11.917251586914062,29.183555603027344
1702137388127510500,17.851510498046874,-12.851373672485352,-9.72854232788086,32.742889404296875
1702137388144496400,17.868496337890626,-14.440495491027832,-6.86617374420166,31.522808074951172
1702137388161491200,17.8854912109375,-10.544346809387207,-5.1328277587890625,31.137710571289062
1702137388178481700,17.902481689453126,-3.4603593349456787,-3.1764540672302246,33.51527404785156
1702137388195474200,17.91947412109375,1.7778191566467285,0.1795496940612793,36.93640899658203
1702137388212454100,17.9364541015625,-0.6805269718170166,3.3093273639678955,36.64742660522461
1702137388229455000,17.953455078125,-7.52977180480957,2.8081021308898926,36.94420623779297
1702137388246441200,17.970441162109374,-8.237712860107422,-2.433265209197998,40.551780700683594
1702137388263440000,17.98743994140625,-0.5765023231506348,-10.80232048034668,42.29551696777344
1702137388280435200,18.004435302734375,15.784515380859375,-19.782339096069336,42.916603088378906
1702137388297422800,18.0214228515625,26.091636657714844,-21.175853729248047,37.491943359375
1702137388314413300,18.038413330078125,22.967987060546875,-21.923175811767578,27.15715217590332
1702137388331395000,18.05539501953125,17.621719360351562,-21.81211280822754,22.927860260009766
1702137388348395800,18.072395751953124,17.824575424194336,-21.37554931640625,24.001548767089844
1702137388365388300,18.08938818359375,20.909242630004883,-20.342952728271484,22.496381759643555
1702137388382379000,18.10637890625,22.804704666137695,-16.539230346679688,18.35894012451172
1702137388399371300,18.123371337890624,20.52301788330078,-13.121930122375488,16.01643943786621
1702137388416353500,18.140353515625,15.227178573608398,-10.521927833557129,12.052994728088379
1702137388433348000,18.15734814453125,12.017952919006348,-10.06973648071289,8.43216323852539
1702137388450348300,18.174348388671874,12.79427719116211,-9.7915678024292,7.998532295227051
1702137388467334700,18.191334716796874,12.368447303771973,-10.644462585449219,10.822124481201172
1702137388484330500,18.20833056640625,12.954649925231934,-10.940071105957031,12.183694839477539
1702137388501317400,18.2253173828125,11.160171508789062,-9.99688720703125,13.619293212890625
1702137388518313000,18.24231298828125,6.448096752166748,-7.868281364440918,14.451114654541016
1702137388535303200,18.25930322265625,0.23547953367233276,-5.369217872619629,17.364421844482422
1702137388552282600,18.27628271484375,-4.94132661819458,-5.34341287612915,23.74224090576172
1702137388569285600,18.29328564453125,-6.679235458374023,-7.617522239685059,27.7916316986084
1702137388586272500,18.3102724609375,-5.0206403732299805,-9.303257942199707,26.706130981445312
1702137388603274000,18.32727392578125,-1.6643987894058228,-9.300945281982422,24.44298553466797
1702137388620247000,18.3442470703125,0.3303639888763428,-9.401288986206055,23.501544952392578
1702137388637251300,18.361251220703124,-0.383375883102417,-10.523174285888672,25.554943084716797
1702137388654241800,18.37824169921875,-3.0876264572143555,-11.532974243164062,27.540891647338867
1702137388671225900,18.395225830078125,-7.076883316040039,-11.955841064453125,24.560531616210938
1702137388688224800,18.412224853515625,-8.636981964111328,-13.772873878479004,19.45088005065918
1702137388705217000,18.429217041015626,-5.721865653991699,-15.771594047546387,12.61013126373291
1702137388722207700,18.446207763671875,0.05797767639160156,-16.735595703125,6.948592185974121
1702137388739200300,18.4632001953125,4.925196647644043,-15.415082931518555,7.445497512817383
1702137388756190700,18.480190673828126,4.161652565002441,-15.146631240844727,15.819011688232422
1702137388773183000,18.497182861328124,-2.015068531036377,-13.812007904052734,20.190061569213867
1702137388790173400,18.51417333984375,-10.51556396484375,-15.331003189086914,16.59897232055664
1702137388807148800,18.531148681640627,-10.35693359375,-21.740997314453125,10.401820182800293
1702137388824159000,18.548158935546876,4.0858540534973145,-22.86874771118164,7.933601379394531
1702137388841149000,18.56514892578125,14.79725456237793,-19.526872634887695,12.976346015930176
1702137388858142700,18.582142822265624,12.609858512878418,-16.97079086303711,22.95353126525879
1702137388875129000,18.599129150390624,1.2760738134384155,-15.37003231048584,27.286720275878906
1702137388892117500,18.616117431640625,-6.527963161468506,-15.985532760620117,27.811433792114258
1702137388909108200,18.633108154296874,0.09885668754577637,-17.6220703125,33.38374710083008
1702137388926094800,18.6500947265625,11.660737991333008,-15.101785659790039,40.051734924316406
1702137388943087000,18.667087158203124,15.652122497558594,-11.716075897216797,42.79289245605469
1702137388960078600,18.68407861328125,6.270732879638672,-7.840880870819092,37.665584564208984
1702137388977072400,18.701072265625,-6.101446151733398,-7.26178503036499,37.373069763183594
1702137388994063400,18.7180634765625,-6.324838638305664,-8.945769309997559,45.91645812988281
1702137389011052300,18.73505224609375,0.2730901837348938,-11.020938873291016,55.362159729003906
1702137389028046000,18.752046142578124,2.469332456588745,-10.735504150390625,54.65760803222656
1702137389045036300,18.769036376953125,-0.7823630571365356,-12.36337661743164,51.260982513427734
1702137389062026000,18.78602587890625,0.34398555755615234,-14.434120178222656,50.11174011230469
1702137389079021000,18.80302099609375,2.825424909591675,-16.965940475463867,52.6689453125
1702137389096017200,18.82001708984375,2.3027069568634033,-19.212364196777344,58.71141052246094
1702137389113002200,18.837002197265626,-1.7176356315612793,-23.945087432861328,55.143638610839844
1702137389129994000,18.853993896484376,1.5560622215270996,-34.52880859375,46.804046630859375
1702137389146983400,18.8709833984375,16.675460815429688,-42.427398681640625,38.666831970214844
1702137389163988700,18.88798876953125,27.274438858032227,-39.87679672241211,31.143186569213867
1702137389180977700,18.904977783203126,24.071739196777344,-34.387935638427734,26.417219161987305
1702137389197968000,18.9219677734375,15.574129104614258,-29.984596252441406,21.848190307617188
1702137389214954800,18.938954833984376,6.789117336273193,-26.94524383544922,18.058029174804688
1702137389231948000,18.955947998046874,1.3793535232543945,-25.65995979309082,14.13631820678711
1702137389248943000,18.972943115234376,2.017760753631592,-24.248754501342773,10.344210624694824
1702137389265925600,18.989925537109375,4.329000473022461,-21.98048210144043,8.661426544189453
1702137389282925300,19.00692529296875,5.9001922607421875,-19.590328216552734,8.70008373260498
1702137389299917300,19.023917236328124,5.337080955505371,-17.59183692932129,9.463846206665039
1702137389316905000,19.040905029296876,4.216380596160889,-15.73043441772461,10.162773132324219
1702137389333899300,19.057899169921875,3.9505081176757812,-13.987987518310547,11.37582778930664
1702137389350891800,19.074891845703124,4.857858180999756,-13.391608238220215,15.522117614746094
1702137389367885300,19.09188525390625,6.604206562042236,-13.037883758544922,20.3518123626709
1702137389384871700,19.10887158203125,8.071799278259277,-11.997184753417969,21.066234588623047
1702137389401863400,19.125863525390624,7.248879909515381,-11.61912727355957,21.313446044921875
1702137389418848500,19.1428486328125,2.1734302043914795,-12.20754623413086,23.21930694580078
1702137389435848000,19.159847900390623,-3.2312171459198,-13.244300842285156,24.78895378112793
1702137389452830500,19.17683056640625,-3.0061583518981934,-16.269804000854492,28.426525115966797
1702137389469825300,19.1938251953125,3.444736957550049,-18.54629898071289,29.95534896850586
1702137389486823200,19.2108232421875,9.386297225952148,-20.498273849487305,29.541397094726562
1702137389503816000,19.22781591796875,11.853547096252441,-23.422224044799805,30.733903884887695
1702137389520806100,19.24480615234375,10.196503639221191,-25.102333068847656,35.08099365234375
1702137389537796600,19.261796630859376,4.808017730712891,-24.601194381713867,34.40851974487305
1702137389554789000,19.2787890625,4.554125785827637,-23.326541900634766,33.186744689941406
1702137389571779300,19.295779296875,6.9656829833984375,-25.476383209228516,38.15703201293945
1702137389588771800,19.312771728515624,10.49566650390625,-26.54416275024414,43.206207275390625
1702137389605762000,19.329761962890625,11.182304382324219,-24.957477569580078,43.18965148925781
1702137389622754800,19.3467548828125,6.436129570007324,-22.606719970703125,42.06578063964844
1702137389639745000,19.3637451171875,-1.3568974733352661,-21.73967742919922,40.518741607666016
1702137389656736000,19.380736083984374,-3.988326072692871,-20.148731231689453,38.1851806640625
1702137389673728000,19.39772802734375,-1.3891575336456299,-18.954132080078125,38.62513732910156
1702137389690720300,19.41472021484375,2.4470677375793457,-16.801292419433594,39.7268180847168
1702137389707700500,19.431700439453124,3.6719634532928467,-13.693463325500488,35.41321563720703
1702137389724703200,19.448703125,3.903407096862793,-9.647394180297852,29.237764358520508
1702137389741693400,19.465693359375,4.8304853439331055,-8.118558883666992,30.96352767944336
1702137389758686200,19.482686279296875,3.257063150405884,-5.873254776000977,34.91710662841797
1702137389775676700,19.4996767578125,1.0353522300720215,-2.8422818183898926,32.82295227050781
1702137389792658400,19.516658447265623,5.093489170074463,1.4905414581298828,24.21196746826172
1702137389809659400,19.533659423828126,7.909820079803467,4.093121528625488,22.331100463867188
1702137389826652000,19.55065185546875,4.390796661376953,5.663715839385986,23.868438720703125
1702137389843642000,19.56764208984375,-1.077160358428955,6.473019599914551,22.778717041015625
1702137389860634600,19.584634521484375,-1.8659298419952393,6.704071521759033,18.780963897705078
1702137389877625000,19.601625,2.0245556831359863,6.486863136291504,14.87662410736084
1702137389894617600,19.61861767578125,6.559051036834717,6.688109397888184,11.533578872680664
1702137389911608000,19.635608154296875,8.155182838439941,5.951022148132324,9.838265419006348
1702137389928598000,19.652597900390624,6.300368785858154,4.946255207061768,8.464068412780762
1702137389945593600,19.669593505859375,3.1652727127075195,3.8475182056427,7.48574161529541
1702137389962583300,19.686583251953124,0.6335060000419617,2.5000696182250977,6.629061698913574
1702137389979574000,19.703573974609377,-0.5943166017532349,1.3411917686462402,5.769445419311523
1702137389996566300,19.720566162109375,-0.3921886682510376,0.08784925937652588,5.328438758850098
1702137390013556500,19.737556396484376,0.8701519966125488,-1.664038896560669,4.971382141113281
1702137390030551000,19.754551025390626,2.3326494693756104,-3.3298301696777344,3.9527320861816406
1702137390047538000,19.771537841796874,2.2707979679107666,-3.99544620513916,2.0658912658691406
1702137390064532000,19.788531982421876,0.868263840675354,-4.531239032745361,0.5431957244873047
1702137390081522200,19.805522216796874,0.5656960010528564,-4.572906970977783,-0.045833587646484375
1702137390098515000,19.822514892578123,1.5847082138061523,-4.213197708129883,-0.1710958480834961
1702137390115505200,19.839505126953124,3.0264594554901123,-3.921931743621826,0.3843545913696289
1702137390132497700,19.85649755859375,3.5942468643188477,-3.7506015300750732,0.8134651184082031
1702137390149488000,19.873488037109375,3.5590529441833496,-3.7154853343963623,-0.10414791107177734
1702137390166480600,19.890480712890625,2.829225540161133,-2.881197929382324,-1.1974482536315918
1702137390183460400,19.90746044921875,2.0859920978546143,-3.258361577987671,0.07225799560546875
1702137390200463400,19.92446337890625,4.1871442794799805,-3.3172683715820312,2.6940841674804688
1702137390217453600,19.94145361328125,6.652718544006348,-3.486349105834961,4.076495170593262
1702137390234450000,19.958449951171875,7.709909439086914,-3.7843213081359863,3.702723503112793
1702137390251434000,19.97543408203125,7.1466064453125,-4.244907855987549,1.672006607055664
1702137390268429300,19.99242919921875,6.201539039611816,-3.8368377685546875,-0.6355724334716797
1702137390285419300,20.009419189453126,4.869173526763916,-3.0805983543395996,-0.05506610870361328
1702137390302412300,20.026412353515624,2.951231002807617,-2.794753313064575,2.594355583190918
1702137390319402200,20.04340234375,2.2199583053588867,-3.101247787475586,6.104893684387207
1702137390336405500,20.060405517578126,3.86674165725708,-3.035069465637207,6.357960224151611
1702137390353383000,20.0773828125,5.51187801361084,-2.1997768878936768,3.868462085723877
1702137390370380300,20.09438037109375,3.590463161468506,-0.9357361793518066,2.625321865081787
1702137390387368200,20.1113681640625,-0.9195337295532227,-0.7170538902282715,3.1446709632873535
1702137390404360700,20.128360595703125,-1.545496940612793,-1.0415902137756348,5.011861801147461
1702137390421351000,20.145350830078126,4.152848243713379,-0.03226041793823242,5.352980613708496
1702137390438343700,20.16234375,8.570026397705078,1.714066505432129,2.780031204223633
1702137390455331300,20.179331298828124,4.855376243591309,2.5914363861083984,-0.8565793037414551
1702137390472329000,20.196328857421875,-1.222639560699463,2.244874954223633,-3.2015233039855957
1702137390489316600,20.213316650390624,-2.899606704711914,1.4665679931640625,-3.966951847076416
1702137390506309400,20.230309326171874,-0.1278829574584961,0.8546915054321289,-4.180276393890381
1702137390523299300,20.24729931640625,2.6671197414398193,0.15642070770263672,-3.800140619277954
1702137390540292000,20.2642919921875,3.270644187927246,-0.5033154487609863,-3.392439365386963
1702137390557282300,20.2812822265625,2.230649709701538,-1.3827319145202637,-3.391254425048828
1702137390574265300,20.298265380859377,1.248960256576538,-1.8964509963989258,-4.346644878387451
1702137390591255300,20.31525537109375,0.25739097595214844,-2.4850053787231445,-5.17889928817749
1702137390608255500,20.33225537109375,-0.01799297332763672,-3.7457289695739746,-5.079645156860352
1702137390625248300,20.349248291015623,1.4548790454864502,-5.185850620269775,-3.949476718902588
1702137390642240500,20.366240478515625,3.6245875358581543,-6.0968427658081055,-3.2689552307128906
1702137390659221000,20.383220947265624,4.607109546661377,-6.883633613586426,-3.367708921432495
1702137390676223700,20.4002236328125,4.375457763671875,-7.359350204467773,-4.023726940155029
1702137390693214000,20.4172138671875,3.049375534057617,-8.16159439086914,-4.76448917388916
1702137390710206200,20.434206298828126,1.95057213306427,-9.350611686706543,-5.151633262634277
1702137390727196700,20.45119677734375,1.5108954906463623,-10.781929016113281,-3.9788336753845215
1702137390744189000,20.46818896484375,1.7978284358978271,-12.192119598388672,-2.1590425968170166
1702137390761179400,20.485179443359375,2.594141960144043,-12.937104225158691,-1.6731398105621338
1702137390778169300,20.50216943359375,3.3946797847747803,-13.065242767333984,-2.266505002975464
1702137390795165000,20.5191650390625,1.4087638854980469,-13.330945014953613,-3.1756067276000977
1702137390812142600,20.536142578125,-2.0385384559631348,-14.02164077758789,-2.3283016681671143
1702137390829141500,20.5531416015625,-4.3831987380981445,-15.144072532653809,0.05086469650268555
1702137390846141700,20.5701416015625,-3.6812214851379395,-16.59693717956543,4.049861907958984
1702137390863128300,20.58712841796875,-2.4799184799194336,-17.672576904296875,8.367837905883789
1702137390880120800,20.604120849609377,-3.745068073272705,-17.497886657714844,10.879911422729492
1702137390897110800,20.62111083984375,-7.154908657073975,-16.42211151123047,13.19454574584961
1702137390914103300,20.638103271484376,-10.793739318847656,-15.115314483642578,18.691333770751953
1702137390931095600,20.655095458984373,-14.11754322052002,-14.155698776245117,24.570411682128906
1702137390948085000,20.6720849609375,-15.992478370666504,-12.749349594116211,25.95065689086914
1702137390965076500,20.689076416015624,-16.491153717041016,-12.728826522827148,24.718032836914062
1702137390982068700,20.70606884765625,-15.961319923400879,-14.471512794494629,24.900665283203125
1702137390999054000,20.72305419921875,-14.351208686828613,-16.600374221801758,26.54828453063965
1702137391016052000,20.740052001953124,-10.184818267822266,-17.693042755126953,29.982749938964844
1702137391033042400,20.75704248046875,-4.934671401977539,-16.25640296936035,31.476932525634766
1702137391050035000,20.774034912109375,-1.209959864616394,-14.698322296142578,30.807147979736328
1702137391067025200,20.791025146484376,2.7171289920806885,-13.68826675415039,31.474895477294922
1702137391084018000,20.808017822265626,5.631328105926514,-13.055135726928711,31.641096115112305
1702137391101008100,20.825008056640623,7.964507102966309,-13.113414764404297,30.44314193725586
1702137391118000400,20.84200048828125,9.955812454223633,-13.959768295288086,29.346786499023438
1702137391134990800,20.858990966796874,11.014984130859375,-15.061504364013672,26.68855857849121
1702137391151983400,20.8759833984375,10.82126235961914,-16.11968231201172,24.764114379882812
1702137391168973600,20.8929736328125,12.15778923034668,-16.511953353881836,23.552791595458984
1702137391185970700,20.909970703125,11.182053565979004,-17.28684425354004,24.203357696533203
1702137391202955300,20.926955322265623,8.833717346191406,-18.24781608581543,24.832265853881836
1702137391219950000,20.9439501953125,7.363455772399902,-18.92373275756836,24.10386085510254
1702137391236939300,20.960939208984374,8.829627990722656,-18.63232421875,21.793018341064453
1702137391253929500,20.977929443359375,9.923624038696289,-15.236652374267578,19.193384170532227
1702137391270924800,20.9949248046875,9.174226760864258,-13.622967720031738,18.371870040893555
1702137391287915000,21.0119150390625,8.466730117797852,-11.565275192260742,15.575309753417969
1702137391304893400,21.0288935546875,10.550512313842773,-11.169797897338867,13.323502540588379
1702137391321887700,21.0458876953125,11.591180801391602,-9.905292510986328,10.47357177734375
1702137391338880500,21.062880615234373,8.122303009033203,-11.255463600158691,10.778169631958008
1702137391355873000,21.079873046875,5.631638526916504,-11.885489463806152,10.414301872253418
1702137391372860400,21.0968603515625,3.6976165771484375,-11.695707321166992,10.857287406921387
1702137391389852400,21.113852294921877,2.170588493347168,-11.517663955688477,14.126873016357422
1702137391406843600,21.13084375,-1.368736982345581,-10.885161399841309,17.925437927246094
1702137391423848400,21.147848388671875,-6.4449462890625,-9.604544639587402,19.098339080810547
1702137391440834000,21.164833984375,-10.899295806884766,-9.394437789916992,19.158153533935547
1702137391457831400,21.18183154296875,-11.909728050231934,-9.974123001098633,18.660451889038086
1702137391474819300,21.1988193359375,-8.253198623657227,-10.554498672485352,18.87293243408203
1702137391491811800,21.215811767578124,-3.7022361755371094,-9.90519905090332,19.685821533203125
1702137391508802000,21.232802001953125,-1.1681227684020996,-9.002303123474121,20.566959381103516
1702137391525794600,21.249794677734375,-1.0495831966400146,-8.066225051879883,20.390090942382812
1702137391542785300,21.266785400390624,-2.9354066848754883,-7.278604507446289,18.26348114013672
1702137391559777500,21.283777587890626,-3.888383150100708,-7.753441333770752,15.689239501953125
1702137391576767700,21.300767822265627,-1.5968799591064453,-8.851773262023926,14.582859992980957
1702137391593760500,21.317760498046876,1.703702449798584,-10.768003463745117,16.687612533569336
1702137391610750700,21.334750732421874,6.5438642501831055,-10.161053657531738,18.510068893432617
1702137391627743000,21.351742919921875,6.5967841148376465,-9.948854446411133,18.66238021850586
1702137391644733400,21.3687333984375,3.438164710998535,-9.630730628967285,17.77599334716797
1702137391661715500,21.385715576171876,0.9392108917236328,-10.058552742004395,17.43701934814453
1702137391678716200,21.402716064453124,0.32785654067993164,-12.936262130737305,20.65497398376465
1702137391695709000,21.419708984375,0.8724861145019531,-15.396045684814453,20.598358154296875
1702137391712699100,21.43669921875,4.402719974517822,-15.259759902954102,15.023229598999023
1702137391729691600,21.453691650390624,5.657235622406006,-15.616094589233398,12.855560302734375
1702137391746682000,21.47068212890625,4.035439491271973,-19.279117584228516,22.29743194580078
1702137391763674400,21.48767431640625,3.7756237983703613,-21.10404396057129,35.520851135253906
1702137391780664300,21.504664306640624,6.555319786071777,-20.098896026611328,42.84762191772461
1702137391797658000,21.521658203125,10.373326301574707,-15.9403657913208,45.7729606628418
1702137391814647800,21.538647705078127,8.9832181930542,-13.1393404006958,49.873634338378906
1702137391831637200,21.55563720703125,3.1941123008728027,-12.294061660766602,48.918113708496094
1702137391848628000,21.5726279296875,-0.8431422710418701,-14.203409194946289,50.00617218017578
1702137391865625600,21.58962548828125,-1.2950677871704102,-16.678546905517578,58.46721649169922
1702137391882613500,21.606613525390625,0.6989184021949768,-17.858230590820312,64.25421905517578
1702137391899606000,21.62360595703125,3.525211811065674,-20.060945510864258,64.05442810058594
1702137391916596200,21.64059619140625,7.081458568572998,-24.10874366760254,63.79310607910156
1702137391933588700,21.657588623046873,9.445577621459961,-25.53268051147461,57.83686447143555
1702137391950579200,21.6745791015625,13.668617248535156,-27.972925186157227,51.98334503173828
1702137391967571500,21.691571533203124,17.835134506225586,-29.847068786621094,48.57551574707031
1702137391984562000,21.70856201171875,15.996559143066406,-31.007841110229492,44.629554748535156
