time,seconds_elapsed,z,y,x
1702137284360373200,0.023373291015625,0.22322702407836914,0.30690479278564453,0.2432185411453247
1702137284436836000,0.099836181640625,-0.4447903633117676,0.27019166946411133,0.21052634716033936
1702137284453826300,0.116826416015625,-0.4911322593688965,0.47687530517578125,0.3566269874572754
1702137284470818600,0.133818603515625,-0.38915395736694336,0.3807191848754883,0.3617668151855469
1702137284487806200,0.15080615234375,-0.3830094337463379,0.3204207420349121,0.005262494087219238
1702137284504802000,0.167802001953125,-0.22983503341674805,-0.0029191970825195312,-0.07539951801300049
1702137284521791700,0.184791748046875,0.07815694808959961,0.12336158752441406,-0.14846813678741455
1702137284538786300,0.201786376953125,0.3299984931945801,0.038910865783691406,-0.10664224624633789
1702137284555772000,0.21877197265625,-0.08543062210083008,-0.11223649978637695,-0.05808568000793457
1702137284572767500,0.235767578125,-0.8109116554260254,-0.3914923667907715,0.040323853492736816
1702137284589759700,0.252759765625,-1.7253150939941406,-0.326937198638916,0.16117048263549805
1702137284606748700,0.269748779296875,-2.0612573623657227,-0.535923957824707,0.20362567901611328
1702137284623742000,0.286741943359375,-2.2041516304016113,-0.9575352668762207,0.07620859146118164
1702137284640734000,0.30373388671875,-2.007863998413086,-1.4694247245788574,-0.37536823749542236
1702137284657723000,0.320722900390625,-2.3414273262023926,-1.8532376289367676,-0.6260644793510437
1702137284674718200,0.33771826171875,-3.0070841312408447,-1.8130321502685547,-0.5018543004989624
1702137284691705600,0.35470556640625,-2.9917244911193848,-1.7336254119873047,-0.316133975982666
1702137284708703700,0.371703857421875,-3.4115171432495117,-2.200122356414795,-0.15295958518981934
1702137284725689000,0.388689208984375,-3.818925142288208,-2.0659728050231934,-0.08591234683990479
1702137284742684000,0.405683837890625,-3.9416887760162354,-2.3072214126586914,-0.7627038955688477
1702137284759675600,0.422675537109375,-4.136972427368164,-2.878931760787964,-0.943579912185669
1702137284776673500,0.439673583984375,-3.9556689262390137,-3.0497236251831055,-1.121785283088684
1702137284793655800,0.45665576171875,-4.060235023498535,-3.61569881439209,-0.9173974990844727
1702137284810655500,0.473655517578125,-4.319920539855957,-4.233418941497803,-1.2664604187011719
1702137284827636000,0.490635986328125,-5.0359344482421875,-4.757431983947754,-1.743587851524353
1702137284844633300,0.50763330078125,-4.7231926918029785,-4.755625247955322,-2.18343448638916
1702137284861627000,0.524626953125,-4.671722888946533,-5.198359489440918,-1.9105699062347412
1702137284878615000,0.541614990234375,-3.171360969543457,-5.551145076751709,-0.5460653305053711
1702137284895612000,0.55861181640625,-3.6783032417297363,-5.508714199066162,0.1759650707244873
1702137284912602600,0.5756025390625,-4.744134902954102,-6.019928932189941,0.05356264114379883
1702137284929591600,0.592591552734375,-4.281423091888428,-6.368495941162109,-0.1624908447265625
1702137284946573800,0.60957373046875,-4.4332733154296875,-7.011871814727783,0.603546142578125
1702137284963575300,0.6265751953125,-3.811781883239746,-8.084709167480469,3.353175640106201
1702137284980570000,0.643570068359375,-1.2267217636108398,-7.7334513664245605,6.3911285400390625
1702137284997554200,0.66055419921875,-0.760094165802002,-7.037609100341797,7.698401927947998
1702137285014550300,0.67755029296875,-3.373262405395508,-6.302791118621826,9.064107894897461
1702137285031539500,0.69453955078125,-6.527890682220459,-6.9074554443359375,12.218109130859375
1702137285048531500,0.711531494140625,-6.7689409255981445,-7.176218509674072,16.484024047851562
1702137285065523200,0.728523193359375,-4.864652633666992,-6.278408527374268,20.361499786376953
1702137285082516000,0.745515869140625,-6.604585647583008,-5.437544822692871,20.900867462158203
1702137285099507500,0.762507568359375,-7.332430839538574,-5.235848426818848,19.835968017578125
1702137285116489500,0.779489501953125,-5.177972793579102,-5.090875148773193,18.800304412841797
1702137285133489700,0.79648974609375,-1.7047173976898193,-4.047987937927246,18.944515228271484
1702137285150484500,0.813484375,-0.6535501480102539,-3.136538028717041,20.5696964263916
1702137285167469800,0.8304697265625,-0.9797430038452148,-2.613278865814209,22.56869125366211
1702137285184466200,0.847466064453125,-0.9188536405563354,-2.8045859336853027,23.92333984375
1702137285201455600,0.86445556640625,0.19437140226364136,-2.992330312728882,24.302810668945312
1702137285218450400,0.881450439453125,1.2089054584503174,-3.871155261993408,24.691070556640625
1702137285235429000,0.89842919921875,2.270085334777832,-5.341285228729248,25.249610900878906
1702137285252431600,0.915431640625,4.991742134094238,-7.406070232391357,25.180620193481445
1702137285269424000,0.932424072265625,8.093172073364258,-9.326092720031738,24.21068572998047
1702137285286412800,0.949412841796875,10.193954467773438,-10.599335670471191,22.669490814208984
1702137285303405300,0.9664052734375,10.840184211730957,-12.2866792678833,22.10576629638672
1702137285320399600,0.983399658203125,11.222984313964844,-13.774384498596191,21.889144897460938
1702137285337386200,1.00038623046875,13.310277938842773,-15.13061237335205,21.523380279541016
1702137285354382300,1.01738232421875,16.965858459472656,-15.73823356628418,21.612529754638672
1702137285371371800,1.034371826171875,17.63180923461914,-15.277437210083008,20.505617141723633
1702137285388366000,1.051365966796875,15.343324661254883,-14.418113708496094,18.132957458496094
1702137285405352700,1.068352783203125,13.635787963867188,-13.279959678649902,16.21449851989746
1702137285422348000,1.08534814453125,13.322751998901367,-11.821395874023438,15.791951179504395
1702137285439339800,1.10233984375,13.04776382446289,-10.161575317382812,15.617777824401855
1702137285456328400,1.119328369140625,12.824041366577148,-7.768125534057617,13.02511215209961
1702137285473321200,1.1363212890625,11.717071533203125,-5.251164436340332,9.7335205078125
1702137285490314800,1.153314697265625,11.27550983428955,-3.3410239219665527,8.474302291870117
1702137285507295700,1.170295654296875,12.078933715820312,-2.6236801147460938,8.757600784301758
1702137285524298200,1.18729833984375,12.492029190063477,-2.375983715057373,9.01107120513916
1702137285541288000,1.204287841796875,10.976499557495117,-2.1929781436920166,8.603813171386719
1702137285558280000,1.221280029296875,9.16773796081543,-2.5787601470947266,9.547876358032227
1702137285575271000,1.23827099609375,7.4250946044921875,-3.9314780235290527,11.901281356811523
1702137285592263700,1.255263671875,7.118280410766602,-5.649695873260498,14.101881980895996
1702137285609241300,1.272241455078125,6.9870405197143555,-6.581000328063965,16.1628360748291
1702137285626244900,1.289244873046875,4.4457902908325195,-6.530999183654785,18.078975677490234
1702137285643237000,1.306237060546875,-1.0443992614746094,-8.117801666259766,18.39471435546875
1702137285660221700,1.3232216796875,-4.236896514892578,-7.382082939147949,18.825164794921875
1702137285677215500,1.340215576171875,-5.19932222366333,-7.9648661613464355,15.936532974243164
1702137285694217200,1.35721728515625,-1.2121777534484863,-10.166888236999512,14.231302261352539
1702137285711203600,1.37420361328125,3.5825843811035156,-10.78795051574707,12.634437561035156
1702137285728198400,1.391198486328125,8.896661758422852,-8.943464279174805,8.8646240234375
1702137285745183200,1.408183349609375,8.335988998413086,-6.759706974029541,6.370871543884277
1702137285762194000,1.42519384765625,3.349555015563965,-6.707774639129639,5.06588077545166
1702137285779165400,1.44216552734375,-0.7243766784667969,-9.58871841430664,4.438668727874756
1702137285796162800,1.459162841796875,-1.9717369079589844,-14.048242568969727,3.6571340560913086
1702137285813159700,1.47615966796875,0.1172938346862793,-19.17137336730957,5.164132595062256
1702137285830149000,1.493149169921875,4.421376705169678,-20.914623260498047,5.379211902618408
1702137285847136500,1.510136474609375,9.32750129699707,-20.629404067993164,5.662624835968018
1702137285864130800,1.527130859375,9.740818977355957,-21.111244201660156,11.704463005065918
1702137285881120000,1.5441201171875,8.129488945007324,-18.559053421020508,18.407472610473633
1702137285898114600,1.561114501953125,5.366946220397949,-15.650421142578125,19.835302352905273
1702137285915092000,1.578092041015625,1.5634442567825317,-14.732688903808594,18.511192321777344
1702137285932095700,1.595095703125,-0.7406997680664062,-16.575519561767578,21.588947296142578
1702137285949085700,1.612085693359375,-0.1210932731628418,-18.10710334777832,26.20093536376953
1702137285966079500,1.62907958984375,2.7124838829040527,-17.73390007019043,29.55797004699707
1702137285983069200,1.646069091796875,4.027045726776123,-16.002042770385742,30.077312469482422
1702137286000058000,1.66305810546875,1.8986382484436035,-14.111062049865723,31.53473663330078
1702137286017043500,1.68004345703125,-2.481860637664795,-12.378501892089844,34.906272888183594
1702137286034045200,1.697045166015625,-7.001592636108398,-13.891321182250977,39.15080642700195
1702137286051037200,1.714037109375,-5.4831719398498535,-17.44734764099121,43.93586349487305
1702137286068027600,1.731027587890625,1.9478545188903809,-21.14881134033203,46.86888122558594
1702137286085022200,1.748022216796875,9.40896987915039,-23.3232364654541,49.15715789794922
1702137286102009300,1.76500927734375,10.17098617553711,-24.474315643310547,49.454437255859375
1702137286119004000,1.78200390625,9.52028751373291,-25.558414459228516,47.93776321411133
1702137286135992600,1.79899267578125,12.515057563781738,-27.765439987182617,46.559627532958984
1702137286152985600,1.815985595703125,17.67359733581543,-28.986356735229492,42.62855529785156
1702137286169980200,1.832980224609375,22.154678344726562,-29.26163101196289,38.337860107421875
1702137286186966000,1.849966064453125,24.48215103149414,-28.416109085083008,34.49937438964844
1702137286203962000,1.866962158203125,23.008447647094727,-26.289066314697266,28.710041046142578
1702137286220949800,1.88394970703125,18.69376564025879,-24.629108428955078,25.531511306762695
1702137286237949000,1.900948974609375,14.085458755493164,-23.67586898803711,24.961414337158203
1702137286254936600,1.9179365234375,9.103206634521484,-23.253252029418945,24.637042999267578
1702137286271928300,1.93492822265625,4.864617824554443,-23.450756072998047,22.400352478027344
1702137286288916000,1.951916015625,3.757941722869873,-24.306533813476562,17.705726623535156
1702137286305910000,1.968909912109375,5.866659164428711,-23.445466995239258,13.972391128540039
1702137286322899700,1.985899658203125,7.181605339050293,-22.658084869384766,14.651412963867188
1702137286339897600,2.002897705078125,6.235078811645508,-21.114782333374023,14.823945045471191
1702137286356882200,2.019882080078125,3.2630667686462402,-19.193981170654297,13.637298583984375
1702137286373876000,2.0368759765625,1.441812515258789,-18.226863861083984,12.686781883239746
1702137286390864600,2.05386474609375,2.4330883026123047,-16.843460083007812,13.43661880493164
1702137286407859000,2.07085888671875,4.011025905609131,-16.099979400634766,16.531309127807617
1702137286424852000,2.08785205078125,6.6470465660095215,-16.63197135925293,20.450063705444336
1702137286441834000,2.104833984375,9.802116394042969,-16.87285041809082,21.89263153076172
1702137286458836500,2.12183642578125,8.927217483520508,-17.258085250854492,22.046398162841797
1702137286475822000,2.138822021484375,5.345113277435303,-18.394556045532227,22.885122299194336
1702137286492820000,2.155820068359375,3.8928449153900146,-18.99894142150879,23.547924041748047
1702137286509812000,2.17281201171875,3.727231502532959,-20.996248245239258,24.762157440185547
1702137286526798000,2.189798095703125,4.546205520629883,-24.376827239990234,28.331981658935547
1702137286543794200,2.206794189453125,6.682802200317383,-26.765073776245117,34.11617660522461
1702137286560784400,2.223784423828125,10.570061683654785,-26.140094757080078,34.46953201293945
1702137286577774800,2.24077490234375,9.75879192352295,-24.3903865814209,33.26301956176758
1702137286594767600,2.257767578125,2.1705336570739746,-28.666885375976562,32.73157501220703
1702137286611759900,2.274759765625,2.1028432846069336,-29.050540924072266,29.219085693359375
1702137286628752100,2.291752197265625,5.846055507659912,-30.299259185791016,35.7362174987793
1702137286645740500,2.308740478515625,7.126910209655762,-26.879127502441406,39.275390625
1702137286662722800,2.325722900390625,5.023041248321533,-26.598709106445312,42.90694808959961
1702137286679717000,2.342717041015625,5.367420196533203,-24.222187042236328,44.96978759765625
1702137286696714000,2.3597138671875,3.7039878368377686,-18.671358108520508,42.80811309814453
1702137286713700000,2.3767001953125,-1.7060027122497559,-13.95869255065918,40.066932678222656
1702137286730700000,2.393699951171875,-3.6790153980255127,-12.043672561645508,37.504112243652344
1702137286747690500,2.4106904296875,0.03852987289428711,-8.720755577087402,35.80781555175781
1702137286764684300,2.427684326171875,1.8931238651275635,-5.147965431213379,35.74267578125
1702137286781675800,2.44467578125,0.739650309085846,-3.043562889099121,35.123497009277344
1702137286798667800,2.461667724609375,-2.294907331466675,-2.0039613246917725,32.57490539550781
1702137286815656700,2.47865673828125,-2.93953800201416,1.7392423152923584,27.757169723510742
1702137286832649500,2.4956494140625,-3.8015997409820557,5.00280237197876,26.901134490966797
1702137286849644300,2.512644287109375,-4.601141929626465,5.086404800415039,25.508865356445312
1702137286866629400,2.52962939453125,-3.16646409034729,4.154425621032715,20.809612274169922
1702137286883615700,2.54661572265625,0.7519934177398682,3.810110569000244,16.540739059448242
1702137286900616200,2.5636162109375,3.322357654571533,3.8494253158569336,14.249716758728027
1702137286917609700,2.580609619140625,1.1700119972229004,4.783289432525635,12.1618070602417
1702137286934598000,2.597597900390625,-2.841979503631592,4.968865394592285,10.552271842956543
1702137286951591700,2.614591796875,-4.551748275756836,5.342226982116699,8.651372909545898
1702137286968581000,2.6315810546875,-4.097908020019531,5.159060955047607,6.6802473068237305
1702137286985576000,2.648575927734375,-2.487107515335083,4.55650520324707,5.0458574295043945
1702137287002565400,2.6655654296875,-0.024067968130111694,3.8701577186584473,4.032647132873535
1702137287019560000,2.682559814453125,1.5946687459945679,3.213531255722046,3.24855899810791
1702137287036546600,2.699546630859375,0.5489413142204285,2.848921298980713,2.927511215209961
1702137287053541600,2.716541748046875,-3.069277763366699,2.169980764389038,2.536807060241699
1702137287070533000,2.733533203125,-4.034848690032959,1.8449232578277588,1.883016586303711
1702137287087520300,2.750520263671875,-2.2552340030670166,2.062063217163086,1.2175712585449219
1702137287104517600,2.767517578125,-0.14396792650222778,1.861467719078064,1.620427131652832
1702137287121518800,2.784518798828125,1.2046808004379272,1.5886213779449463,2.757152557373047
1702137287138499800,2.801499755859375,1.5143687725067139,1.2062609195709229,3.3316097259521484
1702137287155488300,2.81848828125,1.2990926504135132,0.8738572597503662,2.4773988723754883
1702137287172478500,2.835478515625,1.3503304719924927,0.2897607684135437,1.054316520690918
1702137287189475800,2.852475830078125,1.7222435474395752,-0.10291735827922821,0.9015321731567383
1702137287206462000,2.8694619140625,3.353666305541992,-0.10078087449073792,2.230545997619629
1702137287223464200,2.886464111328125,3.7060399055480957,-0.0037787556648254395,3.904256820678711
1702137287240449500,2.903449462890625,2.572826862335205,-0.016606926918029785,5.7405853271484375
1702137287257440500,2.9204404296875,0.6536768674850464,-0.08221971988677979,6.603123664855957
1702137287274429400,2.937429443359375,-0.5806128978729248,0.06028485298156738,6.0529327392578125
1702137287291424000,2.954424072265625,0.30239009857177734,0.38805317878723145,6.45097541809082
1702137287308416000,2.971416015625,2.2449028491973877,1.4168486595153809,7.039257049560547
1702137287325405000,2.988405029296875,-0.016391754150390625,2.4421286582946777,6.556196212768555
1702137287342386700,3.00538671875,-4.572439193725586,3.7010297775268555,5.559637546539307
1702137287359392000,3.02239208984375,-6.9109697341918945,3.657031536102295,5.6543731689453125
1702137287376378000,3.039378173828125,-4.168210029602051,2.10365629196167,5.625166893005371
1702137287393373400,3.05637353515625,-0.26445984840393066,0.03592872619628906,2.61397647857666
1702137287410365200,3.073365234375,1.4775755405426025,-1.900801181793213,-1.7144360542297363
1702137287427353900,3.090353759765625,1.3526777029037476,-3.161416530609131,-4.407600402832031
1702137287444348200,3.10734814453125,0.33739638328552246,-4.801100254058838,-5.704059600830078
1702137287461340200,3.124340087890625,-0.30504918098449707,-5.658751487731934,-6.843325614929199
1702137287478331600,3.14133154296875,-0.6601853370666504,-6.34425163269043,-7.455306053161621
1702137287495320600,3.158320556640625,-0.7896745204925537,-7.0530571937561035,-7.948427200317383
1702137287512313600,3.175313720703125,-0.3052031993865967,-8.187663078308105,-8.261627197265625
1702137287529305900,3.192305908203125,0.7367868423461914,-9.371870994567871,-8.194747924804688
1702137287546299600,3.209299560546875,1.4745421409606934,-10.501243591308594,-8.306744575500488
1702137287563290400,3.226290283203125,1.5740891695022583,-11.379349708557129,-8.509140968322754
1702137287580282400,3.243282470703125,1.661895513534546,-12.282204627990723,-8.265146255493164
1702137287597261000,3.260260986328125,1.4489898681640625,-13.200151443481445,-7.356493949890137
1702137287614251800,3.277251708984375,0.3465409278869629,-14.28044319152832,-6.299088954925537
1702137287631259400,3.29425927734375,-1.601181983947754,-15.74724006652832,-5.454355716705322
1702137287648246300,3.311246337890625,-3.2016103267669678,-17.42021942138672,-5.932356834411621
1702137287665245200,3.3282451171875,-4.380070686340332,-19.300615310668945,-6.941196441650391
1702137287682228200,3.345228271484375,-3.692638874053955,-21.57867431640625,-5.046811580657959
1702137287699225900,3.362225830078125,-1.183517336845398,-23.45184326171875,1.1704292297363281
1702137287716203300,3.379203369140625,-1.0961477756500244,-24.108436584472656,7.097066402435303
1702137287733206500,3.39620654296875,-3.1472015380859375,-22.991390228271484,10.36855697631836
1702137287750199600,3.413199462890625,-5.9108171463012695,-21.35755729675293,13.660953521728516
1702137287767186200,3.430186279296875,-7.925387859344482,-19.90102767944336,20.886470794677734
1702137287784180700,3.4471806640625,-9.414546966552734,-16.577308654785156,28.010265350341797
1702137287801173200,3.46417333984375,-12.633581161499023,-13.354652404785156,32.280418395996094
1702137287818163000,3.481162841796875,-15.808551788330078,-12.44338321685791,35.493412017822266
1702137287835155700,3.49815576171875,-16.603256225585938,-13.399592399597168,39.65146255493164
1702137287852146700,3.515146728515625,-13.944336891174316,-14.477931022644043,41.264404296875
1702137287869139700,3.5321396484375,-6.364166259765625,-13.839168548583984,40.830963134765625
1702137287886129400,3.54912939453125,2.558457136154175,-11.154426574707031,41.817161560058594
1702137287903122400,3.566122314453125,6.957569599151611,-8.89975643157959,44.80596160888672
1702137287920113000,3.58311279296875,8.523286819458008,-8.024285316467285,46.340065002441406
1702137287937105700,3.600105712890625,10.021465301513672,-7.828402519226074,44.09855270385742
1702137287954095600,3.617095703125,12.406961441040039,-9.781354904174805,42.318172454833984
1702137287971094300,3.63409423828125,14.498924255371094,-11.59584903717041,40.087364196777344
1702137287988079400,3.651079345703125,15.095478057861328,-13.820768356323242,36.829280853271484
1702137288005072100,3.668072021484375,15.74979019165039,-16.21971321105957,34.886024475097656
1702137288022062300,3.685062255859375,16.000244140625,-18.385648727416992,32.60884475708008
1702137288039055400,3.702055419921875,17.77678680419922,-19.478431701660156,29.731111526489258
1702137288056045300,3.71904541015625,20.336942672729492,-18.915498733520508,27.453128814697266
1702137288073039000,3.7360390625,21.631990432739258,-17.396108627319336,23.96440887451172
1702137288090028500,3.753028564453125,20.353599548339844,-15.041202545166016,19.534339904785156
1702137288107013400,3.770013427734375,18.176498413085938,-13.095057487487793,15.677337646484375
1702137288124012000,3.787011962890625,15.897499084472656,-11.612008094787598,14.096646308898926
1702137288141005000,3.804005126953125,13.402568817138672,-11.995017051696777,15.263032913208008
1702137288157995000,3.8209951171875,11.97756576538086,-11.953497886657715,15.476577758789062
1702137288174988000,3.837988037109375,10.270983695983887,-12.342779159545898,16.997480392456055
1702137288191978200,3.854978271484375,9.27737045288086,-12.329972267150879,19.150957107543945
1702137288208960800,3.871960693359375,6.0721116065979,-11.985660552978516,20.69656753540039
1702137288225961200,3.888961181640625,0.5712630748748779,-11.412097930908203,22.453155517578125
1702137288242954000,3.9059541015625,-4.551517486572266,-10.935409545898438,23.30970001220703
1702137288259945000,3.922945068359375,-8.272821426391602,-12.778778076171875,23.345462799072266
1702137288276937700,3.939937744140625,-8.564155578613281,-14.84943962097168,21.411300659179688
1702137288293928000,3.956927978515625,-4.260519981384277,-16.716167449951172,19.619064331054688
1702137288310920700,3.973920654296875,1.166140079498291,-16.34984588623047,18.980453491210938
1702137288327911400,3.990911376953125,4.485350131988525,-14.614105224609375,17.82415771484375
1702137288344904200,4.007904296875,4.675919055938721,-13.243592262268066,16.90888214111328
1702137288361894100,4.02489404296875,0.3282017707824707,-12.35621166229248,15.652388572692871
1702137288378887200,4.04188720703125,-5.3915510177612305,-11.930095672607422,13.185144424438477
1702137288395877600,4.058877685546875,-6.465080738067627,-14.03394603729248,11.639609336853027
1702137288412860000,4.07585986328125,-2.0177206993103027,-15.98529052734375,9.523763656616211
1702137288429860600,4.092860595703125,3.026966094970703,-16.835674285888672,8.143434524536133
1702137288446856000,4.10985595703125,5.768880844116211,-17.874874114990234,9.855973243713379
1702137288463838000,4.126837890625,5.410634517669678,-18.034637451171875,12.07120132446289
1702137288480834000,4.143833984375,3.7249655723571777,-16.982873916625977,14.591265678405762
1702137288497829600,4.16082958984375,1.020296573638916,-17.017852783203125,15.33735466003418
1702137288514819800,4.17781982421875,0.02160954475402832,-16.891916275024414,10.938748359680176
1702137288531810600,4.194810546875,5.044445991516113,-17.781230926513672,13.436222076416016
1702137288548803300,4.21180322265625,9.427486419677734,-18.50443458557129,21.490995407104492
1702137288565793300,4.228793212890625,5.28391695022583,-18.446044921875,27.463821411132812
1702137288582775600,4.245775634765625,0.13339745998382568,-17.65438461303711,28.70872688293457
1702137288599776500,4.262776611328125,0.6207348108291626,-16.89679718017578,29.454742431640625
1702137288616769500,4.27976953125,1.3406305313110352,-15.655708312988281,34.636375427246094
1702137288633757000,4.2967568359375,-2.604095935821533,-14.070270538330078,37.92893600463867
1702137288650755000,4.313755126953125,-5.982848167419434,-14.329218864440918,37.68309783935547
1702137288667743200,4.3307431640625,-4.150303363800049,-16.858856201171875,37.91849136352539
1702137288684736000,4.347736083984375,-1.2509407997131348,-20.220008850097656,41.092994689941406
1702137288701726200,4.364726318359375,0.4157123565673828,-21.825241088867188,45.70612716674805
1702137288718719000,4.381718994140625,2.625523567199707,-21.798908233642578,50.19952392578125
1702137288735709400,4.39870947265625,5.479769706726074,-21.983837127685547,51.2337532043457
1702137288752706300,4.415706298828125,9.134424209594727,-26.139272689819336,51.64497375488281
1702137288769692400,4.4326923828125,12.991090774536133,-27.57025909423828,47.81876754760742
1702137288786685400,4.449685546875,15.49867057800293,-29.382518768310547,42.26023483276367
1702137288803675600,4.466675537109375,18.476764678955078,-30.425640106201172,36.98210906982422
1702137288820669000,4.4836689453125,20.626222610473633,-30.359375,32.33477020263672
1702137288837659000,4.500658935546875,21.190292358398438,-28.332124710083008,27.33844757080078
1702137288854651600,4.517651611328125,18.62500762939453,-26.612773895263672,24.045379638671875
1702137288871642000,4.53464208984375,13.56517219543457,-26.346969604492188,22.550403594970703
1702137288888622600,4.55162255859375,7.041583061218262,-27.194530487060547,19.757678985595703
1702137288905627600,4.568627685546875,4.323990821838379,-26.618541717529297,14.879548072814941
1702137288922618000,4.5856181640625,3.9318041801452637,-24.421161651611328,10.759855270385742
1702137288939608800,4.60260888671875,4.499080181121826,-21.846216201782227,9.239690780639648
1702137288956601300,4.619601318359375,4.718412399291992,-19.07681655883789,9.45180606842041
1702137288973594400,4.636594482421875,3.838064193725586,-17.461177825927734,9.15777587890625
1702137288990583600,4.65358349609375,1.6787047386169434,-16.803571701049805,9.454195022583008
1702137289007574800,4.67057470703125,0.005327701568603516,-15.346488952636719,8.977757453918457
1702137289024567800,4.68756787109375,0.19246530532836914,-15.278160095214844,9.224037170410156
1702137289041559600,4.7045595703125,1.7904911041259766,-15.974528312683105,11.22839069366455
1702137289058545000,4.721544921875,4.058953762054443,-18.94506072998047,14.120559692382812
1702137289075540500,4.73854052734375,7.070427417755127,-20.74095344543457,13.337137222290039
1702137289092535000,4.75553515625,9.811614990234375,-19.706750869750977,11.259512901306152
1702137289109513700,4.772513671875,8.3764066696167,-19.416276931762695,13.111539840698242
1702137289126517200,4.789517333984375,4.748457908630371,-20.583703994750977,21.190025329589844
1702137289143507500,4.806507568359375,1.9185010194778442,-21.330978393554688,29.22848892211914
1702137289160500700,4.823500732421875,3.5842959880828857,-22.102331161499023,32.5464973449707
1702137289177490700,4.84049072265625,7.707871913909912,-24.032102584838867,31.672103881835938
1702137289194483700,4.857483642578125,12.243424415588379,-25.95424461364746,32.755374908447266
1702137289211464400,4.87446435546875,10.788902282714844,-28.316179275512695,36.052955627441406
1702137289228467000,4.891467041015625,-0.3817012310028076,-30.40937042236328,38.74465560913086
1702137289245459700,4.908459716796875,-6.094715118408203,-23.774574279785156,29.095792770385742
1702137289262449700,4.92544970703125,-3.2357773780822754,-23.20865249633789,32.28907775878906
1702137289279434000,4.94243408203125,1.508211612701416,-23.92605972290039,37.42588806152344
1702137289296433200,4.95943310546875,4.783787727355957,-22.89092254638672,40.20042037963867
1702137289313423400,4.97642333984375,9.08105754852295,-17.906869888305664,40.42485809326172
1702137289330416000,4.993416015625,6.484657287597656,-14.377142906188965,36.98723602294922
1702137289347406800,5.01040673828125,5.035950660705566,-12.531570434570312,33.628700256347656
1702137289364399600,5.027399658203125,4.445682525634766,-10.849987030029297,29.558773040771484
1702137289381389800,5.044389892578125,6.473178386688232,-8.657209396362305,26.731067657470703
1702137289398382600,5.061382568359375,9.294442176818848,-6.22547721862793,32.576595306396484
1702137289415373300,5.078373291015625,7.112502098083496,-0.13784170150756836,36.794403076171875
1702137289432366000,5.095365966796875,-2.3732995986938477,3.0141472816467285,33.78170394897461
1702137289449356300,5.112356201171875,-6.629789352416992,5.258090496063232,24.1641902923584
1702137289466349000,5.12934912109375,-0.8164160251617432,6.107159614562988,18.78630828857422
1702137289483339300,5.14633935546875,5.761253356933594,5.452062129974365,20.49361801147461
1702137289500334000,5.163333984375,7.711685657501221,5.515007019042969,25.239065170288086
1702137289517311700,5.180311767578125,4.676772117614746,7.502566814422607,23.485733032226562
1702137289534313000,5.19731298828125,1.2247053384780884,8.89700984954834,16.41584587097168
1702137289551298300,5.21429833984375,0.7754994630813599,9.326637268066406,12.506287574768066
1702137289568298200,5.23129833984375,2.859851837158203,7.482894420623779,13.184812545776367
1702137289585289200,5.248289306640625,5.399538993835449,5.212810039520264,12.183286666870117
1702137289602280200,5.2652802734375,6.271349906921387,2.9645564556121826,9.238192558288574
1702137289619270400,5.2822705078125,4.694695472717285,0.8504132032394409,6.369637489318848
1702137289636267300,5.299267333984375,3.3635764122009277,-0.8140826225280762,3.7574644088745117
1702137289653255200,5.316255126953125,2.821228504180908,-2.1743063926696777,1.715254783630371
1702137289670248200,5.333248291015625,2.4254674911499023,-3.204362392425537,0.18245697021484375
1702137289687238700,5.35023876953125,2.2188291549682617,-4.105421543121338,-0.6322164535522461
1702137289704221400,5.367221435546875,2.784696578979492,-4.91846227645874,-0.16756629943847656
1702137289721222000,5.384221923828125,2.8449060916900635,-5.647326469421387,0.2846202850341797
1702137289738214400,5.40121435546875,2.4197442531585693,-6.372098922729492,0.6707696914672852
1702137289755203600,5.41820361328125,2.1195249557495117,-6.32847785949707,0.5832853317260742
1702137289772195300,5.4351953125,1.7287914752960205,-5.779325485229492,-0.4283456802368164
1702137289789190100,5.452190185546875,1.4884998798370361,-5.3142242431640625,-1.0693016052246094
1702137289806180900,5.469180908203125,1.3827569484710693,-4.940284729003906,-0.6525650024414062
1702137289823171800,5.486171875,1.0674020051956177,-4.879843711853027,0.4809303283691406
1702137289840153900,5.50315380859375,0.7705836892127991,-4.387799263000488,0.23942947387695312
1702137289857151700,5.52015185546875,0.5902755260467529,-3.906309127807617,-0.8223152160644531
1702137289874150000,5.53714990234375,0.6357223987579346,-3.354208469390869,-2.147214889526367
1702137289891137800,5.5541376953125,0.7917990684509277,-3.2474284172058105,-2.432854175567627
1702137289908130800,5.571130859375,0.9049615859985352,-3.272249937057495,-2.237870693206787
1702137289925118200,5.5881181640625,1.1692993640899658,-3.001617193222046,-1.8856501579284668
1702137289942115300,5.605115234375,1.7351007461547852,-2.135570764541626,-1.725295066833496
1702137289959104000,5.62210400390625,1.3201086521148682,-1.2938876152038574,-1.270279884338379
1702137289976093200,5.63909326171875,0.0914454460144043,-0.5613679885864258,-0.9173908233642578
1702137289993090000,5.656090087890625,-1.9740376472473145,0.18868112564086914,-0.6269340515136719
1702137290010081000,5.6730810546875,-3.4008071422576904,0.18546032905578613,0.5997581481933594
1702137290027070500,5.690070556640625,-2.6193618774414062,1.114579439163208,2.3164291381835938
1702137290044052700,5.707052734375,-1.4988925457000732,2.5244736671447754,4.531916618347168
1702137290061053400,5.724053466796875,-3.1021888256073,4.130059242248535,5.253255844116211
1702137290078046500,5.74104638671875,-5.660111904144287,6.833294868469238,4.947418212890625
1702137290095037000,5.758036865234375,-7.154248237609863,8.8038330078125,7.510724067687988
1702137290112027400,5.77502734375,-5.370100021362305,10.063462257385254,12.06220531463623
1702137290129022700,5.792022705078125,-2.146338939666748,12.596290588378906,14.172969818115234
1702137290146012700,5.8090126953125,-1.0043424367904663,14.147771835327148,15.580632209777832
1702137290163003400,5.82600341796875,-0.6725810766220093,13.598123550415039,12.75181770324707
1702137290179996200,5.84299609375,-1.149416208267212,11.26343822479248,8.607183456420898
1702137290196991500,5.859991455078125,-0.29564210772514343,7.162944316864014,4.8845319747924805
1702137290213976600,5.8769765625,2.095362663269043,3.470980644226074,1.6176719665527344
1702137290230972200,5.89397216796875,2.495309591293335,-1.0756492614746094,-0.29100751876831055
1702137290247962400,5.91096240234375,1.7375775575637817,-4.966362953186035,-2.788421392440796
1702137290264952600,5.92795263671875,0.8589081168174744,-7.477517604827881,-4.950811386108398
1702137290281934800,5.944934814453125,0.47506803274154663,-9.181415557861328,-6.133513927459717
1702137290298935800,5.961935791015625,0.7087997198104858,-9.982133865356445,-6.953354835510254
1702137290315918300,5.97891845703125,1.1391794681549072,-10.008512496948242,-7.568057060241699
1702137290332919000,5.9959189453125,1.1413788795471191,-10.213315963745117,-7.2127156257629395
1702137290349901300,6.0129013671875,0.7231807708740234,-10.83421802520752,-6.249630928039551
1702137290366903000,6.029903076171875,0.26139187812805176,-11.290218353271484,-5.903968334197998
1702137290383894500,6.04689453125,0.13010573387145996,-11.569191932678223,-5.921996116638184
1702137290400885200,6.06388525390625,1.082106590270996,-11.718356132507324,-5.659203052520752
1702137290417878300,6.080878173828125,0.8127527236938477,-12.089019775390625,-4.937049865722656
1702137290434868500,6.097868408203125,-1.4396693706512451,-11.741525650024414,-4.107532978057861
1702137290451859200,6.114859130859375,0.445231556892395,-12.91828727722168,-6.55548620223999
1702137290468854000,6.13185400390625,0.39761316776275635,-13.853623390197754,-5.984955310821533
1702137290485844500,6.148844482421875,-0.5438607931137085,-14.067638397216797,-4.406405448913574
1702137290502835000,6.1658349609375,-1.0827665328979492,-15.160219192504883,-2.551358699798584
1702137290519818500,6.182818603515625,-0.7803632020950317,-15.858920097351074,-1.4595319032669067
1702137290536818000,6.19981787109375,-0.13662207126617432,-17.176462173461914,-0.5259780883789062
1702137290553811000,6.21681103515625,-0.754662275314331,-18.477252960205078,-0.5374534130096436
1702137290570801400,6.233801513671875,-1.4008547067642212,-19.947980880737305,-0.17359352111816406
1702137290587793700,6.250793701171875,-1.2484400272369385,-21.83404541015625,4.1660380363464355
1702137290604783400,6.267783447265625,-0.7805863618850708,-22.30117416381836,10.636571884155273
1702137290621779200,6.284779296875,-1.5852727890014648,-20.377330780029297,15.964094161987305
1702137290638771200,6.301771240234375,-4.753477096557617,-17.854522705078125,17.283416748046875
1702137290655757300,6.31875732421875,-9.27824592590332,-16.409690856933594,18.469194412231445
1702137290672750600,6.33575048828125,-11.769866943359375,-16.668670654296875,22.910728454589844
1702137290689743400,6.352743408203125,-12.057073593139648,-16.390867233276367,27.768234252929688
1702137290706734000,6.369734130859375,-12.808760643005371,-15.476996421813965,29.81391716003418
1702137290723726800,6.386726806640625,-11.696388244628906,-15.431119918823242,30.817981719970703
1702137290740712700,6.403712646484375,-8.655767440795898,-15.37075424194336,33.17976760864258
1702137290757714400,6.42071435546875,-6.129149913787842,-14.419544219970703,35.81768035888672
1702137290774700300,6.4377001953125,-5.149143695831299,-12.770323753356934,37.590545654296875
1702137290791687400,6.4546875,-4.351039886474609,-11.458785057067871,39.318843841552734
1702137290808671700,6.471671630859375,-2.8939778804779053,-10.78765869140625,40.9752197265625
1702137290825678800,6.488678955078125,-0.9487504959106445,-11.592609405517578,41.50275421142578
1702137290842667000,6.5056669921875,2.5551304817199707,-14.314388275146484,40.355140686035156
1702137290859659500,6.522659423828125,7.433357238769531,-17.311450958251953,36.34596252441406
1702137290876641500,6.5396416015625,11.67974853515625,-19.124881744384766,31.736310958862305
1702137290893639700,6.5566396484375,14.267024993896484,-19.90212059020996,27.987506866455078
1702137290910636000,6.573635986328125,15.262393951416016,-20.164527893066406,26.596172332763672
1702137290927626000,6.5906259765625,15.2176513671875,-19.79672622680664,26.304271697998047
1702137290944616200,6.6076162109375,13.154744148254395,-19.373334884643555,25.25635528564453
1702137290961608700,6.624608642578125,13.470110893249512,-19.080074310302734,23.99444580078125
1702137290978599700,6.641599609375,16.140159606933594,-18.718643188476562,23.02383804321289
1702137290995592400,6.658592529296875,16.20511245727539,-16.21143341064453,21.029983520507812
1702137291012571600,6.675571533203125,14.007145881652832,-13.608965873718262,18.02812957763672
1702137291029571600,6.692571533203125,11.397600173950195,-11.65029239654541,16.94358253479004
1702137291046569500,6.709569580078125,10.976820945739746,-11.466567039489746,17.71782112121582
1702137291063558700,6.72655859375,11.205413818359375,-12.075757026672363,19.388404846191406
1702137291080548600,6.743548583984375,9.175594329833984,-12.50360107421875,19.91434097290039
1702137291097541600,6.760541748046875,7.443933486938477,-13.83999252319336,20.839927673339844
1702137291114513700,6.777513671875,5.692564010620117,-13.900764465332031,20.824695587158203
1702137291131525000,6.794525146484375,2.3016369342803955,-13.718416213989258,21.442699432373047
1702137291148515300,6.811515380859375,-0.5143654346466064,-13.684968948364258,23.076175689697266
1702137291165508000,6.828508056640625,-2.903196334838867,-14.13590145111084,24.02800178527832
1702137291182496500,6.84549658203125,-3.848066568374634,-14.34781265258789,23.431564331054688
1702137291199483000,6.86248291015625,-3.892235279083252,-14.6441011428833,22.108427047729492
1702137291216481300,6.879481201171875,-3.0988519191741943,-13.300044059753418,19.507173538208008
1702137291233474300,6.896474365234375,-2.493920087814331,-11.910167694091797,16.368328094482422
1702137291250464800,6.91346484375,-1.7413702011108398,-11.021102905273438,13.956188201904297
1702137291267457800,6.930457763671875,-0.5829238891601562,-10.370007514953613,12.17658519744873
1702137291284447500,6.947447509765625,0.5737605094909668,-9.962380409240723,10.735197067260742
1702137291301430500,6.964430419921875,0.6333098411560059,-10.947378158569336,9.619997024536133
1702137291318431200,6.98143115234375,1.1180806159973145,-13.231931686401367,8.609986305236816
1702137291335424000,6.998424072265625,1.4876503944396973,-16.30376434326172,9.750570297241211
1702137291352403700,7.01540380859375,4.181031227111816,-16.822580337524414,10.5985689163208
1702137291369414400,7.032414306640625,5.098606109619141,-17.23992347717285,14.186256408691406
1702137291386398700,7.049398681640625,3.421725034713745,-18.875822067260742,16.30375099182129
1702137291403390500,7.066390380859375,4.391456604003906,-17.806072235107422,14.28095817565918
1702137291420380400,7.08338037109375,8.129196166992188,-17.092824935913086,12.731179237365723
1702137291437373200,7.100373291015625,7.571915626525879,-16.615169525146484,17.439857482910156
1702137291454364000,7.117364013671875,1.1994059085845947,-17.90792465209961,24.10283660888672
1702137291471346400,7.134346435546875,-4.08193302154541,-20.05324363708496,26.73724365234375
1702137291488337400,7.15133740234375,0.5567554235458374,-20.630138397216797,26.712671279907227
1702137291505339600,7.168339599609375,6.842087745666504,-20.219749450683594,32.73371124267578
1702137291522330000,7.185330078125,4.546693801879883,-17.22032356262207,39.79348373413086
1702137291539323000,7.202322998046875,-3.074331283569336,-13.893142700195312,40.7076416015625
1702137291556302600,7.219302490234375,-8.102997779846191,-14.548060417175293,40.16896057128906
1702137291573305900,7.236305908203125,-5.094574928283691,-18.930965423583984,42.427406311035156
1702137291590296600,7.253296630859375,1.4138569831848145,-21.038354873657227,47.185874938964844
1702137291607289300,7.270289306640625,2.624208927154541,-21.52532386779785,52.04755401611328
1702137291624279300,7.287279296875,0.8360595703125,-22.439695358276367,54.21003341674805
1702137291641272300,7.304272216796875,0.46814799308776855,-30.07844352722168,56.91676330566406
1702137291658263000,7.321262939453125,5.446664810180664,-37.25029754638672,55.209861755371094
1702137291675255800,7.338255859375,14.186593055725098,-41.671871185302734,50.033966064453125
1702137291692235000,7.355235107421875,21.497695922851562,-44.754600524902344,45.069923400878906
1702137291709238500,7.372238525390625,21.838525772094727,-46.321632385253906,39.520267486572266
1702137291726226700,7.389226806640625,18.987110137939453,-47.9083366394043,32.414363861083984
1702137291743224600,7.406224609375,15.629786491394043,-46.14205551147461,22.126441955566406
1702137291760212200,7.423212158203125,11.990253448486328,-41.2259635925293,13.306986808776855
1702137291777205000,7.440205078125,9.800202369689941,-33.797061920166016,7.7425055503845215
1702137291794193400,7.457193359375,7.617313385009766,-26.78420066833496,7.076869964599609
1702137291811180300,7.47418017578125,4.419878005981445,-22.263809204101562,9.13436222076416
1702137291828178200,7.49117822265625,1.8538169860839844,-19.18916893005371,11.297651290893555
1702137291845178000,7.50817822265625,-0.06959247589111328,-17.792539596557617,11.03702163696289
1702137291862161700,7.52516162109375,0.6470766067504883,-16.57840347290039,8.928863525390625
1702137291879154700,7.54215478515625,2.659627914428711,-14.234216690063477,8.73974609375
1702137291896145000,7.559144775390625,2.4605984687805176,-12.834685325622559,12.049116134643555
1702137291913137000,7.576136962890625,1.297996997833252,-11.870441436767578,14.372332572937012
1702137291930129000,7.59312890625,0.2021770477294922,-12.38072395324707,15.923006057739258
1702137291947118600,7.61011865234375,1.1359138488769531,-14.45772647857666,16.455089569091797
1702137291964116200,7.6271162109375,3.5345466136932373,-16.92415428161621,15.936552047729492
1702137291981101000,7.64410107421875,6.692803382873535,-17.112890243530273,14.85073184967041
1702137291998094300,7.66109423828125,8.553181648254395,-18.009477615356445,17.665863037109375
1702137292015087600,7.678087646484375,8.258112907409668,-19.835880279541016,23.282424926757812
1702137292032063000,7.69506298828125,5.530827522277832,-21.55499267578125,28.70038414001465
1702137292049070300,7.7120703125,4.24038553237915,-22.073108673095703,30.07756805419922
1702137292066061800,7.729061767578125,2.6495585441589355,-23.308448791503906,28.210912704467773
1702137292083053000,7.746052978515625,1.2954915761947632,-26.73953628540039,25.78386688232422
1702137292100043800,7.763043701171875,3.287801742553711,-31.18283462524414,25.909481048583984
1702137292117036300,7.780036376953125,5.721140384674072,-33.97834777832031,29.13669776916504
1702137292134027300,7.79702734375,3.725311279296875,-35.1733512878418,34.22626495361328
1702137292151012000,7.81401220703125,2.2438981533050537,-32.817901611328125,33.99357223510742
1702137292167997400,7.83099755859375,1.2853368520736694,-31.753875732421875,33.70741653442383
1702137292185004800,7.8480048828125,2.4321396350860596,-31.448265075683594,32.2584114074707
1702137292201993200,7.8649931640625,5.3392744064331055,-34.65009689331055,32.145790100097656
1702137292218971400,7.881971435546875,11.448285102844238,-32.83807373046875,31.559228897094727
1702137292235976400,7.8989765625,12.547094345092773,-29.864665985107422,32.920875549316406
1702137292252969200,7.91596923828125,5.201251029968262,-28.995426177978516,36.35319900512695
1702137292269960000,7.9329599609375,-4.296375274658203,-27.724212646484375,38.63127517700195
1702137292286954200,7.949954345703125,-8.026415824890137,-22.79759407043457,35.326900482177734
1702137292303941000,7.966941162109375,-5.123203277587891,-18.03659439086914,32.35590744018555
1702137292320935700,7.983935791015625,0.30201253294944763,-15.71204948425293,33.72431564331055
1702137292337926100,8.000926025390624,1.9918396472930908,-13.907788276672363,34.50008773803711
1702137292354917400,8.01791748046875,-1.3429501056671143,-10.424727439880371,31.184799194335938
1702137292371906300,8.03490625,-4.2599873542785645,-7.839737892150879,26.23945426940918
1702137292388904400,8.051904541015626,-1.3503012657165527,-5.312536239624023,24.02062225341797
1702137292405901800,8.06890185546875,0.6097058057785034,-3.90972638130188,25.248760223388672
1702137292422872000,8.0858720703125,-1.8885997533798218,-1.404310703277588,25.762550354003906
1702137292439877600,8.102877685546876,-7.221758842468262,0.9486379623413086,23.836788177490234
1702137292456865500,8.119865478515624,-7.913789749145508,3.765085220336914,18.317684173583984
1702137292473861400,8.136861328125,-3.003404140472412,4.539599418640137,15.201666831970215
1702137292490851300,8.153851318359376,2.2161765098571777,4.9868059158325195,14.459906578063965
1702137292507838700,8.170838623046874,4.983277320861816,5.314604759216309,12.87447738647461
1702137292524837000,8.187837158203125,3.3019301891326904,5.539085865020752,10.576583862304688
1702137292541825300,8.2048251953125,-0.7016724348068237,5.206207275390625,9.124845504760742
1702137292558818000,8.221818115234376,-2.499523878097534,4.859078407287598,8.091087341308594
1702137292575807700,8.238807861328125,-1.9082505702972412,4.577165603637695,7.380629539489746
1702137292592794600,8.255794677734375,-0.0435015931725502,3.7853214740753174,6.618967056274414
1702137292609791500,8.27279150390625,1.7485523223876953,3.1852002143859863,5.4752092361450195
1702137292626781400,8.289781494140625,0.9261448979377747,3.051652431488037,3.762237548828125
1702137292643776800,8.30677685546875,-1.4121938943862915,2.597418785095215,2.477543830871582
1702137292660767000,8.32376708984375,-1.9235243797302246,2.3485281467437744,2.1285667419433594
1702137292677747200,8.340747314453125,-0.1536616086959839,2.4956061840057373,2.536895751953125
1702137292694747400,8.357747314453125,0.5976373553276062,2.3822124004364014,3.7471961975097656
1702137292711743700,8.37474365234375,0.23218631744384766,0.9830338954925537,4.682180404663086
1702137292728733400,8.3917333984375,0.9867209196090698,-0.31656312942504883,4.428820610046387
1702137292745724200,8.40872412109375,2.645339250564575,-1.4408462047576904,3.5777931213378906
1702137292762717000,8.425717041015625,4.202999114990234,-2.1898441314697266,3.1412744522094727
1702137292779707000,8.442706787109374,5.07874870300293,-2.663705348968506,3.5651588439941406
1702137292796700000,8.459699951171874,5.203578948974609,-3.1000123023986816,3.510188102722168
1702137292813690400,8.4766904296875,5.078140735626221,-3.5235729217529297,3.1565513610839844
1702137292830664700,8.493664794921875,4.629024505615234,-3.7114663124084473,3.018130302429199
1702137292847676200,8.51067626953125,5.462517261505127,-4.366574287414551,5.143558502197266
1702137292864663000,8.5276630859375,6.305546760559082,-5.043880462646484,7.565442085266113
1702137292881656600,8.544656494140625,6.548662185668945,-6.404122829437256,10.147455215454102
1702137292898649600,8.561649658203125,5.778117656707764,-6.973101615905762,10.802478790283203
1702137292915628800,8.57862890625,3.971776008605957,-7.364912509918213,10.471274375915527
1702137292932634400,8.59563427734375,1.9657275676727295,-6.890981674194336,9.251376152038574
1702137292949623000,8.612623046875,0.4963703155517578,-5.97380256652832,8.375085830688477
1702137292966605300,8.629605224609374,-0.19059085845947266,-4.349644660949707,8.78604507446289
1702137292983605800,8.646605712890626,0.09679889678955078,-2.3745157718658447,9.786940574645996
1702137293000596500,8.663596435546875,-0.7054386138916016,-1.829204797744751,8.51926040649414
1702137293017593000,8.680593017578126,-1.1106634140014648,-1.6499364376068115,4.522943496704102
1702137293034580200,8.697580322265624,-0.27639245986938477,-2.8716912269592285,0.7690491676330566
1702137293051572200,8.714572265625,2.081761360168457,-3.7857437133789062,-2.474184274673462
1702137293068565000,8.73156494140625,3.841787338256836,-4.681814193725586,-4.929624557495117
1702137293085552400,8.748552490234376,4.686858177185059,-5.4031782150268555,-6.596014976501465
1702137293102555100,8.76555517578125,4.82295036315918,-5.724581718444824,-7.694623947143555
1702137293119538400,8.782538330078125,3.993366003036499,-6.161229133605957,-8.146024703979492
1702137293136527000,8.799527099609374,2.9656474590301514,-6.772078037261963,-8.340496063232422
1702137293153522000,8.81652197265625,2.218618392944336,-7.3409271240234375,-8.473830223083496
1702137293170504400,8.83350439453125,2.302351951599121,-7.9332075119018555,-8.51751708984375
1702137293187505000,8.8505048828125,3.000821113586426,-8.294355392456055,-8.546586990356445
1702137293204497700,8.86749755859375,3.2961065769195557,-8.582989692687988,-8.505463600158691
1702137293221488400,8.88448828125,3.291186571121216,-8.807909965515137,-8.15494155883789
1702137293238480400,8.90148046875,2.6708767414093018,-9.208666801452637,-7.666378974914551
1702137293255471600,8.9184716796875,1.7718541622161865,-9.626766204833984,-7.334329605102539
1702137293272464100,8.935464111328125,0.8041262626647949,-10.241279602050781,-7.153609752655029
1702137293289463000,8.952463134765624,-0.11116456985473633,-11.416740417480469,-6.688899517059326
1702137293306444800,8.96944482421875,-0.33019351959228516,-13.162105560302734,-6.3421630859375
1702137293323439900,8.98643994140625,0.7190423011779785,-14.42799186706543,-6.333418846130371
1702137293340430300,9.003430419921875,1.362554907798767,-15.609685897827148,-6.133889198303223
1702137293357421000,9.020421142578124,1.5455520153045654,-16.524972915649414,-5.762990951538086
1702137293374413600,9.03741357421875,0.580153226852417,-17.948013305664062,-4.619854927062988
1702137293391393300,9.054393310546875,-0.6430543065071106,-20.628787994384766,-1.6482616662979126
1702137293408396800,9.071396728515625,-0.6288820505142212,-22.200536727905273,2.671398639678955
1702137293425387000,9.088386962890626,-1.3140475749969482,-23.082088470458984,6.682198524475098
1702137293442379800,9.1053798828125,-2.5546255111694336,-23.841636657714844,9.664910316467285
1702137293459370000,9.122369873046875,-3.750281810760498,-23.440256118774414,12.666278839111328
1702137293476345900,9.139345947265625,-6.901924133300781,-24.22567367553711,19.91732406616211
1702137293493349000,9.15634912109375,-9.53195571899414,-24.108970642089844,27.92494010925293
1702137293510350600,9.1733505859375,-12.057268142700195,-22.90239715576172,31.468793869018555
1702137293527336400,9.19033642578125,-13.40028190612793,-22.790637969970703,33.472450256347656
1702137293544329000,9.207328857421874,-12.144933700561523,-24.439170837402344,35.8767204284668
1702137293561319700,9.224319580078125,-8.043539047241211,-27.270919799804688,40.5166130065918
1702137293578312700,9.241312744140625,-3.881789445877075,-29.809717178344727,44.52364730834961
1702137293595303000,9.258302978515625,-0.4458504915237427,-29.493425369262695,42.72441101074219
1702137293612285000,9.275284912109376,5.208321571350098,-26.996253967285156,40.85303497314453
1702137293629286000,9.292285888671875,10.077884674072266,-23.459867477416992,40.96392059326172
1702137293646279000,9.30927880859375,11.643353462219238,-20.993427276611328,38.597042083740234
1702137293663268900,9.326268798828124,12.852605819702148,-20.246517181396484,35.57893753051758
1702137293680260900,9.3432607421875,13.806160926818848,-20.654422760009766,33.576602935791016
1702137293697245400,9.360245361328126,13.435606956481934,-22.8881893157959,32.744224548339844
1702137293714238200,9.37723828125,12.02951431274414,-25.21855354309082,31.198030471801758
1702137293731221800,9.3942216796875,11.132871627807617,-27.772878646850586,27.18881607055664
1702137293748230400,9.41123046875,14.753070831298828,-29.04303741455078,24.028594970703125
1702137293765216300,9.42821630859375,17.61347198486328,-27.340084075927734,22.428306579589844
1702137293782214100,9.445214111328125,17.294179916381836,-22.533601760864258,20.337188720703125
1702137293799201500,9.462201416015626,14.315069198608398,-19.537830352783203,19.123199462890625
1702137293816194600,9.479194580078126,12.813680648803711,-17.42278480529785,18.010780334472656
1702137293833187000,9.49618701171875,11.625846862792969,-17.420265197753906,17.169267654418945
1702137293850175700,9.51317578125,9.985078811645508,-17.18996810913086,16.166276931762695
1702137293867165200,9.530165283203125,8.69901180267334,-17.979028701782227,16.53697395324707
1702137293884166100,9.547166259765625,7.741623401641846,-18.761226654052734,17.638296127319336
1702137293901137700,9.5641376953125,6.376824855804443,-18.402507781982422,19.253955841064453
1702137293918137900,9.581137939453125,4.093366622924805,-19.002933502197266,21.97708511352539
1702137293935131100,9.598131103515625,1.0571246147155762,-19.07505989074707,23.775955200195312
1702137293952143600,9.6151435546875,-2.4437079429626465,-18.552051544189453,24.11284065246582
1702137293969105700,9.632105712890626,-6.264578342437744,-18.03070068359375,24.272506713867188
1702137293986101200,9.649101318359374,-8.849165916442871,-18.032825469970703,23.610363006591797
1702137294003102500,9.6661025390625,-7.097696304321289,-18.10898208618164,22.114887237548828
1702137294020090600,9.683090576171875,-4.077320575714111,-17.636484146118164,20.88247299194336
1702137294037086200,9.700086181640625,-1.7527464628219604,-15.677190780639648,19.647506713867188
1702137294054076700,9.71707666015625,-2.136166572570801,-14.32640552520752,18.111942291259766
1702137294071072800,9.73407275390625,-2.5351345539093018,-13.125587463378906,16.18996810913086
1702137294088044500,9.75104443359375,-2.849684715270996,-11.985934257507324,13.890046119689941
1702137294105064000,9.76806396484375,-2.6282763481140137,-12.242992401123047,11.976303100585938
1702137294122040600,9.78504052734375,-0.7771444320678711,-13.136619567871094,10.909162521362305
1702137294139035400,9.802035400390626,1.980358600616455,-14.741630554199219,11.288743019104004
1702137294156025900,9.81902587890625,3.324578285217285,-15.46282958984375,11.348376274108887
1702137294173016300,9.836016357421874,2.2210755348205566,-15.925840377807617,12.005029678344727
1702137294190009000,9.853009033203126,1.1816587448120117,-17.677982330322266,12.544490814208984
1702137294206997200,9.869997314453125,1.354931354522705,-18.578868865966797,10.943479537963867
1702137294223994400,9.886994384765625,7.480144500732422,-17.796327590942383,10.131937026977539
1702137294240982800,9.903982666015626,9.204496383666992,-18.795673370361328,12.13692569732666
1702137294257973000,9.920972900390625,6.661259651184082,-19.9179744720459,15.514176368713379
1702137294274968000,9.937968017578125,2.7598695755004883,-21.032339096069336,18.92267608642578
1702137294291958300,9.954958251953125,2.2481281757354736,-22.2652587890625,21.422855377197266
1702137294308936400,9.9719365234375,5.016067981719971,-22.911928176879883,25.79237937927246
1702137294325932300,9.988932373046875,7.339189052581787,-23.55221939086914,33.0277099609375
1702137294342921000,10.0059208984375,6.119295597076416,-21.741134643554688,36.166229248046875
1702137294359915500,10.02291552734375,1.6446051597595215,-19.974740982055664,37.045127868652344
1702137294376904200,10.039904296875,-2.4810972213745117,-19.410694122314453,36.487300872802734
1702137294393900800,10.05690087890625,-5.0189313888549805,-20.805919647216797,40.4991455078125
1702137294410890500,10.073890380859375,-5.315216064453125,-23.494346618652344,45.05558776855469
1702137294427881200,10.090881103515626,-2.024965286254883,-26.35001564025879,47.757667541503906
1702137294444874200,10.107874267578126,1.617039442062378,-30.174354553222656,49.92551803588867
1702137294461863700,10.12486376953125,3.4355692863464355,-34.99068069458008,51.08052062988281
1702137294478857000,10.14185693359375,4.973028659820557,-38.24943923950195,48.095211029052734
1702137294495849000,10.158848876953124,11.583213806152344,-43.91465759277344,44.25714874267578
1702137294512838000,10.175837890625,18.87872314453125,-44.59571075439453,39.03369903564453
1702137294529832400,10.19283251953125,20.296504974365234,-43.189979553222656,34.52317810058594
1702137294546823400,10.209823486328125,18.758726119995117,-41.1998405456543,28.119531631469727
1702137294563813600,10.226813720703126,14.219603538513184,-40.20868682861328,23.41742706298828
1702137294580806000,10.243805908203125,11.388111114501953,-37.92356491088867,17.48218536376953
1702137294597804300,10.26080419921875,9.536340713500977,-33.787479400634766,11.786865234375
1702137294614799400,10.27779931640625,6.4240803718566895,-29.814228057861328,8.885396957397461
1702137294631789800,10.294789794921876,4.136054992675781,-25.87116050720215,6.659373760223389
1702137294648780300,10.3117802734375,3.706806182861328,-21.061689376831055,5.011605739593506
1702137294665770200,10.328770263671874,3.347148895263672,-16.726158142089844,5.067725658416748
1702137294682765800,10.345765869140624,3.1819591522216797,-15.719067573547363,7.2459611892700195
1702137294699756300,10.36275634765625,3.7761783599853516,-15.749504089355469,7.822373390197754
1702137294716746200,10.379746337890625,5.100475311279297,-15.100790023803711,8.889627456665039
1702137294733739500,10.396739501953125,5.786008834838867,-13.967665672302246,10.745929718017578
1702137294750729500,10.4137294921875,5.169131278991699,-14.010886192321777,13.965232849121094
1702137294767722000,10.430721923828125,2.7436962127685547,-14.927299499511719,16.317108154296875
1702137294784712700,10.447712646484375,0.85162353515625,-15.995222091674805,16.60967254638672
1702137294801705500,10.46470556640625,1.606736660003662,-17.778472900390625,17.251123428344727
1702137294818695700,10.48169580078125,3.649960517883301,-20.563331604003906,19.181798934936523
1702137294835678000,10.498677978515625,4.79069185256958,-22.305273056030273,22.01897621154785
1702137294852681500,10.515681396484375,3.5644404888153076,-24.211326599121094,25.26803970336914
1702137294869673200,10.532673095703124,1.5219264030456543,-26.876144409179688,29.298137664794922
1702137294886660400,10.549660400390625,0.6564433574676514,-29.143131256103516,32.12775421142578
1702137294903655000,10.566655029296875,2.592881679534912,-29.18045997619629,30.80499839782715
1702137294920645400,10.583645263671874,4.193612575531006,-28.512252807617188,27.11743927001953
1702137294937638000,10.600637939453126,2.370972156524658,-29.220502853393555,26.188865661621094
1702137294954628400,10.61762841796875,-0.5712745189666748,-32.37644958496094,28.13250160217285
1702137294971621000,10.63462109375,2.3811302185058594,-34.460079193115234,30.666160583496094
1702137294988611600,10.651611572265624,5.294055461883545,-33.5275993347168,32.2332649230957
1702137295005604600,10.6686044921875,5.418659687042236,-33.23897171020508,34.75008773803711
1702137295022594300,10.68559423828125,4.260091781616211,-33.1446647644043,36.819976806640625
1702137295039576800,10.702576904296874,3.650097608566284,-30.5372314453125,35.70270919799805
1702137295056576500,10.719576416015625,0.38886773586273193,-28.02631378173828,33.601043701171875
1702137295073572000,10.736572021484376,-3.2523107528686523,-25.106014251708984,29.167709350585938
1702137295090560800,10.753560791015625,-2.500460624694824,-22.864280700683594,26.956127166748047
1702137295107551200,10.77055126953125,1.4454896450042725,-20.000316619873047,28.36513900756836
1702137295124556800,10.787556884765625,1.67327880859375,-17.29963493347168,32.7424201965332
1702137295141537000,10.804537109375,-2.659526824951172,-13.87333869934082,32.6917839050293
1702137295158527200,10.82152734375,-4.315054893493652,-10.449359893798828,27.945247650146484
1702137295175520000,10.83852001953125,1.147125244140625,-8.422036170959473,27.415390014648438
1702137295192507600,10.855507568359375,3.3326897621154785,-7.868356704711914,31.27886390686035
1702137295209505800,10.872505859375,0.6306527853012085,-4.930145263671875,27.947227478027344
1702137295226485500,10.889485595703125,1.734232783317566,-0.8604519367218018,20.600200653076172
1702137295243483600,10.906483642578126,4.699558734893799,2.5298986434936523,21.193557739257812
1702137295260479000,10.92347900390625,4.313322067260742,3.7268147468566895,25.149131774902344
1702137295277469700,10.9404697265625,1.760033369064331,4.162714958190918,24.2325382232666
1702137295294459600,10.957459716796874,-1.0147415399551392,3.6242542266845703,18.456003189086914
1702137295311452400,10.974452392578126,0.01826333999633789,2.1162350177764893,12.315224647521973
1702137295328432400,10.991432373046875,2.9235551357269287,2.21682071685791,8.334976196289062
1702137295345436000,11.008435791015625,4.106856346130371,1.8827800750732422,7.678757667541504
1702137295362425600,11.025425537109374,3.3425841331481934,1.5982587337493896,7.5439910888671875
1702137295379419000,11.0424189453125,1.8831400871276855,1.2803112268447876,6.795706748962402
1702137295396409000,11.0594091796875,1.1366674900054932,0.7599306106567383,5.20615291595459
1702137295413401900,11.07640185546875,1.1238043308258057,-0.43311548233032227,3.8998727798461914
1702137295430392300,11.093392333984376,1.542173147201538,-2.144002914428711,2.8052291870117188
1702137295447387400,11.110387451171874,1.8476781845092773,-3.587940216064453,2.013096809387207
1702137295464385800,11.1273857421875,1.1941593885421753,-4.228682518005371,1.0399723052978516
1702137295481364500,11.144364501953126,-0.1271277666091919,-4.3786091804504395,0.26690196990966797
1702137295498361900,11.16136181640625,-1.3476893901824951,-4.253147602081299,-0.23359012603759766
1702137295515348000,11.178347900390625,-2.271193027496338,-4.256455898284912,-0.725982666015625
1702137295532340000,11.195340087890624,-2.0139360427856445,-4.364629745483398,-1.603480339050293
1702137295549336300,11.21233642578125,-0.3537184000015259,-4.3478546142578125,-3.0424842834472656
1702137295566312700,11.229312744140625,2.2063093185424805,-3.911689043045044,-3.6136841773986816
1702137295583317500,11.2463173828125,3.5906314849853516,-3.625215768814087,-2.9586424827575684
1702137295600308000,11.263307861328125,3.5869216918945312,-3.3863894939422607,-1.8080015182495117
1702137295617300700,11.28030078125,2.9900972843170166,-2.8102774620056152,-2.211885929107666
1702137295634290700,11.297290771484375,2.017951011657715,-2.513583183288574,-3.1168527603149414
1702137295651266600,11.3142666015625,2.118335723876953,-2.0321438312530518,-4.0027995109558105
1702137295668274200,11.331274169921874,3.3478758335113525,-1.3772389888763428,-3.634826183319092
1702137295685269500,11.34826953125,4.159411430358887,-0.9091519117355347,-1.7309536933898926
1702137295702257200,11.365257080078125,3.949155569076538,-0.70810467004776,0.33896541595458984
1702137295719250000,11.38225,3.7192821502685547,-0.5082231163978577,1.023672103881836
1702137295736240400,11.399240478515624,4.034218788146973,-0.32245004177093506,0.2821035385131836
1702137295753233400,11.4162333984375,4.544486999511719,-0.3685627579689026,-0.1880626678466797
1702137295770223000,11.43322314453125,5.264042854309082,-0.06557714939117432,0.3110647201538086
1702137295787216100,11.450216064453125,6.081701755523682,0.5323828458786011,2.192432403564453
1702137295804206800,11.467206787109374,5.702754020690918,1.500736951828003,4.261603355407715
1702137295821199600,11.48419970703125,3.724214553833008,1.882163166999817,5.112940788269043
1702137295838191600,11.501191650390625,1.300400972366333,2.247734308242798,4.674420356750488
1702137295855180500,11.5181806640625,0.2579522132873535,2.478301525115967,4.8194379806518555
1702137295872162600,11.53516259765625,1.3054509162902832,2.5647292137145996,6.211935043334961
1702137295889163000,11.5521630859375,2.504514217376709,3.0103940963745117,7.217787742614746
1702137295906155800,11.56915576171875,2.2596402168273926,3.772653341293335,7.389235496520996
1702137295923148800,11.586148681640625,-0.5564451217651367,5.148825645446777,5.931266784667969
1702137295940139300,11.60313916015625,-4.656650066375732,5.9671101570129395,4.581509590148926
1702137295957132300,11.62013232421875,-6.012486457824707,7.387134075164795,3.778097152709961
1702137295974114800,11.63711474609375,-5.4542646408081055,7.865498065948486,4.806638240814209
1702137295991115000,11.654114990234374,-4.1189799308776855,7.2391357421875,6.27617073059082
1702137296008105500,11.67110546875,-3.180469036102295,6.7883830070495605,5.320023536682129
1702137296025098500,11.688098388671875,-3.239126682281494,5.301692008972168,2.804868698120117
1702137296042088400,11.70508837890625,-2.593912124633789,3.035358428955078,0.004515171051025391
1702137296059081200,11.722081298828124,-1.3639326095581055,0.5847415924072266,-2.3495190143585205
1702137296076071700,11.73907177734375,-0.3315134048461914,-2.212250232696533,-3.6710290908813477
1702137296093063200,11.756063232421875,0.12943553924560547,-4.432947158813477,-4.838386535644531
1702137296110056200,11.77305615234375,0.15398216247558594,-5.993099212646484,-5.9310302734375
1702137296127044900,11.790044921875,0.800126314163208,-6.840136528015137,-6.932864189147949
1702137296144040700,11.807040771484376,1.1338589191436768,-7.120126724243164,-7.397546768188477
1702137296161021200,11.824021240234375,0.8349788188934326,-7.606106758117676,-6.545705795288086
1702137296178019600,11.84101953125,0.6393272876739502,-8.235969543457031,-5.42367696762085
1702137296195016000,11.858015869140624,1.3613495826721191,-8.62767505645752,-5.20236873626709
1702137296211996400,11.874996337890625,2.1694955825805664,-8.90416431427002,-5.816305160522461
1702137296228997000,11.8919970703125,2.339357376098633,-9.414281845092773,-6.3777923583984375
1702137296245987000,11.908987060546876,1.5249484777450562,-10.196792602539062,-6.659038543701172
1702137296262979800,11.925979736328125,1.187828540802002,-10.923962593078613,-6.4305315017700195
1702137296279969500,11.942969482421875,0.8399284482002258,-11.750458717346191,-5.1908464431762695
1702137296296953600,11.95995361328125,-0.7002346515655518,-12.58865737915039,-4.535966873168945
1702137296313953500,11.97695361328125,-0.5288753509521484,-13.885358810424805,-5.375852108001709
1702137296330946300,11.9939462890625,-0.24325548112392426,-14.406513214111328,-4.701195240020752
1702137296347934200,12.010934326171874,-0.5960747003555298,-15.657938003540039,-3.7259774208068848
1702137296364932400,12.027932373046875,-0.6008435487747192,-16.882978439331055,-1.8721437454223633
1702137296381919500,12.04491943359375,-1.658627986907959,-18.01942253112793,1.392622947692871
1702137296398912500,12.06191259765625,-4.456667423248291,-19.73151969909668,4.1464972496032715
1702137296415888600,12.078888671875,-5.225857734680176,-20.31722640991211,5.94796085357666
1702137296432889600,12.0958896484375,-4.340494632720947,-20.272497177124023,9.642704010009766
1702137296449886200,12.11288623046875,-4.196743965148926,-19.21340560913086,14.862531661987305
1702137296466878700,12.129878662109375,-5.5779314041137695,-17.3623046875,20.476472854614258
1702137296483857700,12.146857666015626,-9.105361938476562,-15.003096580505371,24.934133529663086
1702137296500851500,12.1638515625,-13.285467147827148,-13.094671249389648,27.352619171142578
1702137296517853200,12.180853271484375,-15.296613693237305,-13.376419067382812,29.18490219116211
1702137296534844000,12.197843994140625,-12.984272003173828,-15.79941463470459,31.117137908935547
1702137296551832800,12.214832763671875,-6.810358047485352,-17.722700119018555,33.18011474609375
1702137296568828700,12.23182861328125,-1.3116679191589355,-17.239013671875,35.0708122253418
1702137296585821000,12.248821044921876,0.9258607625961304,-14.903604507446289,35.415435791015625
1702137296602811400,12.265811279296875,3.558908700942993,-13.292299270629883,35.17928695678711
1702137296619798000,12.282798095703125,8.956851959228516,-11.96835708618164,36.870052337646484
1702137296636798200,12.299798095703125,12.855942726135254,-11.765670776367188,39.370243072509766
1702137296653774300,12.3167744140625,14.348087310791016,-11.453765869140625,38.74116516113281
1702137296670777300,12.33377734375,12.941926956176758,-12.277891159057617,35.14151382446289
1702137296687765000,12.350764892578125,14.122264862060547,-13.085308074951172,30.745912551879883
1702137296704753200,12.367753173828126,16.972339630126953,-16.28213119506836,29.877853393554688
1702137296721748500,12.38474853515625,20.93215560913086,-18.175960540771484,27.563812255859375
1702137296738746000,12.40174609375,21.936750411987305,-17.53887176513672,24.717885971069336
1702137296755734300,12.418734375,19.49980926513672,-16.011934280395508,22.039854049682617
1702137296772723700,12.4357236328125,17.201629638671875,-14.013877868652344,18.553985595703125
1702137296789720300,12.45272021484375,16.962724685668945,-12.7581787109375,15.754441261291504
1702137296806709800,12.469709716796874,18.09357261657715,-12.747614860534668,14.814471244812012
1702137296823700700,12.48670068359375,18.463804244995117,-12.753338813781738,14.324650764465332
1702137296840683500,12.50368359375,16.123937606811523,-13.668457984924316,15.893418312072754
1702137296857683500,12.520683349609374,12.821825981140137,-13.616315841674805,16.79058837890625
1702137296874676700,12.5376767578125,10.371256828308105,-14.691680908203125,18.810195922851562
1702137296891666400,12.55466650390625,9.123300552368164,-14.042346954345703,19.621746063232422
1702137296908659500,12.571659423828125,5.873560428619385,-13.882024765014648,22.066255569458008
1702137296925649400,12.5886494140625,-0.5262360572814941,-13.333337783813477,24.43928337097168
1702137296942635500,12.605635498046874,-6.354338645935059,-12.499645233154297,24.825706481933594
1702137296959633000,12.6226328125,-8.087387084960938,-14.16259765625,25.86260223388672
1702137296976625700,12.639625732421875,-3.7471516132354736,-17.3492431640625,25.312030792236328
1702137296993616000,12.656615966796876,2.6262381076812744,-18.530017852783203,23.110111236572266
1702137297010608600,12.673608642578126,6.716439723968506,-17.099031448364258,19.665271759033203
1702137297027599000,12.69059912109375,7.445949554443359,-14.460782051086426,16.94565773010254
1702137297044592000,12.707592041015625,3.691688299179077,-12.315389633178711,16.343372344970703
1702137297061581800,12.724581787109376,-1.5195198059082031,-12.684794425964355,17.12135887145996
1702137297078574800,12.741574951171875,-2.8662142753601074,-13.299022674560547,14.912164688110352
1702137297095565600,12.758565673828125,-1.659731388092041,-15.940585136413574,10.676023483276367
1702137297112558300,12.775558349609375,2.3070082664489746,-18.852970123291016,8.747697830200195
1702137297129548300,12.79254833984375,7.276115417480469,-21.13051414489746,10.457108497619629
1702137297146539800,12.809539794921875,10.392518997192383,-21.79761505126953,17.789609909057617
1702137297163531500,12.826531494140625,6.794482231140137,-22.069366455078125,22.30137062072754
1702137297180513500,12.843513427734376,1.6692852973937988,-19.30386734008789,14.0044527053833
1702137297197504800,12.8605048828125,2.8692572116851807,-21.72937774658203,9.766372680664062
1702137297214507500,12.877507568359375,6.4263811111450195,-23.87043571472168,14.208212852478027
1702137297231487200,12.8944873046875,6.220914363861084,-26.075992584228516,27.98350715637207
1702137297248490800,12.91149072265625,0.5454269051551819,-24.906129837036133,34.12960433959961
1702137297265478100,12.92847802734375,-1.0532481670379639,-24.032312393188477,32.33976364135742
1702137297282476300,12.945476318359376,4.010852336883545,-25.06217384338379,38.43375015258789
1702137297299462100,12.962462158203126,3.3798696994781494,-22.652584075927734,44.088165283203125
1702137297316459000,12.979458984375,-3.6849825382232666,-20.26180076599121,44.012577056884766
1702137297333447200,12.996447265625,-8.018423080444336,-22.71384620666504,45.00917053222656
1702137297350437400,13.013437255859374,-3.113929033279419,-29.057851791381836,48.72494125366211
1702137297367418400,13.03041845703125,4.491796493530273,-34.95880126953125,52.94514083862305
1702137297384400600,13.047400634765625,10.707221031188965,-35.99220657348633,55.455474853515625
1702137297401414400,13.064414306640625,12.545211791992188,-34.436546325683594,58.117347717285156
1702137297418408400,13.081408447265625,12.06601619720459,-33.734336853027344,57.161590576171875
1702137297435396400,13.098396240234376,12.604127883911133,-35.90995407104492,52.71098327636719
1702137297452389400,13.115389404296875,16.003679275512695,-38.40245819091797,45.47730255126953
1702137297469388800,13.132388916015625,19.323877334594727,-39.56241226196289,39.28792190551758
1702137297486372400,13.149372314453124,19.677143096923828,-40.22187423706055,35.292144775390625
1702137297503362800,13.16636279296875,17.948410034179688,-40.074337005615234,31.194507598876953
1702137297520355300,13.183355224609375,14.407221794128418,-39.925350189208984,24.98117446899414
1702137297537345500,13.200345458984375,12.32818603515625,-36.01913833618164,15.253715515136719
1702137297554338600,13.217338623046874,10.446674346923828,-31.191490173339844,10.075889587402344
1702137297571318500,13.234318603515625,9.711820602416992,-26.443843841552734,9.890373229980469
1702137297588319200,13.2513193359375,8.361125946044922,-23.25963592529297,10.370162010192871
1702137297605314000,13.26831396484375,6.840522289276123,-20.82740020751953,10.851629257202148
1702137297622285800,13.285285888671876,4.733590126037598,-19.04690170288086,10.843363761901855
1702137297639291000,13.302290771484374,2.4804491996765137,-19.13446044921875,11.459419250488281
1702137297656292000,13.3192919921875,2.290069103240967,-19.240020751953125,11.607208251953125
1702137297673278000,13.33627783203125,2.6785874366760254,-18.824247360229492,12.891321182250977
1702137297690270700,13.353270751953126,4.021388053894043,-19.082683563232422,14.371158599853516
1702137297707242500,13.370242431640625,5.680755615234375,-20.581735610961914,16.61122703552246
1702137297724243500,13.387243408203124,6.320493698120117,-22.341232299804688,19.124319076538086
1702137297741244200,13.404244140625,5.783855438232422,-24.501211166381836,20.841339111328125
1702137297758237000,13.42123681640625,6.028480052947998,-25.57076644897461,21.450450897216797
1702137297775227600,13.4382275390625,5.154038906097412,-27.149356842041016,24.769845962524414
1702137297792210200,13.455210205078124,3.6544203758239746,-28.567352294921875,27.746315002441406
1702137297809198000,13.472197998046875,1.4318033456802368,-28.949094772338867,27.806255340576172
1702137297826191000,13.489191162109375,1.1533284187316895,-30.16861343383789,26.330097198486328
1702137297843188000,13.50618798828125,5.1757097244262695,-31.392562866210938,26.273242950439453
1702137297860184600,13.5231845703125,6.818706512451172,-32.4595832824707,28.778446197509766
1702137297877174300,13.54017431640625,5.146471977233887,-32.4910888671875,29.01988410949707
1702137297894159000,13.5571591796875,6.878395080566406,-29.948814392089844,26.88671875
1702137297911149600,13.574149658203124,6.398711681365967,-30.795488357543945,29.347890853881836
1702137297928153300,13.5911533203125,6.014482498168945,-32.956764221191406,30.23645782470703
1702137297945137200,13.60813720703125,9.693077087402344,-31.886497497558594,30.67620277404785
1702137297962130700,13.625130615234376,10.232425689697266,-31.728607177734375,36.84638977050781
1702137297979119400,13.642119384765625,5.804762840270996,-29.027732849121094,39.410953521728516
1702137297996110600,13.659110595703124,1.0053224563598633,-24.35988998413086,33.765037536621094
1702137298013098800,13.6760986328125,0.33775269985198975,-20.7297306060791,32.34321975708008
1702137298030097700,13.69309765625,2.1777265071868896,-18.61586570739746,32.27507781982422
1702137298047082200,13.710082275390626,5.001636505126953,-17.07123565673828,31.200145721435547
1702137298064081400,13.727081298828125,6.632210731506348,-14.342122077941895,29.3548583984375
1702137298081074000,13.744073974609375,5.024477481842041,-11.897027015686035,29.21060562133789
1702137298098057500,13.761057373046874,-1.266711711883545,-8.327335357666016,27.790794372558594
1702137298115046700,13.778046630859375,-5.512609481811523,-5.309907913208008,24.690847396850586
1702137298132041500,13.79504150390625,-1.0745164155960083,-3.644665241241455,22.389297485351562
1702137298149035500,13.812035400390625,4.6449737548828125,-1.9724795818328857,22.64376449584961
1702137298166030000,13.829030029296876,5.574854850769043,-0.7340967655181885,21.827415466308594
1702137298183022800,13.84602294921875,1.8435490131378174,-0.02405571937561035,19.098142623901367
1702137298200011500,13.863011474609374,-1.706811547279358,0.16680645942687988,15.766580581665039
1702137298217007000,13.880007080078125,0.516460120677948,1.4670677185058594,12.308354377746582
1702137298234001000,13.8970009765625,2.6680445671081543,2.1471667289733887,12.168742179870605
1702137298251006500,13.91400634765625,3.0308518409729004,1.843367576599121,11.68921947479248
1702137298267970800,13.930970703125,3.445108413696289,1.8096592426300049,10.189779281616211
1702137298284976400,13.947976318359375,2.0707292556762695,1.7546005249023438,8.55759334564209
1702137298301962000,13.9649619140625,1.3542238473892212,1.3627986907958984,7.466038703918457
1702137298318954800,13.981954833984375,2.6821558475494385,1.067436695098877,6.600817680358887
1702137298335952600,13.99895263671875,3.80808162689209,0.9454078674316406,5.693754196166992
1702137298352929800,14.0159296875,3.732907295227051,0.5385599136352539,5.097289085388184
1702137298369932800,14.032932861328124,2.893187999725342,0.5192649364471436,4.23624324798584
1702137298386921200,14.049921142578125,1.5232173204421997,0.2232046127319336,3.409769058227539
1702137298403918300,14.06691845703125,0.5832468271255493,-0.18752384185791016,2.8569440841674805
1702137298420906500,14.083906494140624,0.3203866481781006,-1.1284337043762207,2.632411003112793
1702137298437899300,14.100899169921876,1.0013912916183472,-1.9747529029846191,2.78143310546875
1702137298454879000,14.11787890625,1.100907564163208,-2.604750871658325,3.3259525299072266
1702137298471882500,14.134882568359375,-0.2540920376777649,-2.895754098892212,2.7410993576049805
1702137298488872400,14.15187255859375,-1.4487452507019043,-2.7478127479553223,1.5188846588134766
1702137298505855000,14.16885498046875,-1.9081465005874634,-2.161318778991699,0.34787464141845703
1702137298522855000,14.18585498046875,-1.6889173984527588,-1.9373085498809814,-0.2355804443359375
1702137298539850000,14.20285009765625,-0.2667415142059326,-2.56451416015625,0.3432579040527344
1702137298556839000,14.2198388671875,2.162327527999878,-3.442157745361328,1.3218460083007812
1702137298573831700,14.236831787109375,4.337218761444092,-4.369763374328613,2.1680612564086914
1702137298590822100,14.253822265625,6.11160945892334,-5.207505226135254,2.8635473251342773
1702137298607812000,14.27081201171875,7.162865161895752,-5.830494403839111,2.4451818466186523
1702137298624807400,14.287807373046874,7.299921989440918,-6.380128860473633,1.0301685333251953
1702137298641795800,14.3047958984375,7.404279708862305,-6.403271198272705,-0.3811368942260742
1702137298658791000,14.321791015625,7.430452346801758,-6.659456253051758,-0.8159184455871582
1702137298675781400,14.338781494140624,7.0807905197143555,-7.054441928863525,-0.1419963836669922
1702137298692760600,14.355760498046875,6.738846778869629,-7.378591537475586,-0.17716217041015625
1702137298709754600,14.372754638671875,6.706641674041748,-7.365016937255859,-1.790543556213379
1702137298726756000,14.389756103515625,7.099147796630859,-6.89899206161499,-3.536694049835205
1702137298743744800,14.406744873046875,7.177306652069092,-6.2274861335754395,-4.217241287231445
1702137298760738000,14.423738037109375,6.739269256591797,-5.635601043701172,-3.6756038665771484
1702137298777730300,14.440730224609375,5.921987533569336,-4.945037841796875,-2.978102207183838
1702137298794720800,14.457720703125,5.404475688934326,-4.236726760864258,-2.176097869873047
1702137298811713500,14.474713623046876,4.52308988571167,-3.553668260574341,-2.3568649291992188
1702137298828703700,14.491703857421875,3.938690662384033,-2.6523730754852295,-3.416403293609619
1702137298845696300,14.5086962890625,3.3728222846984863,-1.8841896057128906,-3.957441806793213
1702137298862686700,14.525686767578126,3.309032440185547,-0.6612124443054199,-3.5012874603271484
1702137298879679700,14.5426796875,3.3587183952331543,1.1984634399414062,-1.936110019683838
1702137298896660000,14.559659912109375,2.522850513458252,4.160249710083008,0.8698520660400391
1702137298913649400,14.5766494140625,-1.534560203552246,6.76966667175293,3.3139028549194336
1702137298930642400,14.593642333984375,-5.932218074798584,8.819734573364258,3.417405128479004
1702137298947646000,14.61064599609375,-4.878327369689941,10.189262390136719,3.3279781341552734
1702137298964640000,14.627639892578125,-0.6837650537490845,10.651140213012695,4.674056053161621
1702137298981628200,14.644628173828124,2.529883623123169,11.485210418701172,6.588491439819336
1702137298998620000,14.661619873046876,1.4742109775543213,12.791412353515625,8.26757526397705
1702137299015612400,14.6786123046875,-2.6325972080230713,12.993789672851562,10.978777885437012
1702137299032599600,14.695599609375,-7.039247989654541,12.302852630615234,12.524874687194824
1702137299049597400,14.712597412109375,-8.120361328125,10.641410827636719,11.300203323364258
1702137299066585600,14.729585693359375,-4.292365074157715,8.088062286376953,9.95595932006836
1702137299083578400,14.746578369140625,-0.40522098541259766,5.995636940002441,8.923982620239258
1702137299100568300,14.763568359375,2.0930042266845703,3.5132083892822266,8.491790771484375
1702137299117561000,14.78056103515625,3.6777567863464355,0.5202479362487793,7.208143711090088
1702137299134551800,14.7975517578125,3.3059797286987305,-2.839529514312744,4.265987396240234
1702137299151534800,14.814534912109375,1.7866768836975098,-5.766050338745117,1.245671272277832
1702137299168533000,14.831532958984376,0.5873709917068481,-7.825822353363037,-1.123915672302246
1702137299185528600,14.848528564453124,-0.22310233116149902,-9.192254066467285,-2.8625411987304688
1702137299202518000,14.86551806640625,0.2849273681640625,-9.78150463104248,-4.568160057067871
1702137299219510800,14.8825107421875,1.218916893005371,-10.073284149169922,-5.805643558502197
1702137299236500700,14.899500732421876,1.9435395002365112,-9.799423217773438,-7.0265913009643555
1702137299253484300,14.916484375,1.9007047414779663,-9.936665534973145,-7.03163480758667
1702137299270484000,14.93348388671875,1.5122082233428955,-10.068437576293945,-6.54851770401001
1702137299287477000,14.95047705078125,0.7254085540771484,-10.537332534790039,-5.860828876495361
1702137299304466700,14.967466796875,-0.2119746208190918,-11.032092094421387,-5.565730094909668
1702137299321449200,14.98444921875,-0.7456858158111572,-11.688919067382812,-5.889075756072998
1702137299338450400,15.001450439453125,0.0754854679107666,-12.074838638305664,-6.532000541687012
1702137299355443200,15.018443115234374,0.28657078742980957,-12.956951141357422,-6.599390983581543
1702137299372433200,15.03543310546875,0.15296578407287598,-13.804759979248047,-6.3886919021606445
1702137299389426000,15.052426025390625,-0.414512038230896,-15.33969497680664,-4.882122993469238
1702137299406416400,15.06941650390625,-1.0592747926712036,-16.422679901123047,-3.8381686210632324
1702137299423409400,15.086409423828124,-1.2570780515670776,-18.342201232910156,-1.4547730684280396
1702137299440399400,15.1033994140625,-1.0070796012878418,-19.75672149658203,0.34796571731567383
1702137299457392400,15.120392333984375,-1.692227840423584,-20.774276733398438,2.2207870483398438
1702137299474380000,15.137380126953126,-3.6739425659179688,-22.20839500427246,3.5751442909240723
1702137299491369500,15.154369384765625,-4.5043044090271,-24.13160514831543,5.905682563781738
1702137299508365600,15.171365478515625,-1.530526876449585,-25.339725494384766,11.336982727050781
1702137299525355500,15.18835546875,0.3492882251739502,-24.931262969970703,17.854999542236328
1702137299542339300,15.20533935546875,-1.2513618469238281,-22.66086196899414,21.612478256225586
1702137299559341800,15.222341796875,-4.996847629547119,-20.227088928222656,22.96584701538086
1702137299576331800,15.239331787109375,-9.385621070861816,-19.194557189941406,26.30851173400879
1702137299593324500,15.256324462890625,-11.341158866882324,-19.10418701171875,31.531219482421875
1702137299610315300,15.273315185546876,-10.764289855957031,-19.206096649169922,34.95246124267578
1702137299627308000,15.29030810546875,-7.949629306793213,-19.67649269104004,35.78324890136719
1702137299644280800,15.30728076171875,-3.2647910118103027,-19.0297908782959,35.57691955566406
1702137299661280000,15.324280029296874,0.0654723048210144,-16.893573760986328,36.1165771484375
1702137299678281500,15.341281494140626,0.3057039976119995,-14.497900009155273,37.08992385864258
1702137299695263700,15.358263671875,-0.9123702049255371,-12.37802791595459,37.74778747558594
1702137299712254700,15.375254638671874,-0.14195942878723145,-11.536632537841797,38.96258544921875
1702137299729258800,15.3922587890625,3.1528656482696533,-12.699448585510254,39.274932861328125
1702137299746245600,15.40924560546875,7.110652923583984,-14.463494300842285,37.607383728027344
1702137299763240400,15.426240478515625,11.808679580688477,-15.637365341186523,35.01078796386719
1702137299780226300,15.443226318359375,13.835968017578125,-17.50863265991211,34.7562141418457
1702137299797227300,15.460227294921875,13.879743576049805,-19.11933135986328,32.12123489379883
1702137299814213600,15.477213623046875,12.81279182434082,-19.924091339111328,25.899187088012695
1702137299831196400,15.494196533203125,14.809100151062012,-18.277427673339844,18.6773681640625
1702137299848185900,15.511185791015626,18.717769622802734,-15.969619750976562,16.56891632080078
1702137299865189400,15.528189453125,19.20343017578125,-12.751199722290039,15.751489639282227
1702137299882179800,15.545179931640625,14.789258003234863,-11.62673282623291,15.92084789276123
1702137299899172600,15.562172607421875,10.292800903320312,-12.137736320495605,15.914794921875
1702137299916162800,15.579162841796874,8.793986320495605,-13.314960479736328,15.45142936706543
1702137299933168600,15.596168701171875,8.619195938110352,-14.166884422302246,16.511812210083008
1702137299950145800,15.613145751953125,7.462134838104248,-15.076824188232422,17.383743286132812
1702137299967125500,15.63012548828125,5.3534932136535645,-15.919488906860352,17.63201904296875
1702137299984129000,15.64712890625,3.917942523956299,-16.264381408691406,17.452884674072266
1702137300001121800,15.664121826171876,3.151887893676758,-16.56137466430664,17.889427185058594
1702137300018104000,15.68110400390625,2.9308605194091797,-16.19062042236328,19.37052345275879
1702137300035105000,15.69810498046875,2.1112544536590576,-15.416671752929688,21.491695404052734
1702137300052095700,15.715095703125,0.648223340511322,-14.808318138122559,22.821149826049805
1702137300069088000,15.732087890625,-1.7768356800079346,-13.309185028076172,23.052955627441406
1702137300086078500,15.749078369140625,-5.053655624389648,-12.473258018493652,22.39022445678711
1702137300103071000,15.766071044921874,-6.781345367431641,-11.961400032043457,21.52570343017578
1702137300120059000,15.783058837890625,-5.951301574707031,-11.40523910522461,20.56949806213379
1702137300137056800,15.800056884765626,-4.201499938964844,-11.43879508972168,19.830219268798828
1702137300154040300,15.817040283203125,-2.789252758026123,-12.06339168548584,18.584379196166992
1702137300171026700,15.834026611328126,-3.6095786094665527,-12.600269317626953,16.40880012512207
1702137300188024600,15.851024658203125,-5.249727249145508,-13.505204200744629,12.930299758911133
1702137300205028000,15.868028076171875,-4.573576927185059,-14.45095443725586,7.683030128479004
1702137300222009000,15.885009033203126,-0.8250203132629395,-16.624631881713867,3.995593786239624
1702137300239003000,15.9020029296875,4.719758033752441,-17.964923858642578,4.979905128479004
1702137300255993300,15.918993408203125,6.158358573913574,-19.679903030395508,9.422307014465332
1702137300272989000,15.935989013671875,5.300156593322754,-20.941177368164062,11.545514106750488
1702137300289976800,15.952976806640624,4.510493755340576,-19.687557220458984,7.048348903656006
1702137300306967000,15.969967041015625,6.220789432525635,-18.82549285888672,4.631401538848877
1702137300323962600,15.986962646484375,7.234858989715576,-20.80421257019043,10.512906074523926
1702137300340939800,16.003939697265626,8.239038467407227,-21.986488342285156,21.542800903320312
1702137300357937000,16.02093701171875,4.995686054229736,-21.790903091430664,28.97760581970215
1702137300374938400,16.0379384765625,2.2352523803710938,-20.7374210357666,29.27548599243164
1702137300391926000,16.054926025390625,4.121635437011719,-21.069578170776367,31.350021362304688
1702137300408905000,16.071905029296875,6.6090989112854,-20.716943740844727,36.72113037109375
1702137300425905400,16.088905517578127,4.543278694152832,-18.93596649169922,40.8875617980957
1702137300442905600,16.105905517578126,-1.7891252040863037,-16.75691795349121,41.2563362121582
1702137300459892200,16.122892333984375,-6.956794738769531,-18.44460678100586,42.503543853759766
1702137300476885000,16.139885009765624,-5.1162638664245605,-23.419599533081055,49.12639236450195
1702137300493875500,16.15687548828125,0.36445116996765137,-26.020288467407227,54.92143249511719
1702137300510868500,16.173868408203123,5.391901016235352,-25.048410415649414,54.43583297729492
1702137300527855600,16.190855712890624,7.721630573272705,-23.868270874023438,52.18525314331055
1702137300544853500,16.207853515625,7.652468681335449,-25.34089469909668,51.331809997558594
1702137300561841700,16.224841552734375,8.579534530639648,-26.448183059692383,48.97398376464844
1702137300578834400,16.24183447265625,11.067893028259277,-28.646240234375,48.855987548828125
1702137300595824400,16.258824462890626,14.64055347442627,-30.76184844970703,46.019081115722656
1702137300612817200,16.275817138671876,17.45275115966797,-31.73163604736328,38.78519058227539
1702137300629807900,16.292807861328125,17.566184997558594,-31.172834396362305,30.315887451171875
1702137300646800000,16.3097998046875,15.285941123962402,-30.128992080688477,24.906558990478516
1702137300663791000,16.326791015625,10.878938674926758,-29.974472045898438,21.92428207397461
1702137300680783400,16.343783447265626,7.408662796020508,-31.10250473022461,18.692716598510742
1702137300697773800,16.36077392578125,6.84412145614624,-30.270572662353516,13.615795135498047
1702137300714765800,16.377765869140624,7.6634979248046875,-27.023496627807617,9.352307319641113
1702137300731757600,16.394757568359374,6.914996147155762,-23.98072052001953,8.629990577697754
1702137300748749800,16.411749755859375,5.546455383300781,-21.342369079589844,8.866103172302246
1702137300765740000,16.428739990234376,4.353087425231934,-18.90552520751953,9.38850212097168
1702137300782732800,16.44573291015625,3.4888687133789062,-16.400358200073242,10.140044212341309
1702137300799722800,16.46272265625,3.444619655609131,-14.899088859558105,10.609241485595703
1702137300816705300,16.479705322265627,4.384545803070068,-13.665037155151367,11.172422409057617
1702137300833706200,16.496706298828126,4.616840839385986,-13.146296501159668,13.471853256225586
1702137300850705000,16.513704833984374,3.137946605682373,-13.889860153198242,15.946510314941406
1702137300867689200,16.530689208984374,2.6733875274658203,-15.197493553161621,17.43000030517578
1702137300884682000,16.547681884765623,4.100824356079102,-17.17893409729004,18.011077880859375
1702137300901662000,16.564661865234374,6.390407085418701,-18.230026245117188,17.414684295654297
1702137300918663200,16.5816630859375,7.778082847595215,-19.585758209228516,17.507953643798828
1702137300935657500,16.598657470703124,6.269242763519287,-22.194429397583008,19.407001495361328
1702137300952648200,16.615648193359377,4.0523529052734375,-24.2785701751709,23.285205841064453
1702137300969638400,16.632638427734374,2.340987205505371,-25.275863647460938,23.96728515625
1702137300986631400,16.64963134765625,2.644303798675537,-27.692279815673828,23.882341384887695
1702137301003621400,16.666621337890625,5.0256242752075195,-32.461029052734375,24.286508560180664
1702137301020614400,16.683614501953127,10.233792304992676,-35.965816497802734,24.548656463623047
1702137301037586200,16.700586181640624,13.50613784790039,-33.971500396728516,27.335731506347656
1702137301054597600,16.71759765625,5.513248920440674,-35.452049255371094,33.045066833496094
1702137301071587600,16.734587646484375,0.2550660967826843,-34.028465270996094,30.953458786010742
1702137301088578000,16.751578125,2.2135908603668213,-32.78383255004883,29.71320152282715
1702137301105563600,16.768563720703124,4.887077331542969,-31.72077751159668,35.20060348510742
1702137301122563800,16.785563720703124,6.495617866516113,-31.621875762939453,39.579490661621094
1702137301139544800,16.802544921875,13.163589477539062,-25.815935134887695,35.80035400390625
1702137301156544300,16.819544189453126,13.592935562133789,-20.16839599609375,33.78639221191406
1702137301173539800,16.836539794921876,5.424997329711914,-17.202587127685547,36.55771255493164
1702137301190530000,16.853530029296873,-3.186556816101074,-13.275846481323242,36.329261779785156
1702137301207519700,16.870519775390626,-3.8380298614501953,-9.223618507385254,33.227447509765625
1702137301224512800,16.8875126953125,1.6227333545684814,-7.525321960449219,32.47919464111328
1702137301241503500,16.90450341796875,4.816009998321533,-4.12623405456543,30.194713592529297
1702137301258498000,16.921498046875,0.8279503583908081,-1.3557324409484863,27.74135971069336
1702137301275488000,16.938488037109376,-0.6185718178749084,1.427699327468872,24.477882385253906
1702137301292466000,16.9554658203125,2.491180896759033,2.8941755294799805,24.518888473510742
1702137301309462300,16.972462158203125,5.268877983093262,3.902984142303467,25.66118621826172
1702137301326449700,16.98944970703125,4.384072303771973,6.686634063720703,24.717845916748047
1702137301343442700,17.006442626953124,1.1098217964172363,6.7065043449401855,20.94356918334961
1702137301360447500,17.023447509765624,2.0055413246154785,7.187961578369141,16.21542739868164
1702137301377428500,17.040428466796875,3.5695788860321045,5.949294090270996,14.972064018249512
1702137301394425300,17.05742529296875,3.9275100231170654,4.966324329376221,13.355711936950684
1702137301411406800,17.07440673828125,2.256979465484619,3.4209365844726562,10.904675483703613
1702137301428401200,17.091401123046875,0.6663948893547058,2.3127050399780273,8.31334400177002
1702137301445396000,17.10839599609375,0.2637906074523926,0.9044039249420166,6.427712440490723
1702137301462393000,17.12539306640625,0.971779465675354,-0.42215096950531006,4.53004264831543
1702137301479374800,17.142374755859375,2.1801109313964844,-1.806589961051941,2.964984893798828
1702137301496372200,17.159372314453126,2.7133333683013916,-3.014955997467041,1.8501148223876953
1702137301513364000,17.176364013671876,1.8925400972366333,-3.921619415283203,1.1767425537109375
1702137301530359300,17.193359375,0.9373011589050293,-4.3881144523620605,0.6489400863647461
1702137301547343600,17.210343505859374,0.4744241237640381,-4.767035484313965,0.01888275146484375
1702137301564342000,17.227342041015625,0.8081691861152649,-5.01062536239624,-0.7749261856079102
1702137301581325300,17.2443251953125,1.2160284519195557,-5.118136882781982,-1.567540168762207
1702137301598316000,17.26131591796875,1.5159039497375488,-5.150628089904785,-2.3333630561828613
1702137301615307300,17.278307373046875,1.7605891227722168,-4.905043601989746,-2.459622859954834
1702137301632301600,17.295301513671873,2.239983320236206,-4.449239253997803,-2.201925754547119
1702137301649295600,17.312295654296875,2.5287160873413086,-4.051820755004883,-1.7419333457946777
1702137301666285300,17.329285400390624,2.7735183238983154,-3.7390732765197754,-1.0695648193359375
1702137301683280000,17.34627978515625,3.031343936920166,-3.437185287475586,-0.8961715698242188
1702137301700274200,17.363274169921876,3.194650888442993,-3.2744178771972656,-0.9748635292053223
1702137301717256000,17.380255859375,3.725205183029175,-3.2814388275146484,-1.0532994270324707
1702137301734254300,17.39725439453125,4.463078498840332,-3.2500414848327637,-1.2552485466003418
1702137301751241200,17.4142412109375,4.948261260986328,-3.442767858505249,-0.8802533149719238
1702137301768229000,17.43122900390625,5.058347702026367,-3.5452466011047363,-0.05396747589111328
1702137301785232000,17.44823193359375,5.244289398193359,-3.3349878787994385,0.056395530700683594
1702137301802228700,17.465228759765626,5.040342330932617,-3.2043099403381348,-0.07729148864746094
1702137301819215600,17.482215576171875,4.720790863037109,-2.8293333053588867,-0.16934490203857422
1702137301836208400,17.49920849609375,4.4646124839782715,-2.238982915878296,-0.2888641357421875
1702137301853198600,17.516198486328125,4.107247829437256,-1.6881585121154785,-0.16510391235351562
1702137301870191900,17.53319189453125,3.42171573638916,-1.6752140522003174,0.457489013671875
1702137301887179000,17.550178955078124,2.8757619857788086,-1.625754475593567,0.9418458938598633
1702137301904177000,17.567177001953127,2.65968656539917,-1.3321177959442139,0.8757638931274414
1702137301921165000,17.5841650390625,2.696441888809204,-0.5574686527252197,0.6132802963256836
1702137301938157800,17.60115771484375,2.176949977874756,0.2900965213775635,-0.2474069595336914
1702137301955147800,17.618147705078126,0.8107593059539795,0.8853428363800049,-0.8391537666320801
1702137301972140300,17.635140380859376,-0.5515670776367188,1.2752768993377686,-0.1719980239868164
1702137301989131300,17.65213134765625,-1.1185898780822754,1.5079143047332764,0.6897735595703125
1702137302006108000,17.66910791015625,-0.40659236907958984,2.2511603832244873,1.4193029403686523
1702137302023112700,17.68611279296875,0.5277535915374756,3.298609972000122,2.5930423736572266
1702137302040104200,17.703104248046873,1.072502613067627,4.54472541809082,3.287489891052246
1702137302057097500,17.720097412109375,-0.04657435417175293,5.752711296081543,3.415318489074707
1702137302074087400,17.73708740234375,-2.12886643409729,6.954463005065918,4.52528190612793
1702137302091080200,17.754080078125,-4.0411176681518555,8.114690780639648,7.808388710021973
1702137302108077300,17.771077392578125,-5.189892768859863,8.952201843261719,9.201666831970215
1702137302125062000,17.788061767578125,-4.717583656311035,9.519745826721191,9.584371566772461
1702137302142056400,17.805056396484375,-4.457100868225098,10.668289184570312,8.696149826049805
1702137302159035600,17.82203564453125,-4.2811760902404785,11.005332946777344,8.99140739440918
1702137302176041500,17.83904150390625,-3.1663131713867188,9.424321174621582,9.917364120483398
1702137302193027600,17.856027587890626,-1.3840279579162598,6.159117221832275,9.353994369506836
1702137302210022700,17.873022705078125,-0.1643214225769043,1.995771884918213,5.879750728607178
1702137302227014700,17.8900146484375,0.4782068729400635,-1.6134390830993652,1.59635591506958
1702137302244003000,17.907003173828127,0.8964250087738037,-4.976146697998047,-1.4898920059204102
1702137302260995800,17.923995849609376,1.1355154514312744,-7.15681266784668,-3.5735325813293457
1702137302277988600,17.940988525390626,1.344444990158081,-8.422036170959473,-4.785688400268555
1702137302294968000,17.957968017578125,1.5153419971466064,-9.213454246520996,-5.6571879386901855
1702137302311971600,17.9749716796875,1.33748459815979,-10.409086227416992,-6.253665447235107
1702137302328962000,17.991962158203126,0.9051523208618164,-12.293105125427246,-6.729882717132568
1702137302345954800,18.008954833984376,2.499312400817871,-13.49838924407959,-7.633152961730957
1702137302362942500,18.0259423828125,5.3147478103637695,-12.915407180786133,-9.212158203125
1702137302379940000,18.042940185546875,7.034668445587158,-12.282136917114258,-8.802732467651367
1702137302396916200,18.059916259765625,6.551950454711914,-12.481361389160156,-7.94605016708374
1702137302413918500,18.07691845703125,4.851529121398926,-13.589298248291016,-5.301845550537109
1702137302430913300,18.093913330078124,1.6453657150268555,-13.41041088104248,-2.652125835418701
1702137302447901200,18.110901123046876,-0.44049692153930664,-13.872652053833008,-4.048738956451416
1702137302464897300,18.127897216796875,-0.834869384765625,-14.86381721496582,-1.5778391361236572
1702137302481887000,18.144886962890624,2.927212715148926,-16.873470306396484,-1.5295904874801636
1702137302498877400,18.16187744140625,5.754051685333252,-18.70049285888672,-0.15346503257751465
1702137302515870000,18.178869873046875,4.73371696472168,-19.704174041748047,1.4566798210144043
1702137302532853500,18.195853515625,1.3011232614517212,-21.201011657714844,5.21329927444458
1702137302549853400,18.212853515625,-1.373193383216858,-22.852521896362305,9.58713436126709
1702137302566843100,18.229843017578126,-2.272113084793091,-23.866958618164062,14.232572555541992
1702137302583825700,18.24682568359375,-3.236464023590088,-23.38677215576172,18.50295639038086
1702137302600827000,18.263826904296874,-5.734267711639404,-21.54292869567871,19.899986267089844
1702137302617819400,18.2808193359375,-8.867616653442383,-19.021467208862305,19.04215431213379
1702137302634798300,18.29779833984375,-11.754725456237793,-17.49735450744629,22.02678680419922
1702137302651790600,18.31479052734375,-13.752952575683594,-17.643417358398438,29.941524505615234
1702137302668795400,18.33179541015625,-14.722146034240723,-17.398359298706055,35.390724182128906
1702137302685785900,18.348785888671873,-12.4732666015625,-17.57979393005371,37.60005569458008
1702137302702775800,18.36577587890625,-9.597901344299316,-18.183956146240234,40.121253967285156
1702137302719768300,18.382768310546876,-5.52072811126709,-17.17005157470703,40.83993911743164
1702137302736759000,18.399759033203125,0.14706158638000488,-15.222411155700684,41.07550048828125
1702137302753751800,18.416751708984375,4.587406158447266,-13.269580841064453,43.180755615234375
1702137302770741500,18.433741455078124,6.879491806030273,-13.114764213562012,42.831851959228516
1702137302787724000,18.45072412109375,10.085247993469238,-13.161495208740234,39.24994659423828
1702137302804722700,18.46772265625,14.805054664611816,-13.854483604431152,36.411949157714844
1702137302821720800,18.484720947265625,18.74418067932129,-14.8247709274292,37.60287857055664
1702137302838701300,18.501701416015624,17.67930030822754,-18.667390823364258,38.61622619628906
1702137302855700200,18.5187001953125,13.955479621887207,-22.691608428955078,35.82459259033203
1702137302872692200,18.535692138671877,12.502992630004883,-26.462772369384766,28.710453033447266
1702137302889684000,18.55268408203125,16.59025001525879,-26.511871337890625,21.419815063476562
1702137302906674000,18.569673828125,21.659591674804688,-22.2191104888916,18.052146911621094
1702137302923666700,18.586666748046873,19.786861419677734,-19.212299346923828,17.102680206298828
1702137302940657400,18.603657470703126,14.4707670211792,-17.093181610107422,15.111675262451172
1702137302957650400,18.620650390625,9.344788551330566,-15.606456756591797,13.43359661102295
1702137302974644000,18.63764404296875,7.660590171813965,-15.922760009765625,12.924461364746094
1702137302991633200,18.654633056640623,8.412296295166016,-16.182083129882812,13.761348724365234
1702137303008621000,18.67162109375,9.855817794799805,-16.635498046875,16.322471618652344
1702137303025601000,18.68860107421875,10.045867919921875,-16.1910343170166,18.22096061706543
1702137303042606300,18.7056064453125,6.255336761474609,-15.472186088562012,19.153724670410156
1702137303059599000,18.72259912109375,-0.8074179291725159,-14.920306205749512,20.07376480102539
1702137303076578600,18.73957861328125,-5.539820194244385,-14.615652084350586,21.931304931640625
1702137303093582600,18.75658251953125,-7.227504730224609,-15.25650405883789,23.842479705810547
1702137303110572300,18.773572265625,-5.243471145629883,-16.70047378540039,25.296865463256836
1702137303127565600,18.790565673828127,-1.7825144529342651,-16.65581703186035,23.98165512084961
1702137303144555800,18.8075556640625,1.4323515892028809,-14.84675121307373,20.621543884277344
1702137303161546000,18.8245458984375,2.2356679439544678,-12.13528823852539,17.977298736572266
1702137303178541300,18.841541259765624,0.9063701629638672,-9.74670696258545,17.828380584716797
1702137303195531800,18.85853173828125,-2.8854448795318604,-8.432366371154785,18.315784454345703
1702137303212521700,18.875521728515626,-6.829319953918457,-8.490079879760742,17.184192657470703
1702137303229514800,18.8925146484375,-5.256559371948242,-9.450620651245117,14.804224967956543
1702137303246501000,18.909501220703124,-0.9002199172973633,-10.522558212280273,12.61479377746582
1702137303263501300,18.926501220703123,1.7507719993591309,-11.479059219360352,12.813175201416016
1702137303280488200,18.94348828125,1.7367067337036133,-12.667130470275879,15.937822341918945
1702137303297481000,18.96048095703125,0.3830223083496094,-12.881070137023926,18.233814239501953
1702137303314471000,18.977470947265626,-0.6962661743164062,-14.043188095092773,19.281970977783203
1702137303331464400,18.99446435546875,-1.8868918418884277,-15.432984352111816,16.056182861328125
1702137303348463400,19.01146337890625,0.47252941131591797,-17.81964111328125,12.495674133300781
1702137303365447200,19.028447265625,6.742163181304932,-20.183696746826172,13.36332893371582
1702137303382437000,19.04543701171875,8.932233810424805,-20.11090850830078,18.665258407592773
1702137303399430000,19.062429931640626,6.557936668395996,-20.762630462646484,25.648672103881836
1702137303416420600,19.079420654296875,3.798426866531372,-19.901519775390625,28.005603790283203
1702137303433413400,19.096413330078125,4.011837959289551,-19.367794036865234,29.533138275146484
1702137303450392800,19.113392822265624,5.6061177253723145,-17.233549118041992,34.66310119628906
1702137303467396000,19.13039599609375,1.0685170888900757,-15.819002151489258,40.05294418334961
1702137303484386300,19.14738623046875,-4.987171173095703,-14.492844581604004,40.417236328125
1702137303501368600,19.16436865234375,-7.187121391296387,-15.207695960998535,42.12137222290039
1702137303518369500,19.18136962890625,-5.127708435058594,-17.286052703857422,45.34254837036133
1702137303535364600,19.198364501953126,-1.868077278137207,-20.758716583251953,50.48817443847656
1702137303552342800,19.2153427734375,2.24939227104187,-21.65185546875,54.912811279296875
1702137303569343000,19.232343017578124,4.837708473205566,-20.80238151550293,56.13644790649414
1702137303586338000,19.249338134765626,6.335333347320557,-21.2464656829834,55.18178939819336
1702137303603328000,19.266327880859375,7.768733024597168,-24.2133846282959,53.541866302490234
1702137303620319000,19.283319091796876,11.241544723510742,-28.305038452148438,50.85410690307617
1702137303637311500,19.3003115234375,15.262469291687012,-31.437908172607422,44.54022216796875
1702137303654302000,19.317302001953124,17.516714096069336,-33.86436462402344,37.881893157958984
1702137303671283700,19.33428369140625,16.915319442749023,-34.61679458618164,33.16952896118164
1702137303688285000,19.351284912109374,13.832868576049805,-34.2399787902832,27.803348541259766
1702137303705269800,19.368269775390626,10.921213150024414,-31.890827178955078,21.83633041381836
1702137303722267000,19.385266845703125,8.616413116455078,-28.070960998535156,17.711530685424805
1702137303739261400,19.402261474609375,7.20670223236084,-23.43667984008789,14.671343803405762
1702137303756251400,19.41925146484375,4.18078088760376,-19.04732894897461,12.941015243530273
1702137303773244000,19.436243896484374,-0.044866085052490234,-16.468496322631836,12.475266456604004
1702137303790233900,19.45323388671875,-2.167076587677002,-15.364238739013672,10.103107452392578
1702137303807226600,19.4702265625,0.1885242462158203,-13.81800365447998,8.473377227783203
1702137303824217000,19.487217041015626,3.291980743408203,-12.524650573730469,10.097476959228516
1702137303841210000,19.504210205078124,4.298092842102051,-11.860733985900879,13.275506973266602
1702137303858197500,19.521197509765624,1.174530029296875,-11.194181442260742,14.378019332885742
1702137303875195400,19.5381953125,-1.473860263824463,-11.157723426818848,13.211368560791016
1702137303892179700,19.5551796875,-1.4734530448913574,-12.138165473937988,11.575979232788086
1702137303909175000,19.572175048828125,0.3828611373901367,-13.7942476272583,13.302023887634277
1702137303926167300,19.589167236328127,2.616356611251831,-16.973440170288086,17.174713134765625
1702137303943159000,19.606158935546876,5.144561767578125,-20.20970916748047,18.196762084960938
1702137303960149500,19.6231494140625,7.304993629455566,-19.478668212890625,16.099929809570312
1702137303977142800,19.640142822265624,7.507655620574951,-20.710803985595703,17.219402313232422
1702137303994122200,19.657122314453126,6.066305637359619,-24.348134994506836,23.6796817779541
1702137304011125200,19.674125244140626,5.589719295501709,-26.31003189086914,30.28216552734375
1702137304028122400,19.691122314453125,4.645395755767822,-27.077003479003906,30.854782104492188
1702137304045108500,19.7081083984375,4.411254405975342,-29.442317962646484,29.322477340698242
1702137304062098400,19.725098388671874,4.098628044128418,-32.49176788330078,32.63227081298828
1702137304079091500,19.742091552734376,0.3772539496421814,-34.28973388671875,38.59709548950195
1702137304096082000,19.75908203125,0.32265257835388184,-32.338890075683594,35.276214599609375
1702137304113074400,19.776074462890627,1.8362839221954346,-30.591564178466797,31.809667587280273
1702137304130062800,19.793062744140624,3.0993287563323975,-31.214523315429688,33.334434509277344
1702137304147054800,19.810054931640625,3.0459377765655518,-31.952587127685547,36.59003829956055
1702137304164050400,19.827050537109375,5.190859794616699,-27.628173828125,36.00814437866211
1702137304181041000,19.844041015625,2.3538811206817627,-26.322052001953125,38.505069732666016
1702137304198030600,19.861030517578126,1.0160765647888184,-22.596881866455078,36.46387481689453
1702137304215022600,19.878022705078124,1.2440959215164185,-17.84000015258789,31.718910217285156
1702137304231996000,19.894995849609376,1.8740830421447754,-15.403823852539062,31.667552947998047
1702137304249004500,19.912004638671874,1.9714367389678955,-13.989411354064941,32.534969329833984
1702137304265999400,19.928999267578124,2.191169500350952,-10.840347290039062,30.55251693725586
1702137304282987300,19.9459873046875,0.8524045944213867,-7.343254566192627,29.07500457763672
1702137304299983000,19.962983154296875,-1.9962246417999268,-4.137808322906494,29.490264892578125
1702137304316973000,19.97997314453125,-2.7083253860473633,-1.614236831665039,27.27927589416504
1702137304333963000,19.996962890625,1.7715332508087158,0.6825456023216248,24.711917877197266
1702137304350955800,20.013955810546875,5.003923416137695,1.634140968322754,24.88112449645996
1702137304367937500,20.0309375,4.139355182647705,3.1915364265441895,22.533432006835938
1702137304384941600,20.047941650390626,1.548701524734497,4.741683006286621,18.167577743530273
1702137304401929200,20.06492919921875,0.8163255453109741,5.68873405456543,15.932866096496582
1702137304418916000,20.081916015625,1.6506506204605103,5.457097053527832,15.963286399841309
1702137304435912700,20.09891259765625,2.3516695499420166,4.340433120727539,15.035592079162598
1702137304452905200,20.1159052734375,3.5024070739746094,4.192572593688965,11.761216163635254
1702137304469892600,20.132892578125,4.5482892990112305,3.044074058532715,9.357200622558594
1702137304486890800,20.149890869140624,4.68959379196167,3.017266273498535,7.331195831298828
1702137304503891500,20.166891357421875,2.40097713470459,1.9122447967529297,7.20928955078125
1702137304520871400,20.183871337890626,-0.40093234181404114,0.8568122386932373,6.399326324462891
1702137304537859300,20.200859375,-1.8529127836227417,-0.4142487049102783,5.027469635009766
1702137304554856400,20.2178564453125,-1.015953779220581,-1.7494447231292725,3.731107711791992
1702137304571844600,20.2348447265625,0.9674259424209595,-3.310319423675537,2.8041086196899414
1702137304588837600,20.251837646484375,3.1140379905700684,-4.609803199768066,1.8336753845214844
1702137304605815600,20.268815673828126,4.289450168609619,-5.562473773956299,0.8104591369628906
1702137304622817800,20.28581787109375,3.6485323905944824,-6.274990558624268,-0.10584545135498047
1702137304639813400,20.3028134765625,2.553325891494751,-6.979337692260742,-0.5391931533813477
1702137304656803800,20.319803955078125,1.824336051940918,-7.233892440795898,-1.390608787536621
1702137304673793800,20.336793701171874,1.3144863843917847,-7.133303165435791,-2.1958394050598145
1702137304690786300,20.353786376953124,1.3972619771957397,-6.718914031982422,-2.815361499786377
1702137304707780000,20.370780029296874,1.3786054849624634,-6.456112384796143,-3.1663246154785156
1702137304724766500,20.387766357421874,1.5715045928955078,-6.0657525062561035,-3.3964176177978516
1702137304741749200,20.404749267578126,1.596899390220642,-5.699211120605469,-3.0373363494873047
1702137304758752800,20.421752685546874,2.183614492416382,-4.842818260192871,-2.9745302200317383
1702137304775743200,20.4387431640625,2.7605042457580566,-4.179060935974121,-2.7768187522888184
1702137304792723200,20.45572314453125,3.1495251655578613,-3.914238929748535,-2.1342883110046387
1702137304809728800,20.472728759765626,3.494478225708008,-3.7089295387268066,-1.427506446838379
1702137304826706200,20.4897060546875,3.8642890453338623,-3.337165117263794,-1.153280258178711
1702137304843701500,20.506701416015623,3.8873980045318604,-2.9701995849609375,-0.9519400596618652
1702137304860702000,20.523701904296875,3.6057567596435547,-2.9359352588653564,-0.7307181358337402
1702137304877681000,20.540680908203125,3.655728340148926,-2.9891207218170166,-0.8316435813903809
1702137304894674000,20.557673828125,4.462153434753418,-2.9223074913024902,-0.5365509986877441
1702137304911664400,20.574664306640624,5.688718795776367,-2.381558418273926,-0.35697364807128906
1702137304928661000,20.591660888671875,6.176242828369141,-2.111983299255371,0.2866239547729492
1702137304945652000,20.60865185546875,6.22052001953125,-2.2768216133117676,0.18665790557861328
1702137304962644700,20.625644775390626,6.6429948806762695,-2.689326524734497,-0.13884639739990234
1702137304979634700,20.642634765625,7.137601375579834,-2.6039316654205322,-0.03080272674560547
1702137304996623000,20.659623046875,6.620562553405762,-1.9748703241348267,1.1241865158081055
1702137305013614300,20.6766142578125,5.816741466522217,-1.504673957824707,2.439089775085449
1702137305030608600,20.693608642578123,4.9049391746521,-0.7122740745544434,2.375199317932129
1702137305047601200,20.71060107421875,5.237892150878906,0.5112361907958984,2.0104598999023438
1702137305064592400,20.72759228515625,4.995134353637695,1.7387604713439941,3.072321891784668
1702137305081580500,20.74458056640625,2.933137893676758,3.024034023284912,4.33878231048584
1702137305098575000,20.7615751953125,-0.7285029888153076,4.946419715881348,5.526683807373047
1702137305115565800,20.77856591796875,-3.710055112838745,6.762600898742676,7.345559120178223
1702137305132555300,20.79555517578125,-3.4570729732513428,8.016758918762207,7.859926223754883
1702137305149548800,20.812548828125,-1.6922101974487305,9.177239418029785,7.290726661682129
1702137305166540000,20.8295400390625,-1.3118128776550293,10.083846092224121,6.848779678344727
1702137305183534000,20.8465341796875,-2.8047494888305664,10.756885528564453,6.687765121459961
1702137305200525600,20.863525634765626,-5.426543235778809,11.009994506835938,6.870847225189209
1702137305217516000,20.88051611328125,-4.993345260620117,10.780095100402832,6.256994247436523
1702137305234516000,20.897515869140626,-2.595282554626465,10.409564971923828,4.867210865020752
1702137305251506200,20.914506103515624,-1.9007835388183594,7.811254978179932,4.471510410308838
1702137305268488400,20.931488525390623,-0.8570051193237305,4.7402873039245605,2.2921953201293945
1702137305285489200,20.9484892578125,-0.259523868560791,1.359818458557129,-0.3127727508544922
1702137305302481700,20.965481689453124,0.3065485954284668,-1.613645076751709,-2.133291721343994
1702137305319472400,20.982472412109374,0.5371983051300049,-4.535099983215332,-3.1633243560791016
1702137305336465000,20.99946484375,0.942115306854248,-6.785088062286377,-3.936666965484619
1702137305353444400,21.0164443359375,1.1851046085357666,-8.26770305633545,-4.642406463623047
1702137305370447600,21.033447509765626,1.696905493736267,-9.12109661102295,-5.252756118774414
1702137305387438300,21.050438232421875,1.9445933103561401,-9.4284029006958,-5.64566707611084
1702137305404431000,21.06743115234375,1.7748936414718628,-10.101303100585938,-5.4424896240234375
1702137305421428000,21.084427978515624,1.3751192092895508,-10.998470306396484,-5.106589317321777
1702137305438414000,21.1014140625,1.1583657264709473,-11.705135345458984,-5.159019947052002
1702137305455402500,21.118402587890625,0.9330902099609375,-12.401814460754395,-5.376451015472412
1702137305472399000,21.135399169921875,0.7364199161529541,-13.099069595336914,-5.762849807739258
1702137305489387300,21.15238720703125,0.9273228645324707,-13.497652053833008,-5.768453121185303
1702137305506380000,21.169380126953126,0.9641039371490479,-13.809080123901367,-6.266808032989502
1702137305523371000,21.18637109375,1.5667810440063477,-14.722217559814453,-4.987401008605957
1702137305540363500,21.203363525390625,0.6689350605010986,-15.602571487426758,-4.93418025970459
1702137305557353200,21.220353271484374,0.30450427532196045,-16.692398071289062,-2.231111526489258
1702137305574346200,21.23734619140625,-0.11905694007873535,-18.088407516479492,1.0350146293640137
1702137305591326500,21.254326416015626,-1.3451995849609375,-18.72276496887207,3.348877429962158
1702137305608329700,21.271329833984375,-3.5072989463806152,-20.294178009033203,5.068735122680664
1702137305625319400,21.2883193359375,-4.300732612609863,-21.349119186401367,6.547102928161621
1702137305642301700,21.3053017578125,-3.4633102416992188,-21.839048385620117,9.952096939086914
1702137305659292200,21.322292236328124,-2.847076654434204,-21.818328857421875,15.931714057922363
1702137305676296000,21.3392958984375,-3.718730926513672,-20.30940818786621,19.609304428100586
1702137305693285600,21.35628564453125,-6.559820652008057,-18.925844192504883,19.976459503173828
1702137305710278700,21.373278564453123,-8.562183380126953,-17.488452911376953,20.569969177246094
1702137305727269000,21.39026904296875,-11.358251571655273,-17.32868194580078,24.085845947265625
1702137305744261600,21.40726171875,-12.133910179138184,-17.846342086791992,30.915119171142578
1702137305761238500,21.424238525390624,-9.609253883361816,-17.510822296142578,35.065425872802734
1702137305778247000,21.441246826171874,-5.712741374969482,-17.354101181030273,35.56655502319336
1702137305795235300,21.4582353515625,-2.1293721199035645,-17.44270896911621,34.64568328857422
1702137305812217900,21.4752177734375,0.2926722764968872,-15.76591968536377,32.78581619262695
1702137305829217800,21.4922177734375,0.7917296290397644,-14.427176475524902,31.929519653320312
1702137305846210800,21.5092109375,1.3929948806762695,-13.115256309509277,33.16421127319336
1702137305863201500,21.526201416015624,0.7485332489013672,-12.997527122497559,35.785560607910156
1702137305880193800,21.54319384765625,2.0856943130493164,-15.063227653503418,35.299781799316406
1702137305897174800,21.5601748046875,6.697579383850098,-17.363943099975586,30.45461082458496
1702137305914173000,21.5771728515625,12.349081993103027,-19.705480575561523,27.883901596069336
1702137305931165700,21.594165771484374,14.305855751037598,-22.428123474121094,29.411975860595703
1702137305948160300,21.61116015625,14.898160934448242,-22.78481674194336,25.944229125976562
1702137305965150200,21.628150146484376,14.647319793701172,-20.821786880493164,21.4776668548584
