time,seconds_elapsed,z,y,x
1702137805975534300,0.134534423828125,-3.414597749710083,-5.415821075439453,-0.05978673696517944
1702137805992529000,0.15152880859375,-2.680464267730713,-6.160178184509277,-0.2837555408477783
1702137806009515300,0.168515380859375,-1.5942273139953613,-6.998562812805176,0.2581672668457031
1702137806026511400,0.185511474609375,-1.1575284004211426,-7.429029941558838,0.509071409702301
1702137806043500000,0.2025,-2.1657257080078125,-7.761756896972656,0.47032174468040466
1702137806060501500,0.21950146484375,-3.8483262062072754,-7.996331691741943,0.08384919166564941
1702137806077491500,0.236491455078125,-5.333852767944336,-8.48074722290039,0.5084842443466187
1702137806094479400,0.253479248046875,-5.763764381408691,-9.26321792602539,1.8611540794372559
1702137806111476200,0.270476318359375,-5.052737712860107,-10.100085258483887,4.598016262054443
1702137806128469800,0.2874697265625,-3.337089776992798,-10.511146545410156,9.192671775817871
1702137806145452000,0.3044521484375,-3.4146335124969482,-9.984569549560547,11.503090858459473
1702137806162447000,0.321447021484375,-5.357542037963867,-9.599891662597656,11.997949600219727
1702137806179436800,0.338436767578125,-6.309941291809082,-10.14357852935791,12.994654655456543
1702137806196426800,0.3554267578125,-3.775249481201172,-10.862174034118652,15.613277435302734
1702137806213419800,0.372419677734375,-0.7273397445678711,-10.44803524017334,17.76546859741211
1702137806230397400,0.3893974609375,0.04851102828979492,-9.240802764892578,18.942331314086914
1702137806247406000,0.406406005859375,-1.312619686126709,-7.874073505401611,19.668848037719727
1702137806264390700,0.423390625,-2.495321273803711,-6.877555847167969,20.77556037902832
1702137806281383400,0.440383544921875,-2.6322929859161377,-6.080678462982178,22.029043197631836
1702137806298376700,0.457376708984375,-1.4674072265625,-5.153017044067383,22.44243621826172
1702137806315363300,0.47436328125,-0.054032325744628906,-4.030219078063965,21.46463966369629
1702137806332358100,0.491358154296875,0.8608813285827637,-2.8556969165802,20.569427490234375
1702137806349339000,0.5083388671875,1.9282567501068115,-2.1152749061584473,21.376277923583984
1702137806366337300,0.525337158203125,2.251664876937866,-1.5539205074310303,22.70212173461914
1702137806383324000,0.542323974609375,2.003751754760742,-0.9503986835479736,23.399219512939453
1702137806400322000,0.559322021484375,2.63045597076416,-1.382759690284729,24.19205093383789
1702137806417313800,0.576313720703125,5.48524284362793,-2.917532205581665,23.682693481445312
1702137806434305000,0.593304931640625,8.950857162475586,-4.111684799194336,21.42174530029297
1702137806451292700,0.610292724609375,6.173830032348633,-4.963541507720947,20.617294311523438
1702137806468283400,0.627283447265625,6.3926191329956055,-4.935951232910156,21.813753128051758
1702137806485275000,0.64427490234375,8.47338581085205,-6.482616901397705,23.709415435791016
1702137806502257700,0.661257568359375,13.431166648864746,-8.553523063659668,22.515260696411133
1702137806519260000,0.678260009765625,13.411733627319336,-8.86092472076416,17.44154167175293
1702137806536251100,0.695251220703125,5.722224235534668,-9.581201553344727,17.00450897216797
1702137806553242400,0.712242431640625,3.159433126449585,-10.454859733581543,20.80968475341797
1702137806570233300,0.7292333984375,8.674860954284668,-10.042962074279785,22.79808807373047
1702137806587225900,0.746225830078125,16.07038688659668,-10.271086692810059,20.962451934814453
1702137806604213200,0.763213134765625,19.536623001098633,-10.10578441619873,16.978944778442383
1702137806621206000,0.7802060546875,16.805673599243164,-9.634024620056152,13.270198822021484
1702137806638199600,0.797199462890625,13.170522689819336,-7.047817230224609,10.563358306884766
1702137806655186200,0.814186279296875,10.435203552246094,-5.431989669799805,10.344636917114258
1702137806672184000,0.83118408203125,10.498396873474121,-4.760708808898926,9.960521697998047
1702137806689170000,0.848169921875,12.086381912231445,-5.402718544006348,10.347014427185059
1702137806706161200,0.8651611328125,13.745089530944824,-4.934565544128418,11.911870002746582
1702137806723155200,0.8821552734375,12.586627006530762,-4.152108192443848,13.782611846923828
1702137806740134100,0.899134033203125,8.539398193359375,-3.8671789169311523,17.593769073486328
1702137806757133000,0.916133056640625,1.9683433771133423,-3.6344966888427734,20.636756896972656
1702137806774128400,0.93312841796875,-2.861762046813965,-3.924668312072754,22.804851531982422
1702137806791117600,0.95011767578125,-3.240511894226074,-5.403001308441162,23.684803009033203
1702137806808110800,0.96711083984375,-0.5965657830238342,-7.1774773597717285,23.837141036987305
1702137806825097700,0.98409765625,-0.5303672552108765,-7.988105773925781,23.793428421020508
1702137806842077400,1.001077392578125,-3.5860116481781006,-8.429458618164062,22.64659881591797
1702137806859081700,1.018081787109375,-4.784186840057373,-8.23215103149414,20.532325744628906
1702137806876073200,1.0350732421875,-3.4599201679229736,-8.17017650604248,18.680023193359375
1702137806893067800,1.05206787109375,-3.8397023677825928,-8.423521041870117,16.556873321533203
1702137806910056000,1.069055908203125,-3.9604392051696777,-9.226078033447266,13.077595710754395
1702137806927048200,1.086048095703125,-1.2243542671203613,-10.688461303710938,9.466769218444824
1702137806944036900,1.103036865234375,2.901639938354492,-11.239400863647461,7.291133880615234
1702137806961028900,1.12002880859375,4.033863544464111,-11.25293254852295,8.096109390258789
1702137806978019600,1.13701953125,2.9343929290771484,-12.807906150817871,11.521591186523438
1702137806995005000,1.1540048828125,4.612099647521973,-12.956135749816895,12.98832893371582
1702137807012002600,1.17100244140625,6.756633758544922,-11.337525367736816,13.464826583862305
1702137807028995000,1.1879951171875,4.122556686401367,-11.562512397766113,15.612720489501953
1702137807045982500,1.204982421875,1.693774700164795,-13.661417961120605,16.923908233642578
1702137807062974000,1.221973876953125,1.7220149040222168,-14.619248390197754,17.345203399658203
1702137807079969800,1.2389697265625,4.163850784301758,-15.482279777526855,17.31470489501953
1702137807096959500,1.25595947265625,4.56910514831543,-15.370515823364258,19.138797760009766
1702137807113947000,1.27294677734375,2.9938433170318604,-16.197303771972656,24.818466186523438
1702137807130938400,1.2899384765625,3.1803345680236816,-16.05560302734375,29.194061279296875
1702137807147924200,1.30692431640625,4.050308704376221,-14.992324829101562,32.38815689086914
1702137807164920000,1.323920166015625,1.5638028383255005,-13.704557418823242,32.15583038330078
1702137807181925400,1.34092529296875,-3.311067581176758,-13.789133071899414,31.728466033935547
1702137807198917000,1.357917236328125,-7.045680046081543,-15.02680492401123,32.63408660888672
1702137807215893800,1.374893798828125,-7.87009859085083,-16.84918785095215,35.381351470947266
1702137807232887600,1.391887451171875,-6.774345874786377,-19.306364059448242,39.28089904785156
1702137807249878500,1.40887841796875,-5.505248069763184,-21.351585388183594,42.349639892578125
1702137807266881800,1.4258818359375,-3.352126121520996,-23.085159301757812,45.958736419677734
1702137807283858700,1.442858642578125,-1.3043612241744995,-23.873594284057617,49.65890884399414
1702137807300861700,1.45986181640625,0.25024276971817017,-25.08483123779297,51.36283874511719
1702137807317831200,1.4768310546875,3.4143857955932617,-25.35344696044922,50.39781188964844
1702137807334836000,1.4938359375,6.14171838760376,-25.722545623779297,46.42969512939453
1702137807351826000,1.510825927734375,9.349623680114746,-27.913454055786133,42.421287536621094
1702137807368822000,1.527822021484375,15.938648223876953,-29.00645637512207,36.478416442871094
1702137807385806000,1.54480615234375,18.724878311157227,-28.633209228515625,28.382959365844727
1702137807402799400,1.56179931640625,18.512184143066406,-27.934513092041016,22.023334503173828
1702137807419790000,1.5787900390625,15.630718231201172,-27.499588012695312,18.41029167175293
1702137807436782000,1.595781982421875,12.315523147583008,-26.30790901184082,15.242724418640137
1702137807453769700,1.612769775390625,9.596263885498047,-25.58652114868164,12.818434715270996
1702137807470761500,1.629761474609375,7.6310834884643555,-24.914140701293945,10.408050537109375
1702137807487757600,1.646757568359375,6.080863952636719,-24.199928283691406,6.75083589553833
1702137807504742700,1.66374267578125,4.087013244628906,-23.05105209350586,4.4086594581604
1702137807521736400,1.680736328125,3.878739356994629,-20.384502410888672,3.8869752883911133
1702137807538729000,1.69772900390625,5.985064506530762,-17.89229965209961,5.91077995300293
1702137807555716400,1.71471630859375,7.275460243225098,-16.144100189208984,9.550370216369629
1702137807572710400,1.73171044921875,6.519204616546631,-15.293195724487305,12.091421127319336
1702137807589701000,1.748701171875,5.263319492340088,-14.483059883117676,14.269397735595703
1702137807606693400,1.765693359375,4.8238019943237305,-14.221490859985352,15.615994453430176
1702137807623681300,1.782681396484375,5.961041450500488,-16.552772521972656,18.773571014404297
1702137807640674300,1.79967431640625,6.4815287590026855,-17.80348014831543,23.170978546142578
1702137807657655800,1.81665576171875,6.746009826660156,-18.495086669921875,26.79161834716797
1702137807674655000,1.833655029296875,4.51339864730835,-18.957988739013672,26.774951934814453
1702137807691648000,1.85064794921875,1.2347320318222046,-21.801002502441406,25.764137268066406
1702137807708640500,1.867640625,0.6536017656326294,-25.978002548217773,26.186695098876953
1702137807725628000,1.8846279296875,3.8717050552368164,-29.577011108398438,28.286148071289062
1702137807742623500,1.90162353515625,7.95689582824707,-30.1784725189209,31.60381317138672
1702137807759611000,1.91861083984375,8.082258224487305,-29.822389602661133,32.91679000854492
1702137807776607500,1.935607421875,2.018881320953369,-32.017417907714844,31.92597007751465
1702137807793600500,1.9526005859375,-1.2048156261444092,-36.70785903930664,28.147560119628906
1702137807810581000,1.9695810546875,4.889256000518799,-42.263633728027344,27.610776901245117
1702137807827568400,1.986568359375,14.462568283081055,-43.39388656616211,33.8155403137207
1702137807844565200,2.003565185546875,18.234800338745117,-39.710201263427734,42.443546295166016
1702137807861559300,2.020559326171875,11.717784881591797,-33.15934371948242,44.74470138549805
1702137807878549800,2.0375498046875,2.864420175552368,-27.13983154296875,40.67344284057617
1702137807895540500,2.05454052734375,0.16472864151000977,-21.444473266601562,35.61007308959961
1702137807912530400,2.071530517578125,5.972835540771484,-18.889385223388672,35.976280212402344
1702137807929529300,2.088529296875,7.134216785430908,-17.603113174438477,38.183815002441406
1702137807946517000,2.10551708984375,-0.40385961532592773,-13.749906539916992,35.43523406982422
1702137807963496700,2.12249658203125,-2.668783187866211,-9.498848915100098,27.875228881835938
1702137807980486700,2.139486572265625,6.317227363586426,-6.855615615844727,29.122913360595703
1702137807997490000,2.156489990234375,10.989686012268066,-4.734525680541992,36.54473876953125
1702137808014476500,2.1734765625,5.906662464141846,-0.470723032951355,34.614280700683594
1702137808031470600,2.190470703125,1.6907358169555664,4.8986735343933105,24.06484031677246
1702137808048463000,2.207463134765625,0.8371310234069824,6.966131210327148,21.27353286743164
1702137808065450500,2.224450439453125,2.11024808883667,6.698293685913086,21.925601959228516
1702137808082444500,2.241444580078125,2.271956205368042,5.483153343200684,19.697593688964844
1702137808099435300,2.258435302734375,0.5540869235992432,4.260505676269531,16.241310119628906
1702137808116424200,2.275424072265625,-0.2181258201599121,2.6220428943634033,12.477827072143555
1702137808133418200,2.292418212890625,1.9586796760559082,1.3747508525848389,9.39942455291748
1702137808150408200,2.309408203125,4.483450889587402,-0.33673304319381714,7.56593132019043
1702137808167401200,2.326401123046875,5.356992721557617,-1.654502034187317,6.329850196838379
1702137808184388400,2.343388427734375,3.3662753105163574,-3.007582902908325,5.338744163513184
1702137808201382000,2.3603818359375,0.46958327293395996,-3.927610397338867,3.936565399169922
1702137808218371600,2.37737158203125,-1.497558355331421,-4.673193454742432,2.597121238708496
1702137808235364400,2.3943642578125,-1.0483139753341675,-5.445827960968018,1.5490732192993164
1702137808252355600,2.41135546875,1.2985987663269043,-5.935476303100586,0.7810688018798828
1702137808269348600,2.4283486328125,3.111220598220825,-6.794320106506348,1.260878562927246
1702137808286333700,2.445333740234375,3.836097240447998,-7.768433570861816,2.237508773803711
1702137808303314400,2.462314453125,3.801656484603882,-8.432639122009277,3.1987009048461914
1702137808320308700,2.479308837890625,2.963963508605957,-8.696133613586426,2.7849721908569336
1702137808337312800,2.496312744140625,2.0592575073242188,-8.33663558959961,1.5765571594238281
1702137808354298600,2.513298583984375,2.1138930320739746,-7.616188049316406,1.5277185440063477
1702137808371293200,2.530293212890625,2.4809882640838623,-6.934121608734131,3.162358283996582
1702137808388285700,2.54728564453125,2.4373703002929688,-7.131551742553711,5.413921356201172
1702137808405279700,2.56427978515625,1.8434513807296753,-6.9622039794921875,6.362668991088867
1702137808422257400,2.58125732421875,3.035938024520874,-6.044042110443115,6.048637866973877
1702137808439256800,2.5982568359375,4.118230819702148,-5.190707683563232,5.016964912414551
1702137808456248300,2.615248291015625,3.6836698055267334,-4.189837455749512,4.235469341278076
1702137808473240800,2.63224072265625,2.6318349838256836,-3.2511215209960938,3.3477792739868164
1702137808490231000,2.64923095703125,2.449800968170166,-2.4204113483428955,2.3608264923095703
1702137808507220700,2.666220703125,2.5217666625976562,-2.1487226486206055,1.3767471313476562
1702137808524214300,2.68321435546875,2.8958115577697754,-2.24165940284729,0.6058454513549805
1702137808541204700,2.700204833984375,3.689530849456787,-2.1971116065979004,-0.34506797790527344
1702137808558199000,2.717198974609375,3.7496252059936523,-2.3162593841552734,-1.2896811962127686
1702137808575184600,2.7341845703125,3.440728187561035,-2.4930286407470703,-2.1690948009490967
1702137808592176400,2.75117626953125,3.189992666244507,-2.7817676067352295,-3.011850357055664
1702137808609172000,2.768171875,3.331789016723633,-3.1799631118774414,-3.5439138412475586
1702137808626164000,2.7851640625,3.5061538219451904,-3.725231647491455,-3.6899309158325195
1702137808643152400,2.80215234375,3.694218635559082,-4.523131847381592,-3.7207767963409424
1702137808660142000,2.81914208984375,4.122431755065918,-5.618226051330566,-3.5579988956451416
1702137808677135400,2.83613525390625,4.39792537689209,-6.790468692779541,-3.580049514770508
1702137808694114800,2.85311474609375,4.428012847900391,-7.7794060707092285,-3.4715757369995117
1702137808711116000,2.870115966796875,4.131846904754639,-8.932771682739258,-3.4149906635284424
1702137808728108300,2.8871083984375,3.353740692138672,-10.186094284057617,-3.5910048484802246
1702137808745096000,2.904095947265625,2.333315849304199,-11.290882110595703,-4.249347686767578
1702137808762077000,2.921076904296875,1.5521438121795654,-12.659621238708496,-4.271022796630859
1702137808779080400,2.93808056640625,0.13589763641357422,-14.18431282043457,-3.4999985694885254
1702137808796070400,2.9550703125,-2.2412760257720947,-15.734691619873047,-1.4372107982635498
1702137808813063700,2.972063720703125,-3.749018669128418,-17.406269073486328,1.7069587707519531
1702137808830053600,2.9890537109375,-3.9507741928100586,-18.569114685058594,6.01017427444458
1702137808847046700,3.006046630859375,-4.84025764465332,-18.36273193359375,8.397754669189453
1702137808864028700,3.023028564453125,-6.6597418785095215,-17.87746810913086,10.197972297668457
1702137808881027600,3.040027587890625,-7.140267372131348,-16.712451934814453,13.439324378967285
1702137808898022700,3.057022705078125,-7.184289932250977,-14.707633972167969,20.177143096923828
1702137808915004200,3.074004150390625,-9.424301147460938,-11.49502944946289,27.278160095214844
1702137808932000500,3.09100048828125,-14.855790138244629,-8.275654792785645,27.455245971679688
1702137808948991500,3.107991455078125,-19.272523880004883,-8.532325744628906,26.822265625
1702137808965982700,3.124982666015625,-15.547271728515625,-11.405071258544922,31.37500762939453
1702137808982975000,3.14197509765625,-5.876710414886475,-11.492698669433594,34.99448013305664
1702137808999965700,3.158965576171875,-0.5869642496109009,-8.297622680664062,35.173309326171875
1702137809016957200,3.175957275390625,-0.6233786344528198,-6.24531364440918,35.635040283203125
1702137809033948200,3.1929482421875,0.8165328502655029,-5.941094398498535,36.8712043762207
1702137809050940000,3.20993994140625,3.9231293201446533,-6.203366279602051,36.4986457824707
1702137809067927800,3.226927734375,7.7589521408081055,-6.176648139953613,34.283939361572266
1702137809084924700,3.243924560546875,11.953503608703613,-6.37174654006958,32.28931427001953
1702137809101917200,3.260917236328125,13.386748313903809,-6.7486724853515625,31.21445083618164
1702137809118900200,3.277900146484375,12.49916934967041,-7.054563522338867,30.200532913208008
1702137809135887000,3.29488720703125,11.990686416625977,-8.159673690795898,27.744619369506836
1702137809152886500,3.311886474609375,14.131525039672852,-10.278647422790527,26.15635108947754
1702137809169877200,3.328877197265625,16.56715202331543,-11.99803638458252,23.65152931213379
1702137809186858200,3.345858154296875,17.286380767822266,-13.031274795532227,22.15798568725586
1702137809203859500,3.362859375,15.480833053588867,-12.789703369140625,20.773258209228516
1702137809220851000,3.379850830078125,13.164655685424805,-11.7213773727417,20.347139358520508
1702137809237838300,3.39683837890625,14.012211799621582,-10.237714767456055,17.868545532226562
1702137809254836700,3.413836669921875,14.68121337890625,-10.52070140838623,16.956151962280273
1702137809271811300,3.430811279296875,13.610113143920898,-9.673354148864746,13.574212074279785
1702137809288806400,3.447806396484375,10.407081604003906,-7.669029235839844,9.208372116088867
1702137809305809000,3.464808837890625,8.385416030883789,-6.241613388061523,7.947066783905029
1702137809322797600,3.481797607421875,9.041848182678223,-6.52259635925293,8.912941932678223
1702137809339788300,3.498788330078125,10.04727840423584,-7.56577205657959,11.035917282104492
1702137809356769500,3.51576953125,9.531414031982422,-8.623455047607422,12.64303970336914
1702137809373768700,3.532768798828125,8.982852935791016,-9.053293228149414,14.170132637023926
1702137809390759700,3.549759765625,7.722297191619873,-9.233707427978516,16.660430908203125
1702137809407755800,3.566755859375,3.9157826900482178,-8.947074890136719,18.55223846435547
1702137809424734200,3.583734130859375,-1.5002272129058838,-8.999592781066895,20.96562957763672
1702137809441726200,3.600726318359375,-6.9589314460754395,-10.906826972961426,24.010326385498047
1702137809458719700,3.6177197265625,-8.741024017333984,-14.751673698425293,23.526168823242188
1702137809475709000,3.634708984375,-4.967270851135254,-14.833434104919434,18.97654151916504
1702137809492704000,3.6517041015625,-1.3900301456451416,-13.029365539550781,16.478763580322266
1702137809509691600,3.668691650390625,-0.91020667552948,-10.360453605651855,16.370729446411133
1702137809526684200,3.68568408203125,-2.732569694519043,-8.763039588928223,16.35802459716797
1702137809543672300,3.70267236328125,-5.27783203125,-7.960199356079102,14.819805145263672
1702137809560660200,3.71966015625,-8.118139266967773,-8.864392280578613,11.56869125366211
1702137809577660200,3.73666015625,-5.613632678985596,-11.745870590209961,9.385401725769043
1702137809594645800,3.753645751953125,1.101149082183838,-14.090890884399414,8.780939102172852
1702137809611635700,3.7706357421875,6.196106433868408,-14.643939971923828,8.726385116577148
1702137809628628700,3.787628662109375,8.390562057495117,-12.811031341552734,7.987483978271484
1702137809645621500,3.80462158203125,7.422794818878174,-10.508047103881836,9.020708084106445
1702137809662610200,3.821610107421875,2.0880770683288574,-10.15658950805664,14.002838134765625
1702137809679603200,3.838603271484375,-3.97540283203125,-12.836355209350586,19.241409301757812
1702137809696593700,3.85559375,0.6767401695251465,-14.398877143859863,18.70160484313965
1702137809713585200,3.872585205078125,10.392433166503906,-14.06338882446289,16.18263816833496
1702137809730575400,3.889575439453125,11.70687484741211,-13.133602142333984,19.85031509399414
1702137809747562200,3.906562255859375,2.890733003616333,-13.421886444091797,27.562807083129883
1702137809764561000,3.923560791015625,-3.4251089096069336,-13.08865737915039,31.53276252746582
1702137809781572900,3.94057275390625,-1.7181240320205688,-12.591647148132324,33.073455810546875
1702137809798549800,3.9575498046875,2.24918794631958,-12.083736419677734,35.85102844238281
1702137809815540500,3.97454052734375,1.5350384712219238,-10.566547393798828,36.95940017700195
1702137809832532000,3.991531982421875,-3.525239944458008,-9.844239234924316,37.22760009765625
1702137809849522400,4.0085224609375,-6.310825824737549,-11.422022819519043,39.86400604248047
1702137809866514200,4.02551416015625,-4.72477912902832,-13.665327072143555,41.55491638183594
1702137809883494100,4.042494140625,-2.2749712467193604,-15.917939186096191,43.788177490234375
1702137809900496600,4.05949658203125,-0.8394776582717896,-16.708345413208008,47.86042022705078
1702137809917487000,4.076487060546875,-1.3474256992340088,-18.1412410736084,49.07014846801758
1702137809934478600,4.093478515625,0.09408566355705261,-20.87640380859375,48.4927864074707
1702137809951458800,4.110458740234375,5.712550163269043,-22.685400009155273,47.240028381347656
1702137809968461000,4.1274609375,10.761041641235352,-23.461851119995117,45.18625259399414
1702137809985450200,4.1444501953125,13.594893455505371,-25.28034782409668,41.513160705566406
1702137810002429700,4.1614296875,15.46341323852539,-28.30673599243164,35.133480072021484
1702137810019433700,4.178433837890625,17.62828254699707,-30.87993049621582,27.840744018554688
1702137810036425500,4.195425537109375,18.203582763671875,-30.95531463623047,19.8455810546875
1702137810053416200,4.212416259765625,15.748392105102539,-29.864959716796875,14.664691925048828
1702137810070408000,4.229407958984375,11.887986183166504,-28.225419998168945,11.368057250976562
1702137810087398400,4.2463984375,8.694591522216797,-25.586057662963867,9.004560470581055
1702137810104390100,4.26339013671875,5.052706718444824,-23.782825469970703,4.997310638427734
1702137810121380600,4.280380615234375,3.4772138595581055,-23.427560806274414,1.3329999446868896
1702137810138361600,4.297361572265625,4.53928279876709,-23.019678115844727,-0.3145056962966919
1702137810155363000,4.314363037109375,5.4727935791015625,-22.125995635986328,1.4953014850616455
1702137810172354600,4.3313544921875,6.3778076171875,-20.392559051513672,2.212080240249634
1702137810189334800,4.348334716796875,6.346147537231445,-18.58745765686035,2.2497713565826416
1702137810206337000,4.3653369140625,5.884692668914795,-17.467544555664062,3.888983726501465
1702137810223321600,4.382321533203125,6.545866012573242,-16.942230224609375,9.381723403930664
1702137810240321300,4.3993212890625,7.437831878662109,-16.147964477539062,17.472007751464844
1702137810257309700,4.416309814453125,7.270560264587402,-14.972430229187012,23.59320640563965
1702137810274301400,4.433301513671875,6.020901679992676,-14.191741943359375,25.258132934570312
1702137810291292000,4.4502919921875,5.584339141845703,-15.215526580810547,24.592491149902344
1702137810308273400,4.4672734375,6.102431297302246,-19.090335845947266,27.731021881103516
1702137810325274400,4.4842744140625,7.9890456199646,-21.198509216308594,39.124725341796875
1702137810342255900,4.501255859375,8.916053771972656,-19.337671279907227,42.83213424682617
1702137810359254000,4.51825390625,5.662754058837891,-19.23015785217285,38.783668518066406
1702137810376250600,4.535250732421875,2.2495813369750977,-21.40757942199707,33.755584716796875
1702137810393236000,4.552236083984375,1.571822166442871,-26.417823791503906,34.03291702270508
1702137810410232800,4.56923291015625,3.638589859008789,-28.997793197631836,42.14238357543945
1702137810427221000,4.586220947265625,5.787618160247803,-27.171066284179688,42.15782165527344
1702137810444207000,4.60320703125,5.356469631195068,-25.666446685791016,38.62177658081055
1702137810461203500,4.620203369140625,5.072278022766113,-26.479473114013672,36.26505661010742
1702137810478194200,4.637194091796875,6.49756383895874,-29.287216186523438,36.646053314208984
1702137810495186400,4.6541865234375,11.194507598876953,-27.798641204833984,40.24664306640625
1702137810512177200,4.67117724609375,11.774003982543945,-24.737701416015625,43.12333679199219
1702137810529168100,4.688168212890625,9.3291597366333,-21.95128059387207,41.73112106323242
1702137810546155500,4.705155517578125,7.221282005310059,-20.499204635620117,37.49382019042969
1702137810563154700,4.72215478515625,6.047740936279297,-18.571868896484375,34.29805374145508
1702137810580141800,4.739141845703125,7.3007402420043945,-16.590099334716797,32.43658447265625
1702137810597132500,4.756132568359375,8.956931114196777,-15.155658721923828,34.03800964355469
1702137810614124000,4.7731240234375,7.757906913757324,-13.48994255065918,34.82765197753906
1702137810631114500,4.790114501953125,3.9107279777526855,-8.302287101745605,30.09946060180664
1702137810648106200,4.807106201171875,0.6555168628692627,-5.641617774963379,27.012434005737305
1702137810665097000,4.824096923828125,0.6624231338500977,-6.127355575561523,26.340190887451172
1702137810682078200,4.841078125,6.5161333084106445,-5.179471492767334,25.485000610351562
1702137810699078100,4.858078125,7.100061416625977,0.5525310039520264,21.78398895263672
1702137810716071200,4.8750712890625,1.2245879173278809,0.4135279655456543,21.03966522216797
1702137810733062100,4.892062255859375,0.2356564998626709,1.1498982906341553,17.496017456054688
1702137810750053000,4.90905322265625,3.022169589996338,5.1639204025268555,12.848170280456543
1702137810767043600,4.926043701171875,3.676133632659912,6.272304534912109,15.417881965637207
1702137810784025000,4.943025146484375,1.51023268699646,6.293035507202148,17.194381713867188
1702137810801026000,4.960026123046875,0.36572957038879395,5.7692975997924805,16.935535430908203
1702137810818015200,4.97701513671875,0.6869838237762451,4.212303638458252,13.737931251525879
1702137810835010800,4.9940107421875,-1.041871190071106,2.9048099517822266,10.704434394836426
1702137810852000000,5.011,-6.770878791809082,1.3487818241119385,9.463618278503418
1702137810868989200,5.0279892578125,-12.4448823928833,0.0535045862197876,7.710091590881348
1702137810885983200,5.044983154296875,-12.598104476928711,-0.9278955459594727,3.5303611755371094
1702137810902963500,5.06196337890625,-7.078978538513184,-1.7960766553878784,-0.15663623809814453
1702137810919963600,5.078963623046875,1.177642822265625,-3.1213583946228027,-1.7033143043518066
1702137810936956000,5.095955810546875,5.576398849487305,-4.343093395233154,-0.7169981002807617
1702137810953947000,5.11294677734375,3.586276054382324,-6.314994812011719,1.2284297943115234
1702137810970937600,5.1299375,0.5651267766952515,-6.966910362243652,1.5895233154296875
1702137810987918800,5.1469189453125,1.7231712341308594,-6.86842155456543,1.0376462936401367
1702137811004919800,5.163919921875,5.7986249923706055,-6.845898151397705,0.6505117416381836
1702137811021891000,5.18089111328125,7.2389397621154785,-7.5853047370910645,1.1780624389648438
1702137811038904300,5.197904296875,7.28139066696167,-7.620452880859375,0.714360237121582
1702137811055893500,5.2148935546875,5.599720478057861,-7.446700096130371,0.018566131591796875
1702137811072884000,5.231884033203125,4.314461708068848,-7.027495384216309,-0.46169281005859375
1702137811089876000,5.2488759765625,4.518119812011719,-6.265961647033691,-0.500676155090332
1702137811106866700,5.26586669921875,5.063019275665283,-6.031939506530762,0.6062097549438477
1702137811123858200,5.282858154296875,5.802950859069824,-6.075892448425293,1.5807762145996094
1702137811140848600,5.2998486328125,6.509873390197754,-5.826890468597412,1.5411605834960938
1702137811157838300,5.31683837890625,5.9324212074279785,-5.419864177703857,1.1446514129638672
1702137811174833000,5.3338330078125,5.212495803833008,-5.072455406188965,1.6258821487426758
1702137811191822800,5.35082275390625,4.468235015869141,-4.2369065284729,2.754088878631592
1702137811208811000,5.36781103515625,2.600532054901123,-3.334780216217041,4.775312900543213
1702137811225805000,5.38480517578125,1.5752673149108887,-2.439120292663574,7.886308670043945
1702137811242793000,5.40179296875,2.459320306777954,-0.8785171508789062,9.078916549682617
1702137811259789600,5.41878955078125,3.687260627746582,0.4971327781677246,9.34205436706543
1702137811276777700,5.43577783203125,2.189195394515991,0.5412249565124512,8.827165603637695
1702137811293769700,5.452769775390625,2.040119171142578,-0.09452342987060547,7.569586753845215
1702137811310757600,5.469757568359375,5.150881767272949,-0.641505241394043,4.8492231369018555
1702137811327754000,5.48675390625,7.9616193771362305,-0.18364858627319336,2.287363052368164
1702137811344742400,5.503742431640625,7.488760948181152,1.317033290863037,1.0414576530456543
1702137811361734100,5.520734130859375,3.048273801803589,1.4428105354309082,1.3165526390075684
1702137811378724900,5.537724853515625,0.8338379859924316,1.878023624420166,0.11355090141296387
1702137811395716400,5.55471630859375,2.186518669128418,1.9602899551391602,-2.0207579135894775
1702137811412706800,5.571706787109375,5.046203136444092,1.1254563331604004,-2.9786229133605957
1702137811429698600,5.588698486328125,7.942663192749023,0.5195407867431641,-3.2096335887908936
1702137811446689300,5.605689208984375,8.953527450561523,0.43699073791503906,-4.263490200042725
1702137811463680800,5.6226806640625,7.921681880950928,-0.3818840980529785,-4.773139476776123
1702137811480671200,5.639671142578125,6.172688961029053,-1.7965936660766602,-4.00676965713501
1702137811497661700,5.65666162109375,4.974292278289795,-3.398683547973633,-3.043471097946167
1702137811514655200,5.6736552734375,4.37067985534668,-5.077814102172852,-2.644117832183838
1702137811531634700,5.690634765625,5.4635138511657715,-6.729703426361084,-2.478633403778076
1702137811548636000,5.707635986328125,6.126290321350098,-8.378568649291992,-2.39247465133667
1702137811565619500,5.724619384765625,5.917405605316162,-9.705005645751953,-3.009866714477539
1702137811582627300,5.74162744140625,5.165367603302002,-10.771937370300293,-3.669250249862671
1702137811599608000,5.758608154296875,4.234764099121094,-12.100326538085938,-4.36740255355835
1702137811616602600,5.7756025390625,4.483532428741455,-13.371919631958008,-3.9846229553222656
1702137811633592000,5.792592041015625,3.8550517559051514,-14.539300918579102,-2.1272048950195312
1702137811650583000,5.8095830078125,1.2917451858520508,-16.210281372070312,1.114750862121582
1702137811667574300,5.82657421875,-0.4018056392669678,-17.94533920288086,3.8795125484466553
1702137811684565000,5.84356494140625,-0.7090901136398315,-18.670339584350586,5.87093448638916
1702137811701556500,5.860556396484375,-1.795566439628601,-18.475963592529297,8.52678108215332
1702137811718547500,5.87754736328125,-4.016055583953857,-17.836185455322266,12.394911766052246
1702137811735536000,5.8945361328125,-6.4956746101379395,-16.638723373413086,15.118289947509766
1702137811752523300,5.911523193359375,-9.049114227294922,-15.194934844970703,16.106489181518555
1702137811769523700,5.928523681640625,-11.905954360961914,-14.436651229858398,17.22977066040039
1702137811786509300,5.94550927734375,-14.93253231048584,-14.513433456420898,19.26924705505371
1702137811803493000,5.9624931640625,-16.551292419433594,-15.187684059143066,22.312252044677734
1702137811820494300,5.979494384765625,-15.240070343017578,-15.056586265563965,25.805763244628906
1702137811837485600,5.996485595703125,-10.744681358337402,-12.947073936462402,30.416440963745117
1702137811854474000,6.013473876953125,-7.411796569824219,-9.317512512207031,36.080501556396484
1702137811871470600,6.030470703125,-9.096413612365723,-6.031528949737549,39.192901611328125
1702137811888459300,6.047459228515625,-10.701013565063477,-4.570333480834961,39.21569061279297
1702137811905448400,6.064448486328125,-8.130908966064453,-5.094275951385498,37.95245361328125
1702137811922442000,6.08144189453125,-2.617027759552002,-6.284377574920654,36.73377990722656
1702137811939432400,6.098432373046875,3.71187686920166,-6.454842567443848,34.485069274902344
1702137811956425000,6.115425048828125,7.0780792236328125,-6.2414093017578125,32.85000228881836
1702137811973413000,6.1324130859375,8.670982360839844,-6.236665725708008,30.521434783935547
1702137811990403800,6.14940380859375,10.014951705932617,-7.059910297393799,28.652996063232422
1702137812007395800,6.166395751953125,10.536552429199219,-8.492725372314453,26.728958129882812
1702137812024390400,6.183390380859375,10.757606506347656,-10.201864242553711,23.427705764770508
1702137812041379600,6.200379638671875,12.30160903930664,-11.322977066040039,20.497154235839844
1702137812058367200,6.2173671875,12.973520278930664,-11.863736152648926,19.807165145874023
1702137812075364000,6.234364013671875,10.553418159484863,-13.168701171875,21.027555465698242
1702137812092352300,6.251352294921875,6.919195652008057,-12.843233108520508,19.561594009399414
1702137812109334300,6.268334228515625,5.126025199890137,-13.124894142150879,17.411237716674805
1702137812126333400,6.28533349609375,6.807640075683594,-12.08009147644043,16.163536071777344
1702137812143324700,6.30232470703125,7.792211055755615,-11.094160079956055,17.344314575195312
1702137812160315100,6.319315185546875,6.261490821838379,-9.672050476074219,16.806594848632812
1702137812177310000,6.33631005859375,2.7130115032196045,-8.820816993713379,16.442928314208984
1702137812194299000,6.353298828125,0.09964197874069214,-7.486371040344238,14.01011848449707
1702137812211290600,6.37029052734375,-0.3416968286037445,-7.3041276931762695,11.63703727722168
1702137812228281000,6.387281005859375,1.6054027080535889,-7.474165916442871,9.571013450622559
1702137812245272800,6.40427294921875,3.596036672592163,-8.270075798034668,9.348592758178711
1702137812262253000,6.421253173828125,5.419300556182861,-9.537625312805176,10.988487243652344
1702137812279245800,6.438245849609375,6.451918125152588,-10.262697219848633,13.67904281616211
1702137812296236000,6.455236083984375,5.318852424621582,-9.851236343383789,16.167129516601562
1702137812313232400,6.472232421875,2.331937789916992,-9.151153564453125,17.598575592041016
1702137812330216400,6.489216552734375,-2.616241693496704,-7.9830451011657715,17.645893096923828
1702137812347211800,6.506211669921875,-8.164241790771484,-7.761346340179443,17.49437141418457
1702137812364210400,6.52321044921875,-9.434473991394043,-7.672603130340576,16.411880493164062
1702137812381198600,6.540198486328125,-6.040711402893066,-7.64248514175415,16.912263870239258
1702137812398188500,6.5571884765625,-2.193631172180176,-6.814760208129883,16.99929428100586
1702137812415188500,6.5741884765625,-1.1772661209106445,-4.8984055519104,15.97540283203125
1702137812432164600,6.59116455078125,-3.976938009262085,-3.2600350379943848,14.855949401855469
1702137812449163800,6.608163818359375,-7.322455406188965,-2.353285789489746,12.399181365966797
1702137812466159900,6.625159912109375,-7.978873252868652,-2.8851308822631836,10.094511032104492
1702137812483148800,6.642148681640625,-5.6986870765686035,-5.434352874755859,9.944490432739258
1702137812500136700,6.65913671875,-1.1435527801513672,-7.881174564361572,9.897306442260742
1702137812517133600,6.676133544921875,2.904203414916992,-9.462141036987305,8.044620513916016
1702137812534121700,6.693121826171875,4.310308933258057,-9.94200325012207,6.926058769226074
1702137812551113200,6.71011328125,3.28521728515625,-10.348527908325195,10.461748123168945
1702137812568116500,6.727116455078125,-1.547348976135254,-12.454882621765137,17.97093391418457
1702137812585095400,6.744095458984375,-3.2632946968078613,-13.668182373046875,21.508346557617188
1702137812602077700,6.76107763671875,0.2254652976989746,-14.130362510681152,20.777172088623047
1702137812619066400,6.77806640625,4.609528064727783,-14.02518081665039,17.689563751220703
1702137812636066000,6.795066162109375,6.046868801116943,-14.60507583618164,17.554649353027344
1702137812653063200,6.812063232421875,3.607870578765869,-16.22922706604004,22.01949119567871
1702137812670050800,6.82905078125,2.7132551670074463,-15.653182029724121,25.988853454589844
1702137812687042300,6.846042236328125,3.6743178367614746,-12.063255310058594,29.19485092163086
1702137812704032000,6.863031982421875,0.3727877140045166,-9.74778938293457,32.99232482910156
1702137812721025500,6.880025634765625,-5.3185296058654785,-9.298990249633789,33.23918151855469
1702137812738012700,6.8970126953125,-8.529454231262207,-10.237176895141602,31.569320678710938
1702137812755010000,6.914010009765625,-8.102128028869629,-13.004213333129883,32.97514724731445
1702137812771984600,6.930984619140625,-4.6944475173950195,-16.313459396362305,39.21983337402344
1702137812788981200,6.947981201171875,-1.8597025871276855,-14.679243087768555,42.818359375
1702137812805966800,6.964966796875,-3.8200297355651855,-12.437127113342285,43.447547912597656
1702137812822973700,6.9819736328125,-5.91646671295166,-12.68160629272461,44.13349151611328
1702137812839961900,6.9989619140625,-4.295935153961182,-13.107035636901855,44.91737365722656
1702137812856943000,7.015943115234375,-0.8557779788970947,-12.679779052734375,45.50765609741211
1702137812873944300,7.0329443359375,1.66487455368042,-12.463186264038086,47.07740783691406
1702137812890935800,7.049935791015625,4.44109582901001,-13.203595161437988,47.96592712402344
1702137812907913700,7.066913818359375,5.014405250549316,-15.528411865234375,45.72528076171875
1702137812924908300,7.083908203125,5.269199848175049,-21.609088897705078,40.68826675415039
1702137812941920000,7.100919921875,7.550612926483154,-28.629104614257812,33.55229568481445
1702137812958890200,7.11789013671875,13.43449592590332,-33.840911865234375,25.62576675415039
1702137812975882500,7.134882568359375,16.243555068969727,-32.772010803222656,18.359420776367188
1702137812992874200,7.151874267578125,15.676523208618164,-27.892507553100586,13.350025177001953
1702137813009860900,7.16886083984375,11.433685302734375,-23.094585418701172,10.14962100982666
1702137813026857000,7.18585693359375,4.770636081695557,-19.85472869873047,8.533812522888184
1702137813043845400,7.202845458984375,4.959647178649902,-20.1003475189209,9.161233901977539
1702137813060828700,7.21982861328125,9.849286079406738,-16.952777862548828,7.2103729248046875
1702137813077827800,7.236827880859375,8.523579597473145,-14.061652183532715,7.931554317474365
1702137813094822100,7.253822265625,4.464722633361816,-13.79959487915039,9.136343955993652
1702137813111810300,7.270810302734375,3.634209632873535,-13.669334411621094,7.078502655029297
1702137813128803300,7.28780322265625,4.064520835876465,-13.042673110961914,5.676641464233398
1702137813145792500,7.30479248046875,3.525784492492676,-11.051139831542969,7.094644546508789
1702137813162783000,7.321782958984375,1.7098135948181152,-10.76600170135498,13.769939422607422
1702137813179777000,7.338777099609375,2.187436580657959,-12.090921401977539,19.288881301879883
1702137813196767500,7.355767578125,2.9600210189819336,-14.254456520080566,21.744609832763672
1702137813213756200,7.372756103515625,3.3816165924072266,-16.3020076751709,24.191650390625
1702137813230753500,7.38975341796875,4.219952583312988,-17.688720703125,26.46674346923828
1702137813247741400,7.406741455078125,5.715341567993164,-19.630666732788086,29.496753692626953
1702137813264740600,7.42374072265625,5.473075866699219,-21.31153678894043,31.634262084960938
1702137813281731600,7.440731689453125,4.617944717407227,-22.31503677368164,31.272815704345703
1702137813298728400,7.457728515625,3.441154956817627,-24.01850128173828,34.897422790527344
1702137813315711000,7.4747109375,3.2396366596221924,-24.330913543701172,37.141544342041016
1702137813332707800,7.491707763671875,3.8864426612854004,-26.310455322265625,35.63438415527344
1702137813349678600,7.5086787109375,4.367350101470947,-28.21847152709961,30.989246368408203
1702137813366684700,7.5256845703125,7.414366245269775,-27.878089904785156,27.963382720947266
1702137813383680800,7.5426806640625,8.156730651855469,-30.372608184814453,31.47883415222168
1702137813400669700,7.559669677734375,9.559993743896484,-32.30817413330078,39.731651306152344
1702137813417656600,7.576656494140625,8.472498893737793,-30.624103546142578,44.04359436035156
1702137813434645200,7.593645263671875,4.401906967163086,-27.286754608154297,39.34818649291992
1702137813451642600,7.610642578125,3.7096071243286133,-23.89035415649414,33.32234191894531
1702137813468634000,7.627634033203125,4.192131042480469,-23.250778198242188,35.14569091796875
1702137813485612000,7.644612060546875,4.752571105957031,-23.91946029663086,40.34695053100586
1702137813502617900,7.661617919921875,2.1044559478759766,-17.90248680114746,38.71843338012695
1702137813519608300,7.6786083984375,0.3140357732772827,-13.97712230682373,32.96979522705078
1702137813536598800,7.695598876953125,5.6958770751953125,-10.527292251586914,29.94491958618164
1702137813553589500,7.712589599609375,7.0139665603637695,-9.028664588928223,34.00957489013672
1702137813570581000,7.7295810546875,0.016583681106567383,-4.477252006530762,35.39976119995117
1702137813587571700,7.74657177734375,-4.344526290893555,-1.0902371406555176,26.588911056518555
1702137813604563200,7.763563232421875,2.8070459365844727,2.028568744659424,19.369739532470703
1702137813621554000,7.780553955078125,5.005588531494141,3.5847461223602295,21.623737335205078
1702137813638545400,7.79754541015625,0.6817526817321777,3.6275131702423096,24.13463020324707
1702137813655535400,7.814535400390625,-4.260776042938232,4.3456878662109375,22.04054069519043
1702137813672528400,7.8315283203125,-5.43643856048584,6.073049545288086,17.405963897705078
1702137813689518300,7.848518310546875,-3.358181953430176,6.391887664794922,14.35388469696045
1702137813706508300,7.86550830078125,-1.023875117301941,5.397916316986084,12.957402229309082
1702137813723492000,7.8824921875,0.5113461017608643,4.2522735595703125,10.658024787902832
1702137813740481800,7.899481689453125,-0.4324096441268921,2.539670944213867,8.637131690979004
1702137813757482800,7.916482666015625,-1.3122310638427734,0.8393439054489136,7.428284645080566
1702137813774474500,7.933474609375,-0.6530194878578186,-0.3093279004096985,6.386234283447266
1702137813791467800,7.9504677734375,-0.05370330810546875,-1.9468114376068115,5.442063331604004
1702137813808454100,7.9674541015625,1.5235878229141235,-3.4897351264953613,4.094369888305664
1702137813825447400,7.984447509765625,2.9412567615509033,-4.506138801574707,2.284722328186035
1702137813842439200,8.001439208984374,2.676414966583252,-5.562407970428467,0.7297725677490234
1702137813859426800,8.0184267578125,2.3396618366241455,-6.293545246124268,-0.1970233917236328
1702137813876423700,8.035423583984375,2.412914752960205,-6.739552021026611,-0.17316818237304688
1702137813893406200,8.05240625,2.5732758045196533,-6.783172607421875,1.0071821212768555
1702137813910406000,8.069406005859374,2.622105360031128,-6.29837703704834,1.237722396850586
1702137813927395300,8.086395263671875,2.183145761489868,-5.736405372619629,1.148162841796875
1702137813944383200,8.10338330078125,2.055025100708008,-4.703897476196289,1.5743350982666016
1702137813961379000,8.120379150390624,2.046337604522705,-3.9870259761810303,1.963623046875
1702137813978368300,8.1373681640625,2.4220809936523438,-3.847712755203247,1.8382673263549805
1702137813995358500,8.1543583984375,3.4092202186584473,-4.130858421325684,1.3436212539672852
1702137814012350200,8.17135009765625,5.338810920715332,-4.31872034072876,1.035407543182373
1702137814029341000,8.1883408203125,7.199051380157471,-4.273040771484375,1.4693679809570312
1702137814046332700,8.205332763671874,8.155662536621094,-4.440475940704346,2.5265893936157227
1702137814063323100,8.2223232421875,8.526083946228027,-4.492361068725586,2.295206069946289
1702137814080315000,8.23931494140625,8.153111457824707,-4.374058246612549,1.6373138427734375
1702137814097305000,8.25630517578125,7.452413082122803,-3.9160728454589844,1.2085747718811035
1702137814114281500,8.273281494140624,6.488889694213867,-3.5051231384277344,1.5147290229797363
1702137814131285500,8.290285400390625,5.536300182342529,-3.171189785003662,2.3365039825439453
1702137814148281600,8.307281494140625,4.688327789306641,-2.750217914581299,3.5349512100219727
1702137814165278500,8.324278564453126,4.6695404052734375,-1.9961602687835693,4.077602386474609
1702137814182251500,8.34125146484375,3.92995023727417,0.5848917961120605,3.1384005546569824
1702137814199249400,8.35824951171875,-2.6102046966552734,2.7419791221618652,3.2904367446899414
1702137814216246500,8.37524658203125,-7.299382209777832,0.6304512023925781,6.3715620040893555
1702137814233234700,8.392234619140625,-1.543081283569336,0.1372818946838379,6.115602970123291
1702137814250226200,8.40922607421875,6.001859188079834,0.891334056854248,4.774354457855225
1702137814267216600,8.426216552734376,9.38398551940918,1.981492042541504,4.582634925842285
1702137814284208400,8.44320849609375,8.526124954223633,2.0727715492248535,4.331908226013184
1702137814301198800,8.46019873046875,5.250622272491455,1.5111088752746582,2.9412574768066406
1702137814318202600,8.47720263671875,3.251544952392578,0.8640460968017578,0.7476062774658203
1702137814335182000,8.49418212890625,3.034878730773926,0.3392763137817383,-1.3318696022033691
1702137814352172000,8.511172119140625,3.228783130645752,-0.7159299850463867,-2.4045114517211914
1702137814369163500,8.52816357421875,3.401503562927246,-1.9358696937561035,-3.1207315921783447
1702137814386155300,8.5451552734375,3.827631711959839,-3.1178598403930664,-4.0648393630981445
1702137814403137300,8.56213720703125,3.918442964553833,-4.311887264251709,-4.700289726257324
1702137814420140300,8.579140380859375,3.6509013175964355,-5.579022407531738,-4.318336009979248
1702137814437125400,8.59612548828125,3.5718281269073486,-6.696385860443115,-3.657045364379883
1702137814454120000,8.613119873046875,3.53727126121521,-7.813220024108887,-3.428476333618164
1702137814471110400,8.6301103515625,3.7578487396240234,-8.701719284057617,-4.388032913208008
1702137814488104400,8.6471044921875,4.027357578277588,-9.710490226745605,-5.3680925369262695
1702137814505082000,8.66408203125,4.43710470199585,-10.45518684387207,-6.306468486785889
1702137814522081000,8.6810810546875,4.411138534545898,-11.266036987304688,-6.516484260559082
1702137814539074800,8.69807470703125,3.5464634895324707,-12.357248306274414,-5.465065956115723
1702137814556054500,8.715054443359374,2.004114866256714,-13.31010627746582,-3.8868355751037598
1702137814573057300,8.732057373046874,0.5264303684234619,-14.298133850097656,-2.592116355895996
1702137814590048800,8.749048828125,-0.5702269077301025,-15.058660507202148,-1.9173001050949097
1702137814607039500,8.76603955078125,-1.8420696258544922,-15.682706832885742,-1.7421464920043945
1702137814624028400,8.7830283203125,-3.4466712474823,-15.734054565429688,-1.0085170269012451
1702137814641024300,8.800024169921874,-5.751410484313965,-15.983859062194824,5.142618179321289
1702137814658010600,8.8170107421875,-9.119941711425781,-16.103172302246094,13.064502716064453
1702137814675006200,8.834006103515625,-10.749432563781738,-15.393550872802734,16.481393814086914
1702137814691995600,8.85099560546875,-10.016569137573242,-14.71599006652832,15.744213104248047
1702137814708986000,8.867986083984375,-7.749056816101074,-13.047820091247559,15.303251266479492
1702137814725977900,8.884977783203125,-7.296364784240723,-12.020142555236816,19.257596969604492
1702137814742957800,8.901957763671875,-10.011762619018555,-10.889251708984375,24.186595916748047
1702137814759943700,8.918943603515626,-14.018267631530762,-10.195474624633789,26.179019927978516
1702137814776948000,8.935947998046874,-14.552278518676758,-11.334931373596191,27.22920036315918
1702137814793944600,8.952944580078125,-9.87196159362793,-12.757711410522461,28.77592658996582
1702137814810933500,8.96993359375,-2.9431848526000977,-11.940720558166504,29.562437057495117
1702137814827922700,8.986922607421874,1.5453240871429443,-9.029034614562988,29.1102352142334
1702137814844917000,9.0039169921875,2.9099204540252686,-6.353848934173584,28.634431838989258
1702137814861899500,9.0208994140625,1.6388320922851562,-5.026937484741211,29.50951385498047
1702137814878897200,9.037897216796875,0.8028337955474854,-6.096052169799805,30.99864959716797
1702137814895889000,9.054888916015624,3.435102701187134,-7.634435176849365,30.22942352294922
1702137814912879400,9.07187939453125,7.948703289031982,-9.56118106842041,28.092697143554688
1702137814929871000,9.08887109375,12.320898056030273,-10.295854568481445,25.077472686767578
1702137814946861800,9.10586181640625,15.497346878051758,-9.33627986907959,22.362388610839844
1702137814963853600,9.122853515625,13.943142890930176,-8.152095794677734,21.176128387451172
1702137814980844000,9.139843994140625,10.962711334228516,-8.868404388427734,22.806499481201172
1702137814997834500,9.15683447265625,11.074143409729004,-9.965629577636719,25.40285873413086
1702137815014825000,9.173824951171875,14.776251792907715,-10.669981002807617,25.15335464477539
1702137815031820500,9.190820556640626,18.911409378051758,-10.578039169311523,24.11591339111328
1702137815048808400,9.207808349609374,17.242284774780273,-9.938472747802734,20.933076858520508
1702137815065800200,9.22480029296875,11.53309440612793,-8.225764274597168,15.338530540466309
1702137815082788000,9.2417880859375,7.2705159187316895,-6.925589084625244,13.28557300567627
1702137815099779800,9.25877978515625,7.044788360595703,-5.27619743347168,12.835680961608887
1702137815116775700,9.275775634765624,8.73979377746582,-5.803125381469727,14.236000061035156
1702137815133762300,9.29276220703125,8.753363609313965,-6.977234840393066,15.83294677734375
1702137815150757600,9.309757568359375,8.880794525146484,-7.466128826141357,15.656123161315918
1702137815167746800,9.326746826171876,8.956802368164062,-7.7446112632751465,15.321649551391602
1702137815184737500,9.343737548828125,8.937994956970215,-7.19807767868042,15.332541465759277
1702137815201729300,9.360729248046875,7.391083240509033,-5.968112468719482,16.519428253173828
1702137815218709200,9.377709228515625,1.3716559410095215,-5.075551509857178,18.511219024658203
1702137815235700700,9.39470068359375,-5.331521987915039,-4.948831081390381,19.600399017333984
1702137815252700400,9.411700439453124,-7.646538734436035,-6.206191539764404,20.511165618896484
1702137815269695200,9.4286953125,-5.459476470947266,-7.525601863861084,21.29812240600586
1702137815286684400,9.445684326171875,-3.5967752933502197,-8.295559883117676,22.834877014160156
1702137815303676200,9.46267626953125,-3.7453579902648926,-8.591364860534668,24.05259895324707
1702137815320666400,9.479666259765626,-4.691578388214111,-8.620662689208984,23.409305572509766
1702137815337654800,9.49665478515625,-5.382463455200195,-8.528495788574219,21.1595516204834
1702137815354652400,9.51365234375,-5.362985610961914,-9.445602416992188,18.212867736816406
1702137815371640300,9.530640380859374,-2.9137136936187744,-11.475213050842285,14.153762817382812
1702137815388628500,9.54762841796875,1.8674662113189697,-11.823017120361328,9.166386604309082
1702137815405625300,9.564625244140625,3.4824514389038086,-10.828712463378906,6.976938724517822
1702137815422613000,9.581613037109374,-0.32836341857910156,-11.046356201171875,9.350093841552734
1702137815439602700,9.598602783203125,-3.7999677658081055,-12.822612762451172,13.879672050476074
1702137815456597800,9.61559765625,-4.499963760375977,-13.956859588623047,14.982461929321289
1702137815473587500,9.63258740234375,-3.3314290046691895,-15.353507995605469,12.248138427734375
1702137815490572500,9.649572509765624,1.1493902206420898,-16.568016052246094,8.863316535949707
1702137815507559400,9.666559326171875,5.610542297363281,-17.18821907043457,8.904012680053711
1702137815524560400,9.683560302734374,6.194287300109863,-18.045839309692383,14.06689167022705
1702137815541551900,9.7005517578125,2.2844338417053223,-17.531448364257812,19.525531768798828
1702137815558542300,9.717542236328125,-0.519209623336792,-17.33784294128418,25.354610443115234
1702137815575533800,9.734533935546875,-0.29092133045196533,-15.420679092407227,30.132164001464844
1702137815592514000,9.75151416015625,0.6540951728820801,-14.083932876586914,35.46775817871094
1702137815609516000,9.76851611328125,-0.860260009765625,-11.000589370727539,37.309749603271484
1702137815626504700,9.785504638671876,-5.692166805267334,-9.101287841796875,34.68834686279297
1702137815643490300,9.802490234375,-10.659348487854004,-8.643129348754883,35.5062255859375
1702137815660489200,9.8194892578125,-12.31963062286377,-11.212823867797852,40.61442947387695
1702137815677481000,9.83648095703125,-7.190376281738281,-14.054441452026367,43.173892974853516
1702137815694476300,9.853476318359375,-1.784999966621399,-14.631738662719727,43.49302291870117
1702137815711463000,9.870462890625,-0.7230107188224792,-14.46281909942627,43.199249267578125
1702137815728453400,9.887453369140625,-2.184635639190674,-14.832040786743164,43.85498809814453
1702137815745434600,9.9044345703125,-1.6337224245071411,-15.347474098205566,44.975250244140625
1702137815762435800,9.921435791015625,2.0825259685516357,-15.596368789672852,46.040008544921875
1702137815779427300,9.93842724609375,5.231154441833496,-15.317390441894531,44.32978439331055
1702137815796418000,9.95541796875,4.514245510101318,-17.356857299804688,41.17379379272461
1702137815813409800,9.972409912109375,4.6026105880737305,-21.31882095336914,36.91029357910156
1702137815830400300,9.989400146484375,8.125783920288086,-26.81363868713379,32.567039489746094
1702137815847392000,10.00639208984375,13.693328857421875,-32.29130172729492,28.66221809387207
1702137815864382500,10.023382568359375,16.03386688232422,-33.50697326660156,21.961688995361328
1702137815881374200,10.040374267578125,14.735140800476074,-30.718412399291992,12.378459930419922
1702137815898362000,10.057362060546875,12.343527793884277,-26.38821029663086,7.229730129241943
1702137815915356400,10.0743564453125,8.3040189743042,-22.825321197509766,7.5775146484375
1702137815932349700,10.091349609375,5.155510902404785,-19.57101821899414,8.221590995788574
1702137815949338600,10.108338623046874,2.957383155822754,-17.2736873626709,6.752761363983154
1702137815966329000,10.1253291015625,1.2437200546264648,-14.461599349975586,5.061013698577881
1702137815983303400,10.142303466796875,-1.0354242324829102,-13.598634719848633,5.120163917541504
1702137816000313900,10.15931396484375,0.33812427520751953,-13.679887771606445,5.083298683166504
1702137816017300700,10.17630078125,2.3168487548828125,-13.532401084899902,4.838947772979736
1702137816034292500,10.19329248046875,3.1316490173339844,-12.851730346679688,5.944090843200684
1702137816051285200,10.21028515625,3.3427658081054688,-12.387547492980957,9.514333724975586
1702137816068276000,10.22727587890625,3.5307235717773438,-12.28377628326416,14.390359878540039
1702137816085267700,10.244267822265625,5.053372859954834,-12.809029579162598,17.367225646972656
1702137816102247700,10.26124755859375,5.640852451324463,-13.342741966247559,17.200742721557617
1702137816119247400,10.278247314453125,4.461018085479736,-15.612702369689941,16.768596649169922
1702137816136243000,10.295242919921876,2.9371538162231445,-18.428653717041016,19.985858917236328
1702137816153232100,10.312232177734375,1.3713030815124512,-20.582805633544922,26.1420955657959
1702137816170225400,10.329225341796874,1.1804230213165283,-22.105175018310547,31.971073150634766
1702137816187211800,10.346211669921875,3.330298900604248,-23.40557289123535,35.04492950439453
1702137816204205000,10.363205078125,4.3044843673706055,-23.88802719116211,33.832557678222656
1702137816221196500,10.380196533203126,2.409104347229004,-26.157629013061523,31.925296783447266
1702137816238187300,10.397187255859375,0.2963597774505615,-29.890308380126953,33.874820709228516
1702137816255178200,10.41417822265625,-2.1475753784179688,-30.31256103515625,36.83018493652344
1702137816272167700,10.431167724609375,-1.7329285144805908,-29.11725425720215,38.54697799682617
1702137816289143000,10.44814306640625,1.1773109436035156,-27.836307525634766,37.99583053588867
1702137816306135600,10.465135498046875,-1.267018437385559,-30.285795211791992,35.80836868286133
1702137816323133700,10.4821337890625,0.3612656593322754,-31.15447998046875,32.39110565185547
1702137816340136000,10.499135986328126,6.3005452156066895,-31.504924774169922,36.419654846191406
1702137816357125400,10.51612548828125,6.472935676574707,-31.171344757080078,42.5437126159668
1702137816374105600,10.533105712890626,4.7070417404174805,-27.470775604248047,41.97092819213867
1702137816391107800,10.55010791015625,5.53790283203125,-23.510677337646484,40.381126403808594
1702137816408088600,10.567088623046875,5.219058036804199,-20.430612564086914,42.5672721862793
1702137816425079600,10.58407958984375,-1.3236846923828125,-17.121097564697266,43.85930633544922
1702137816442066700,10.601066650390624,-6.961345195770264,-12.882713317871094,35.91839599609375
1702137816459063300,10.618063232421875,0.9765894412994385,-8.00920295715332,29.238000869750977
1702137816476055000,10.635054931640624,6.542601585388184,-7.276501655578613,33.69481658935547
1702137816493045800,10.652045654296876,3.677123546600342,-3.1144628524780273,34.46559143066406
1702137816510037000,10.669037109375,-3.350285053253174,0.3521305322647095,28.45716667175293
1702137816527033300,10.686033447265626,-4.742847442626953,3.436476707458496,21.564964294433594
1702137816544019000,10.70301904296875,-1.2429614067077637,4.862758636474609,19.97721290588379
1702137816561009700,10.720009765625,1.2370744943618774,7.6899638175964355,21.022775650024414
1702137816578000600,10.737000732421874,-1.4042493104934692,8.859380722045898,22.39922523498535
1702137816594996000,10.753995849609375,-3.5533666610717773,10.72548770904541,21.58545684814453
1702137816611982300,10.770982421875,-4.670980453491211,11.529274940490723,19.95035171508789
1702137816628972500,10.78797265625,-3.697676658630371,10.18801498413086,18.200176239013672
1702137816645966000,10.804966064453126,-3.8367552757263184,7.94138765335083,16.240699768066406
1702137816662956000,10.8219560546875,-4.500633239746094,4.618525505065918,12.957200050354004
1702137816679945200,10.8389453125,-3.3220221996307373,1.8289436101913452,9.593326568603516
1702137816696940000,10.85593994140625,-0.9763009548187256,-0.8536359071731567,6.832662582397461
1702137816713932000,10.87293212890625,1.9281177520751953,-3.182260513305664,4.735955238342285
1702137816730921500,10.88992138671875,3.924229621887207,-4.934525966644287,3.6344823837280273
1702137816747912000,10.906911865234376,4.2878851890563965,-6.355521202087402,2.6389312744140625
1702137816764903400,10.9239033203125,3.6160757541656494,-7.243022918701172,1.7192087173461914
1702137816781889500,10.9408896484375,3.3358590602874756,-7.558015823364258,1.2363510131835938
1702137816798898700,10.957898681640625,3.3394556045532227,-7.702068328857422,1.2877988815307617
1702137816815874800,10.974874755859375,3.736654281616211,-7.61947774887085,1.2455873489379883
1702137816832877000,10.991876953125,4.124960899353027,-7.570709228515625,1.2746152877807617
1702137816849867500,11.008867431640626,4.266451835632324,-7.580863952636719,1.2313642501831055
1702137816866859000,11.02585888671875,4.754074573516846,-7.487640380859375,1.100381851196289
1702137816883849700,11.042849609375,5.320570468902588,-7.539841651916504,0.9023313522338867
1702137816900839400,11.05983935546875,6.484467029571533,-7.488358497619629,1.1174135208129883
1702137816917820400,11.0768203125,7.055724143981934,-7.247532844543457,1.099924087524414
1702137816934822700,11.09382275390625,7.056075096130371,-6.946271896362305,1.0820446014404297
1702137816951816000,11.11081591796875,6.673962116241455,-6.522968292236328,1.1423583030700684
1702137816968806100,11.12780615234375,6.468181610107422,-6.419158935546875,1.686769962310791
1702137816985794800,11.144794921875,6.737374305725098,-6.196789264678955,2.8218274116516113
1702137817002790000,11.161789794921875,7.20670223236084,-5.733372688293457,4.114072322845459
1702137817019778800,11.17877880859375,7.2401909828186035,-5.282448768615723,4.475846290588379
1702137817036770600,11.1957705078125,6.932495594024658,-4.88836145401001,4.430874824523926
1702137817053750300,11.212750244140626,5.820317268371582,-4.730134963989258,4.683905124664307
1702137817070752800,11.229752685546876,5.241474151611328,-4.480533599853516,5.912655353546143
1702137817087743500,11.246743408203125,5.452753067016602,-3.9150805473327637,8.139195442199707
1702137817104735000,11.26373486328125,5.402832508087158,-2.506741523742676,7.846133232116699
1702137817121722600,11.28072265625,2.9759902954101562,0.3577232360839844,5.663261413574219
1702137817138719700,11.2977197265625,-0.000957489013671875,2.2963128089904785,4.486687660217285
1702137817155707600,11.314707763671874,2.5316872596740723,2.6935081481933594,6.486009120941162
1702137817172699400,11.331699462890626,3.835444211959839,3.859477996826172,7.352703094482422
1702137817189690000,11.348690185546875,1.4826464653015137,5.302570819854736,4.738736629486084
1702137817206681300,11.365681396484375,-3.4200406074523926,6.110231876373291,1.5631866455078125
1702137817223672300,11.38267236328125,-5.214905738830566,5.45866060256958,-0.30832815170288086
1702137817240663800,11.399663818359375,-3.4984846115112305,4.167673587799072,-1.979931354522705
1702137817257652000,11.41665185546875,-1.0525469779968262,2.4576501846313477,-3.5724520683288574
1702137817274646000,11.43364599609375,0.6451873779296875,1.0236177444458008,-5.248149871826172
1702137817291639300,11.450639404296876,0.7929224967956543,-0.2276144027709961,-6.736011028289795
1702137817308628500,11.46762841796875,0.6248788833618164,-1.2148375511169434,-7.927028656005859
1702137817325616400,11.484616455078125,0.9119234085083008,-2.0550732612609863,-8.336465835571289
1702137817342602200,11.501602294921875,1.6181416511535645,-3.146193027496338,-7.63991117477417
1702137817359602400,11.5186025390625,2.160090446472168,-4.598640441894531,-6.546327114105225
1702137817376590000,11.535590087890625,2.4697699546813965,-6.613846778869629,-5.709855556488037
1702137817393586000,11.5525859375,3.9693267345428467,-8.359406471252441,-6.0136895179748535
1702137817410572300,11.569572265625,5.647058486938477,-9.465746879577637,-7.114485740661621
1702137817427568400,11.586568359375,6.377135753631592,-10.597980499267578,-7.711841106414795
1702137817444548600,11.603548583984375,5.939268112182617,-11.51037311553955,-8.235280990600586
1702137817461545500,11.62054541015625,5.260931968688965,-12.251510620117188,-8.356893539428711
1702137817478541800,11.637541748046875,4.74006986618042,-13.158266067504883,-7.537687301635742
1702137817495530200,11.6545302734375,3.9282469749450684,-14.597330093383789,-5.436758995056152
1702137817512511200,11.67151123046875,5.552518844604492,-16.45406723022461,-1.8050756454467773
1702137817529512200,11.68851220703125,9.246255874633789,-16.533954620361328,0.8583064079284668
1702137817546489300,11.7054892578125,7.930354118347168,-15.536247253417969,1.8621306419372559
1702137817563483600,11.722483642578124,3.4557454586029053,-15.788881301879883,3.081778049468994
1702137817580490800,11.73949072265625,-0.43051719665527344,-17.58938217163086,4.826143264770508
1702137817597476900,11.756476806640626,0.24257922172546387,-18.52251434326172,9.107985496520996
1702137817614468400,11.77346826171875,0.5688941478729248,-18.57503890991211,13.071453094482422
1702137817631448600,11.790448486328126,-2.1714675426483154,-17.139545440673828,13.594339370727539
1702137817648450300,11.8074501953125,-7.110011577606201,-16.461286544799805,13.4780912399292
1702137817665441800,11.82444189453125,-10.920095443725586,-16.854190826416016,15.060500144958496
1702137817682433000,11.84143310546875,-11.991301536560059,-18.12556266784668,17.664087295532227
1702137817699423700,11.858423828125,-10.714408874511719,-18.56505012512207,19.295339584350586
1702137817716415000,11.8754150390625,-9.329538345336914,-18.324010848999023,19.763710021972656
1702137817733405000,11.892405029296874,-8.513547897338867,-17.938644409179688,20.1751708984375
1702137817750398500,11.9093984375,-7.175750732421875,-17.311735153198242,21.22509765625
1702137817767388200,11.92638818359375,-6.4265007972717285,-16.06052017211914,23.78683853149414
1702137817784379600,11.943379638671875,-6.630047798156738,-14.086129188537598,27.503681182861328
1702137817801360000,11.96035986328125,-5.756413459777832,-12.063555717468262,31.50201988220215
1702137817818347000,11.977346923828126,-4.082361221313477,-10.215481758117676,33.92903137207031
1702137817835350000,11.99435009765625,-1.5202419757843018,-10.1929292678833,32.892147064208984
1702137817852346600,12.0113466796875,4.069500923156738,-10.621123313903809,28.636322021484375
1702137817869334800,12.028334716796875,9.845508575439453,-10.63812255859375,25.932220458984375
1702137817886326500,12.045326416015625,10.825854301452637,-10.973337173461914,23.29137420654297
1702137817903317000,12.06231689453125,10.728474617004395,-11.13449478149414,21.318138122558594
1702137817920298000,12.079298095703125,10.53890609741211,-11.660285949707031,21.2669677734375
1702137817937299500,12.096299560546875,9.327098846435547,-12.811628341674805,21.283082962036133
1702137817954290700,12.113290771484374,9.819416046142578,-12.863847732543945,18.448898315429688
1702137817971281700,12.13028173828125,14.019631385803223,-12.204574584960938,16.339813232421875
1702137817988273200,12.147273193359375,14.993548393249512,-13.058048248291016,18.569442749023438
1702137818005263600,12.164263671875,10.559606552124023,-14.393577575683594,21.938905715942383
1702137818022245000,12.1812451171875,4.416687965393066,-14.774032592773438,24.62881851196289
1702137818039243300,12.1982431640625,3.420750617980957,-15.196462631225586,23.90412139892578
1702137818056231000,12.21523095703125,7.949789524078369,-15.330808639526367,20.393016815185547
1702137818073225700,12.232225830078125,10.40905475616455,-14.943458557128906,16.671920776367188
1702137818090222600,12.24922265625,9.26317310333252,-12.385683059692383,12.536284446716309
1702137818107210500,12.26621044921875,7.744168281555176,-10.835697174072266,11.039140701293945
1702137818124203000,12.283203125,7.083808422088623,-10.489106178283691,10.786078453063965
1702137818141191700,12.300191650390625,7.168777942657471,-11.910985946655273,12.451765060424805
1702137818158184200,12.31718408203125,7.516573429107666,-12.881965637207031,14.282344818115234
1702137818175170300,12.33417041015625,6.153293132781982,-12.702112197875977,15.576618194580078
1702137818192171300,12.351171142578124,3.4138262271881104,-11.560443878173828,17.214641571044922
1702137818209156600,12.368156494140624,-0.8717007637023926,-11.072572708129883,19.35650062561035
1702137818226144800,12.385144775390625,-4.982819080352783,-10.758106231689453,19.99593734741211
1702137818243143700,12.402143798828124,-6.567190647125244,-9.525964736938477,18.650588989257812
1702137818260131000,12.419131103515625,-3.850454807281494,-8.433767318725586,19.16366195678711
1702137818277122000,12.4361220703125,-1.3904868364334106,-9.395700454711914,21.99652099609375
1702137818294112800,12.45311279296875,-1.3265862464904785,-9.151946067810059,21.39028549194336
1702137818311103700,12.470103759765625,-3.6447653770446777,-8.169958114624023,17.884233474731445
1702137818328095500,12.487095458984374,-6.237842559814453,-7.544989109039307,14.831729888916016
1702137818345086000,12.5040859375,-7.534767150878906,-8.011205673217773,12.475020408630371
1702137818362062000,12.52106201171875,-4.087579250335693,-9.286654472351074,11.10914421081543
1702137818379068000,12.53806787109375,-0.36997222900390625,-9.562981605529785,10.130548477172852
1702137818396049400,12.55504931640625,0.5798959732055664,-9.677826881408691,9.744060516357422
1702137818413048000,12.572048095703124,-0.14174652099609375,-10.770136833190918,10.85464859008789
1702137818430044700,12.589044677734375,0.6920790672302246,-12.100929260253906,11.674986839294434
1702137818447032600,12.606032470703125,0.3690032958984375,-13.546367645263672,12.714029312133789
1702137818464020500,12.6230205078125,-1.5616521835327148,-16.52103042602539,12.494933128356934
1702137818481019100,12.64001904296875,0.5915756225585938,-18.95865821838379,9.039718627929688
1702137818498004000,12.65700390625,5.092293739318848,-20.576847076416016,6.898086071014404
1702137818514998000,12.673998046875,7.624536037445068,-20.385000228881836,8.001919746398926
1702137818531990500,12.690990478515625,4.85153341293335,-19.41699981689453,12.708274841308594
1702137818548979200,12.707979248046875,1.3320027589797974,-19.54352569580078,21.242446899414062
1702137818565968600,12.72496875,1.5208992958068848,-19.253725051879883,28.334274291992188
1702137818582954200,12.741954345703125,4.010207653045654,-17.071929931640625,29.1734561920166
1702137818599953400,12.758953369140626,3.719902515411377,-15.535181045532227,29.42826271057129
1702137818616943900,12.77594384765625,0.4034445285797119,-14.490949630737305,31.461076736450195
1702137818633931500,12.792931640625,-3.6009035110473633,-14.071890830993652,34.66280746459961
1702137818650926000,12.809926025390626,-4.292840957641602,-14.879874229431152,37.70874786376953
1702137818667905500,12.826905517578124,-1.6860685348510742,-16.975088119506836,39.500953674316406
1702137818684900900,12.84390087890625,0.8101998567581177,-19.72789192199707,42.285560607910156
1702137818701904000,12.86090380859375,2.3184432983398438,-21.560165405273438,43.708221435546875
1702137818718890800,12.877890869140625,4.556797027587891,-22.303247451782227,44.80431365966797
1702137818735882000,12.894882080078125,6.2012176513671875,-23.83584213256836,46.36741256713867
1702137818752876300,12.911876220703125,8.398538589477539,-24.903701782226562,43.882041931152344
1702137818769860900,12.92886083984375,11.777019500732422,-26.62111473083496,41.27427673339844
1702137818786855200,12.945855224609375,14.045086860656738,-28.361446380615234,38.274295806884766
1702137818803846700,12.9628466796875,13.730243682861328,-30.917545318603516,33.36408615112305
1702137818820837000,12.979837158203125,14.243452072143555,-33.93638229370117,27.113401412963867
1702137818837824500,12.996824462890626,14.603917121887207,-35.143836975097656,21.488061904907227
1702137818854821000,13.013821044921874,11.96583080291748,-33.22963333129883,16.316715240478516
1702137818871813600,13.030813720703126,9.269758224487305,-31.03923797607422,11.815184593200684
1702137818888801800,13.0478017578125,7.814958095550537,-28.73242950439453,8.798983573913574
1702137818905793300,13.064793212890624,5.475375175476074,-23.79585838317871,6.364107608795166
1702137818922769200,13.08176904296875,3.2760610580444336,-20.9913387298584,5.774816036224365
1702137818939775200,13.098775146484375,2.8628854751586914,-18.523061752319336,4.114091873168945
1702137818956766000,13.115765869140626,3.630321502685547,-16.35870361328125,3.9273338317871094
1702137818973757700,13.1327578125,4.598728179931641,-15.628999710083008,6.017837047576904
1702137818990749000,13.1497490234375,5.414492607116699,-14.80196762084961,7.40617561340332
1702137819007739400,13.166739501953124,5.307756423950195,-13.744726181030273,7.822977066040039
1702137819024730600,13.183730712890625,3.8407859802246094,-14.026430130004883,9.294660568237305
1702137819041722400,13.200722412109375,2.3986968994140625,-14.971732139587402,10.27328872680664
1702137819058712600,13.217712646484374,1.8133759498596191,-16.284006118774414,11.774303436279297
1702137819075703800,13.234703857421875,3.55979585647583,-19.482589721679688,16.586702346801758
1702137819092694800,13.25169482421875,7.245291233062744,-20.334102630615234,19.05095100402832
1702137819109686500,13.2686865234375,8.533679962158203,-21.088571548461914,20.903039932250977
1702137819126677500,13.285677490234375,6.105737686157227,-23.50601577758789,24.55359649658203
1702137819143669000,13.3026689453125,2.1703379154205322,-25.73647689819336,30.25556182861328
1702137819160657000,13.319656982421876,-0.6127622127532959,-27.545185089111328,34.9965705871582
1702137819177652000,13.33665185546875,-0.5786354541778564,-29.661529541015625,36.13396453857422
1702137819194643700,13.353643798828125,1.5061628818511963,-31.127368927001953,34.665199279785156
1702137819211633400,13.37063330078125,0.699825644493103,-31.081594467163086,32.89295196533203
1702137819228613600,13.387613525390625,-3.134258508682251,-33.760589599609375,34.964271545410156
1702137819245615900,13.404615966796875,-1.4452860355377197,-34.32908248901367,36.373531341552734
1702137819262606000,13.421606201171874,1.6872690916061401,-33.488121032714844,36.19100570678711
1702137819279597800,13.438597900390626,7.049070358276367,-33.583984375,35.98366165161133
1702137819296587800,13.455587890625,10.303227424621582,-33.25896453857422,36.36344909667969
1702137819313580500,13.47258056640625,7.329941749572754,-32.29277801513672,37.193538665771484
1702137819330570500,13.489570556640626,4.912951469421387,-28.69980239868164,36.448509216308594
1702137819347562500,13.5065625,2.4476404190063477,-28.734941482543945,39.84822082519531
1702137819364542200,13.523542236328124,0.6688675880432129,-26.303455352783203,40.464805603027344
1702137819381536000,13.540535888671876,-0.2561883330345154,-24.14769744873047,37.57975387573242
1702137819398535200,13.55753515625,5.609676361083984,-18.98040008544922,32.20873260498047
1702137819415526700,13.574526611328125,6.540524482727051,-15.87784194946289,34.67826461791992
1702137819432517400,13.591517333984376,3.4953079223632812,-14.401506423950195,36.22662353515625
1702137819449508900,13.6085087890625,6.488131999969482,-10.982572555541992,31.345623016357422
1702137819466499600,13.62549951171875,7.487471103668213,-3.906576633453369,26.793176651000977
1702137819483480800,13.642480712890626,1.0538409948349,-1.1257600784301758,28.517475128173828
1702137819500481500,13.6594814453125,-2.4786617755889893,2.736680030822754,30.07485580444336
1702137819517473300,13.676473388671875,0.39717555046081543,6.956133842468262,30.19942855834961
1702137819534464300,13.69346435546875,0.9379178285598755,9.504365921020508,28.840526580810547
1702137819551455500,13.71045556640625,-3.2522807121276855,9.111957550048828,25.44074058532715
1702137819568433400,13.727433349609376,-8.562854766845703,8.868532180786133,19.815685272216797
1702137819585440500,13.7444404296875,-12.32827091217041,7.612896919250488,16.137205123901367
1702137819602428700,13.7614287109375,-12.53237247467041,6.187014579772949,13.458370208740234
1702137819619417000,13.7784169921875,-10.579668998718262,4.74716854095459,10.12891674041748
1702137819636411000,13.795410888671874,-7.63542366027832,2.48545503616333,7.67421817779541
1702137819653402400,13.81240234375,-5.5702080726623535,-0.17588305473327637,6.911507606506348
1702137819670392800,13.829392822265625,-4.6435346603393555,-2.19376277923584,4.792206764221191
1702137819687384800,13.846384765625,-3.0886447429656982,-3.66983699798584,2.8694534301757812
1702137819704375300,13.863375244140625,-0.7716228365898132,-4.994712829589844,2.1997575759887695
1702137819721366500,13.880366455078125,2.5098049640655518,-5.787692070007324,1.9204778671264648
1702137819738359800,13.89735986328125,4.2990922927856445,-6.5347900390625,2.2203359603881836
1702137819755346200,13.91434619140625,5.235525608062744,-7.251381874084473,2.1272382736206055
1702137819772339700,13.931339599609375,5.9923224449157715,-7.337121963500977,1.0794506072998047
1702137819789319700,13.948319580078126,6.3917388916015625,-7.400638103485107,-0.15314388275146484
1702137819806314000,13.96531396484375,6.8526201248168945,-7.2579240798950195,-0.9930095672607422
1702137819823315700,13.982315673828126,7.306650638580322,-6.838924407958984,-1.0802383422851562
1702137819840306700,13.999306640625,8.02380084991455,-6.356204986572266,-0.5994272232055664
1702137819857297200,14.016297119140624,8.898651123046875,-5.660653591156006,-0.0672006607055664
1702137819874284500,14.033284423828125,8.494329452514648,-5.192470550537109,0.6366548538208008
1702137819891265000,14.05026513671875,7.143588542938232,-4.904001235961914,0.7909393310546875
1702137819908267800,14.067267822265626,5.887413024902344,-4.627472400665283,0.42645692825317383
1702137819925254400,14.08425439453125,5.7431840896606445,-5.046124458312988,0.4665040969848633
1702137819942240800,14.10124072265625,6.680687427520752,-5.452292442321777,1.132066249847412
1702137819959241200,14.1182412109375,7.938631534576416,-5.126380920410156,1.2566227912902832
1702137819976226300,14.135226318359376,8.226177215576172,-4.497414588928223,1.384812831878662
1702137819993221000,14.15222119140625,7.723471641540527,-3.9750916957855225,0.8842802047729492
1702137820010204000,14.169203857421875,6.76088809967041,-3.5089473724365234,0.037798404693603516
1702137820027203600,14.18620361328125,5.762223243713379,-3.1403446197509766,1.0928025245666504
1702137820044190500,14.2031904296875,5.243037223815918,-3.0481700897216797,3.204028606414795
1702137820061185000,14.22018505859375,4.938164710998535,-2.5257461071014404,4.906136989593506
1702137820078169900,14.237169921875,4.800080299377441,-1.6776046752929688,4.385049819946289
1702137820095171000,14.254171142578125,4.266502857208252,0.5752296447753906,2.2171874046325684
1702137820112156700,14.27115673828125,2.110495090484619,2.2141263484954834,1.9002065658569336
1702137820129145300,14.288145263671876,1.029902458190918,2.4200546741485596,3.9566264152526855
1702137820146142000,14.305141845703124,1.5639886856079102,3.1004462242126465,7.648775100708008
1702137820163130400,14.32213037109375,1.7626800537109375,5.010488510131836,9.386311531066895
1702137820180123100,14.339123046875,-0.2337179183959961,7.485495567321777,7.8990092277526855
1702137820197109500,14.356109619140625,-2.150920867919922,8.694660186767578,6.768147945404053
1702137820214107000,14.37310693359375,-2.549440860748291,8.757797241210938,7.712350845336914
1702137820231097300,14.390097412109375,-1.8945250511169434,7.565525054931641,9.766483306884766
1702137820248083700,14.407083740234375,-0.559779167175293,6.6655755043029785,9.910266876220703
1702137820265073700,14.42407373046875,0.10828542709350586,5.884680271148682,7.715729236602783
1702137820282060000,14.44106005859375,0.4640026092529297,5.0398359298706055,3.618204116821289
1702137820299063600,14.4580634765625,0.4972357749938965,3.8700790405273438,0.31078433990478516
1702137820316057900,14.475057861328125,1.3575358390808105,2.049485683441162,-0.6300725936889648
1702137820333047000,14.492047119140626,2.272108554840088,0.48423194885253906,-1.257216215133667
1702137820350037800,14.509037841796875,3.437103271484375,-0.8535046577453613,-2.5924482345581055
1702137820367026400,14.5260263671875,4.801947593688965,-1.9263615608215332,-3.997901201248169
1702137820384012300,14.54301220703125,5.637601375579834,-2.959901809692383,-4.825849533081055
1702137820401023200,14.560023193359376,6.12239408493042,-3.9671449661254883,-5.148680686950684
1702137820417999400,14.576999267578126,6.378100872039795,-5.047277927398682,-5.261418342590332
1702137820434985700,14.59398583984375,6.529218673706055,-6.238978385925293,-5.712395191192627
1702137820451984400,14.610984375,7.096866607666016,-6.884984493255615,-6.636782169342041
1702137820468975900,14.627975830078125,7.630956649780273,-7.277161598205566,-7.303814888000488
1702137820485956000,14.6449560546875,8.134645462036133,-7.653441429138184,-7.2631635665893555
1702137820502956300,14.661956298828125,8.256143569946289,-8.297994613647461,-6.491643905639648
1702137820519950300,14.678950439453125,7.793876647949219,-9.203336715698242,-5.559374809265137
1702137820536940000,14.69593994140625,6.658469200134277,-10.210467338562012,-5.155832290649414
1702137820553931000,14.712930908203125,6.5326828956604,-11.479429244995117,-5.060434818267822
1702137820570922500,14.729922607421875,7.408246040344238,-12.517146110534668,-4.804713249206543
1702137820587902500,14.74690234375,8.239269256591797,-13.399524688720703,-4.057992935180664
1702137820604902100,14.763902099609375,7.960214138031006,-14.080392837524414,-2.340426445007324
1702137820621896000,14.78089599609375,5.552759170532227,-15.365193367004395,0.9316380023956299
1702137820638876200,14.797876220703126,2.507553815841675,-17.571712493896484,4.7966461181640625
1702137820655876600,14.814876708984375,0.8326437473297119,-19.42738914489746,7.312705039978027
1702137820672870000,14.831869873046875,0.0606691837310791,-20.509788513183594,8.154979705810547
1702137820689859800,14.84885986328125,-0.7074692249298096,-20.72934341430664,8.83065414428711
1702137820706851600,14.8658515625,-3.0723884105682373,-20.664777755737305,10.9183931350708
1702137820723841800,14.882841796875,-8.107356071472168,-19.65707015991211,15.221902847290039
1702137820740833800,14.899833740234374,-13.840646743774414,-20.124704360961914,19.629854202270508
1702137820757810700,14.916810791015624,-14.705961227416992,-19.760211944580078,21.544750213623047
1702137820774818800,14.93381884765625,-13.575116157531738,-20.07375717163086,23.943376541137695
1702137820791798800,14.950798828125,-11.559137344360352,-20.617280960083008,29.222320556640625
1702137820808798000,14.9677978515625,-9.742402076721191,-19.96350860595703,37.04098129272461
1702137820825778200,14.984778076171875,-8.182774543762207,-18.61087989807129,43.00959014892578
1702137820842780200,15.0017802734375,-5.76472282409668,-16.184524536132812,42.57644271850586
1702137820859768800,15.018768798828125,-1.1037825345993042,-14.024375915527344,38.17705535888672
1702137820876765400,15.035765380859376,3.5560379028320312,-12.249665260314941,34.54048156738281
1702137820893741300,15.0527412109375,6.463186264038086,-11.37020206451416,32.37519073486328
1702137820910742800,15.06974267578125,8.468672752380371,-10.924814224243164,31.20492172241211
1702137820927736800,15.08673681640625,10.00058364868164,-10.348969459533691,29.682241439819336
1702137820944726800,15.103726806640625,10.423171997070312,-11.09347152709961,28.29473114013672
1702137820961717500,15.120717529296876,11.506806373596191,-12.994658470153809,26.11382484436035
1702137820978709000,15.137708984375,11.632555961608887,-14.37684154510498,24.410226821899414
1702137820995698200,15.1546982421875,10.495891571044922,-14.773717880249023,21.87874984741211
1702137821012693000,15.17169287109375,10.095078468322754,-14.816073417663574,20.95068359375
1702137821029681700,15.188681640625,8.37165641784668,-15.155467987060547,21.60985565185547
1702137821046673400,15.20567333984375,5.902677536010742,-15.058622360229492,20.047760009765625
1702137821063659500,15.222659423828125,5.244737148284912,-14.482988357543945,17.338905334472656
1702137821080660200,15.23966015625,7.898452281951904,-12.448083877563477,17.078121185302734
1702137821097636000,15.256635986328124,9.878639221191406,-11.831558227539062,20.505231857299805
1702137821114638300,15.273638427734374,9.63675308227539,-12.644105911254883,22.291101455688477
1702137821131628500,15.290628662109375,9.739856719970703,-14.383180618286133,18.726497650146484
1702137821148620300,15.307620361328125,10.077102661132812,-13.701140403747559,13.645907402038574
1702137821165610800,15.32461083984375,9.345272064208984,-11.761331558227539,10.859785079956055
1702137821182602500,15.3416025390625,6.576733112335205,-9.419092178344727,12.910950660705566
1702137821199590400,15.35859033203125,2.2701034545898438,-9.041657447814941,18.807849884033203
1702137821216587300,15.375587158203125,-0.002397894859313965,-8.456504821777344,20.225648880004883
1702137821233575200,15.3925751953125,-0.18277859687805176,-7.399113655090332,17.956317901611328
1702137821250564400,15.409564453125,-2.6349403858184814,-5.412599563598633,14.435989379882812
1702137821267560000,15.426559814453125,-8.317049026489258,-3.3453478813171387,12.900854110717773
1702137821284549000,15.443549072265625,-15.667296409606934,-2.8263611793518066,15.832134246826172
1702137821301539600,15.46053955078125,-19.007061004638672,-5.099364280700684,20.89877700805664
1702137821318531000,15.477531005859374,-16.373605728149414,-8.86499309539795,24.39257049560547
1702137821335522000,15.49452197265625,-11.424725532531738,-10.984746932983398,21.839698791503906
1702137821352513300,15.51151318359375,-4.85359525680542,-9.093711853027344,17.74749183654785
1702137821369503500,15.52850341796875,-2.013310432434082,-7.7700514793396,18.510910034179688
1702137821386496800,15.545496826171876,-3.8247909545898438,-8.368658065795898,21.093395233154297
1702137821403475700,15.562475830078125,-5.485357284545898,-8.817061424255371,18.714107513427734
1702137821420478000,15.57947802734375,-4.159235000610352,-9.925081253051758,13.216229438781738
1702137821437468400,15.596468505859375,-0.02592945098876953,-9.996224403381348,9.037700653076172
1702137821454460000,15.6134599609375,2.192403554916382,-10.148412704467773,11.038333892822266
1702137821471451000,15.630450927734374,-2.1981148719787598,-10.111076354980469,14.504069328308105
1702137821488442000,15.647442138671876,-8.966882705688477,-12.209060668945312,16.686344146728516
1702137821505440000,15.66443994140625,-10.310746192932129,-14.253873825073242,14.363208770751953
1702137821522422000,15.681422119140626,-3.8497304916381836,-15.910033226013184,9.524064064025879
1702137821539417900,15.69841796875,1.77799654006958,-17.017704010009766,8.643597602844238
1702137821556406800,15.71540673828125,2.224274158477783,-18.00613021850586,14.279677391052246
1702137821573397200,15.732397216796874,-0.9363999366760254,-18.198455810546875,22.63435173034668
1702137821590388700,15.749388671875,-2.815640449523926,-17.091327667236328,29.744531631469727
1702137821607379700,15.766379638671875,-0.9448189735412598,-13.5143461227417,33.45578384399414
1702137821624371200,15.78337109375,-3.117663621902466,-9.997547149658203,36.57526397705078
1702137821641362000,15.80036181640625,-10.306811332702637,-8.427696228027344,37.51926803588867
1702137821658350800,15.817350830078125,-17.06308364868164,-8.818506240844727,36.8485221862793
1702137821675346700,15.8343466796875,-18.34261703491211,-11.641493797302246,38.60337829589844
1702137821692331500,15.85133154296875,-10.021781921386719,-14.610915184020996,46.22793197631836
1702137821709330400,15.868330322265624,-2.6317806243896484,-13.218632698059082,50.76529312133789
1702137821726317800,15.88531787109375,-2.4532341957092285,-11.379291534423828,49.4149284362793
1702137821743317000,15.90231689453125,-5.788308143615723,-11.833418846130371,47.10969543457031
1702137821760300000,15.919300048828125,-6.778879165649414,-13.476117134094238,48.30012130737305
1702137821777290500,15.93629052734375,-4.0863037109375,-14.987308502197266,50.06348419189453
1702137821794282500,15.953282470703124,-0.5693094730377197,-17.082565307617188,51.030582427978516
1702137821811272700,15.970272705078125,2.4419898986816406,-19.531538009643555,50.00572967529297
1702137821828248600,15.98724853515625,3.446079969406128,-24.595579147338867,46.825130462646484
1702137821845255200,16.004255126953126,5.906434059143066,-30.65314292907715,39.45244216918945
1702137821862235000,16.02123486328125,8.485527038574219,-35.23331832885742,32.50606155395508
1702137821879236000,16.038236083984376,9.796012878417969,-38.524139404296875,28.66949462890625
1702137821896230700,16.055230712890626,9.23395824432373,-38.192623138427734,22.45325469970703
1702137821913220400,16.072220458984376,7.065789222717285,-34.63133239746094,14.888273239135742
1702137821930200000,16.089199951171874,5.684012413024902,-30.078956604003906,8.161737442016602
1702137821947201500,16.106201416015626,5.380483627319336,-25.471439361572266,2.8180878162384033
1702137821964195800,16.12319580078125,6.096282005310059,-23.8647518157959,1.213763952255249
1702137821981184300,16.140184326171877,7.249795913696289,-18.45152473449707,0.255639910697937
1702137821998175500,16.157175537109374,2.749795913696289,-12.466158866882324,4.8377790451049805
1702137822015155500,16.174155517578125,2.1026153564453125,-11.061774253845215,11.804144859313965
1702137822032158000,16.191157958984373,5.049419403076172,-10.727595329284668,15.453559875488281
1702137822049148400,16.2081484375,6.1016435623168945,-11.44882583618164,15.588024139404297
1702137822066140000,16.225139892578124,5.026357173919678,-10.326411247253418,12.001348495483398
1702137822083130400,16.24213037109375,4.528385639190674,-11.370721817016602,11.855891227722168
1702137822100123600,16.25912353515625,4.829880237579346,-14.390427589416504,20.42765998840332
1702137822117112600,16.276112548828124,5.018335819244385,-17.00311279296875,29.55685806274414
1702137822134104600,16.2931044921875,4.9809489250183105,-13.9873046875,28.911670684814453
1702137822151092200,16.31009228515625,2.849491834640503,-13.777276039123535,25.016754150390625
1702137822168089300,16.32708935546875,-0.8427811861038208,-17.317556381225586,21.715984344482422
1702137822185077200,16.3440771484375,-1.4494662284851074,-21.89932632446289,32.450042724609375
1702137822202068700,16.36106884765625,2.1442856788635254,-22.373329162597656,45.05390167236328
1702137822219056600,16.378056640625,6.812572479248047,-19.754470825195312,43.8347282409668
1702137822236053500,16.395053466796874,9.92361831665039,-19.854019165039062,33.75348663330078
1702137822253041700,16.412041748046875,8.640677452087402,-22.973339080810547,27.98853874206543
1702137822270033400,16.429033447265624,6.92740535736084,-27.334871292114258,28.223674774169922
1702137822287023900,16.44602392578125,10.841649055480957,-31.366958618164062,38.77135467529297
1702137822304015600,16.463015625,11.922401428222656,-31.94615364074707,45.20906066894531
1702137822321006000,16.480006103515624,10.612204551696777,-30.561716079711914,39.68171310424805
1702137822337984300,16.496984375,11.914557456970215,-31.289854049682617,33.2564582824707
1702137822354990800,16.513990966796875,17.892818450927734,-34.19179153442383,33.583831787109375
1702137822371976200,16.53097607421875,23.826988220214844,-34.07931900024414,41.020999908447266
1702137822388974000,16.54797412109375,19.187883377075195,-29.590778350830078,42.34181213378906
1702137822405962200,16.564962158203127,10.306382179260254,-25.172704696655273,38.61607360839844
1702137822422950100,16.5819501953125,5.781260013580322,-21.330339431762695,34.545040130615234
1702137822439946800,16.59894677734375,9.454610824584961,-18.772836685180664,33.30731201171875
1702137822456935000,16.615934814453126,12.121885299682617,-15.485858917236328,33.56513977050781
1702137822473926400,16.632926513671876,10.135915756225586,-13.653688430786133,35.67778015136719
1702137822490916900,16.649916748046873,9.280165672302246,-9.824767112731934,34.51131820678711
1702137822507908900,16.666908935546875,10.752922058105469,-2.820875644683838,26.805248260498047
1702137822524899300,16.6838994140625,11.825881004333496,0.5395209789276123,22.566059112548828
1702137822541891000,16.70089111328125,13.093994140625,3.246551513671875,23.112760543823242
1702137822558881500,16.717881591796875,11.929129600524902,4.9985175132751465,26.50351333618164
1702137822575873000,16.734873046875,9.424280166625977,8.008472442626953,26.972373962402344
1702137822592871200,16.75187109375,7.033318519592285,9.4049072265625,24.058311462402344
1702137822609841400,16.76884130859375,5.661372184753418,9.80290412902832,20.037445068359375
1702137822626849000,16.78584912109375,4.05329704284668,9.19961166381836,17.043142318725586
1702137822643828200,16.802828125,2.2933976650238037,7.909368515014648,15.429505348205566
1702137822660828200,16.819828125,-0.07228684425354004,6.2910475730896,13.57445240020752
1702137822677817900,16.83681787109375,-2.3956079483032227,3.943206787109375,11.005890846252441
1702137822694812200,16.853812255859374,-2.882465362548828,1.1487878561019897,7.651063919067383
1702137822711802000,16.870802001953123,-1.9135894775390625,-1.1223645210266113,5.122284889221191
1702137822728792600,16.88779248046875,-1.157707929611206,-3.387230634689331,4.623568534851074
1702137822745784300,16.904784423828126,0.1297600269317627,-5.459873199462891,4.254744529724121
1702137822762774800,16.92177490234375,0.8926007747650146,-6.744363784790039,2.978311538696289
1702137822779756500,16.938756591796874,0.7449357509613037,-7.645885467529297,0.8686599731445312
1702137822796756000,16.955755859375,0.49645400047302246,-8.282008171081543,-1.1550674438476562
1702137822813750000,16.97275,0.8793209195137024,-8.583343505859375,-2.018433094024658
1702137822830731000,16.98973095703125,1.6396340131759644,-8.674485206604004,-1.3369712829589844
1702137822847730700,17.006730712890626,2.1433804035186768,-8.71186351776123,0.048508644104003906
1702137822864721400,17.023721435546875,2.235647201538086,-8.254770278930664,0.39751529693603516
1702137822881713200,17.040713134765625,2.852665901184082,-7.802455425262451,-0.6242771148681641
1702137822898704000,17.057703857421874,3.5895028114318848,-7.416599273681641,-1.7193646430969238
1702137822915695000,17.074695068359375,5.10752010345459,-6.965248107910156,-2.0226516723632812
1702137822932685800,17.091685791015625,6.411457061767578,-6.493640899658203,-0.9632792472839355
1702137822949677600,17.108677490234374,7.296670913696289,-6.109027862548828,0.7689352035522461
1702137822966668300,17.125668212890623,7.329028129577637,-5.956060409545898,2.5456600189208984
1702137822983659800,17.14265966796875,7.572063446044922,-5.280020713806152,2.1568174362182617
1702137823000648000,17.15964794921875,6.8245134353637695,-4.736996650695801,0.8412961959838867
1702137823017644500,17.17664453125,5.908014297485352,-4.303224086761475,0.9609518051147461
1702137823034632700,17.1936328125,5.204528331756592,-4.04863166809082,2.5711865425109863
1702137823051624200,17.210624267578126,5.229546546936035,-3.223865509033203,4.253931045532227
1702137823068614700,17.22761474609375,5.203545093536377,-2.2839581966400146,4.929170608520508
1702137823085603800,17.244603759765624,4.570453643798828,-1.1738488674163818,3.933594226837158
1702137823102589200,17.261589111328124,3.729008197784424,-0.3051116466522217,2.7521371841430664
1702137823119588600,17.278588623046875,3.6810693740844727,0.4396491050720215,3.072488307952881
1702137823136579300,17.295579345703125,4.052962303161621,1.7335538864135742,4.243523597717285
1702137823153570800,17.31257080078125,3.706594944000244,3.2498350143432617,5.670538425445557
1702137823170561500,17.3295615234375,1.3756070137023926,4.404186248779297,7.1560540199279785
1702137823187554300,17.34655419921875,-0.32871389389038086,5.152222156524658,7.249886512756348
1702137823204542200,17.363542236328126,-0.5162081718444824,5.692346096038818,5.710882186889648
1702137823221533400,17.380533447265623,0.7820301055908203,6.201621055603027,5.214481830596924
1702137823238527500,17.397527587890625,0.5599570274353027,6.490658283233643,6.283679485321045
1702137823255506700,17.414506591796876,-0.9956865310668945,6.3785881996154785,6.344742298126221
1702137823272505600,17.431505615234375,-2.1294174194335938,5.489292144775391,4.495265960693359
1702137823289491200,17.4484912109375,-1.695155143737793,4.704290390014648,2.0690195560455322
1702137823306479600,17.465479736328124,-0.08551740646362305,3.2774109840393066,0.45102524757385254
1702137823323471600,17.4824716796875,2.567473888397217,1.3657517433166504,-0.5877712965011597
1702137823340475100,17.49947509765625,4.1934404373168945,-0.5560173988342285,-1.6282384395599365
1702137823357464000,17.516464111328126,5.042133331298828,-1.454782485961914,-3.7281861305236816
1702137823374452200,17.5334521484375,4.979912757873535,-2.2933638095855713,-4.687272071838379
1702137823391441700,17.550441650390624,4.6160993576049805,-3.329393148422241,-4.3243560791015625
1702137823408429300,17.56742919921875,4.9588236808776855,-4.502962112426758,-3.7503085136413574
1702137823425421300,17.58442138671875,5.942221641540527,-6.314510345458984,-3.1106438636779785
1702137823442409000,17.601408935546875,7.8055219650268555,-8.302249908447266,-3.0280730724334717
1702137823459401000,17.61840087890625,10.048681259155273,-9.37314510345459,-3.469644784927368
1702137823476390100,17.63539013671875,11.013792037963867,-9.41800594329834,-4.298849105834961
1702137823493387800,17.6523876953125,10.071971893310547,-9.417481422424316,-4.90285587310791
1702137823510378500,17.66937841796875,8.335430145263672,-9.927128791809082,-4.62481164932251
1702137823527378200,17.686378173828125,6.188119888305664,-10.638212203979492,-4.633098602294922
1702137823544354800,17.703354736328127,5.160191535949707,-12.279830932617188,-3.6806182861328125
1702137823561352200,17.720352294921874,5.748301029205322,-13.97838306427002,-1.956888198852539
1702137823578341600,17.737341552734375,6.440054416656494,-15.730244636535645,-0.20060789585113525
1702137823595332900,17.754332763671876,5.972222328186035,-16.487192153930664,1.4320076704025269
1702137823612329200,17.7713291015625,3.8159945011138916,-17.3289737701416,1.1997549533843994
1702137823629311200,17.788311279296874,0.7588920593261719,-19.394975662231445,1.4294555187225342
1702137823646301000,17.805301025390627,-1.2889745235443115,-22.416820526123047,4.64005184173584
1702137823663293000,17.82229296875,-0.7607505321502686,-22.858549118041992,8.987958908081055
1702137823680289000,17.8392890625,-0.8254361152648926,-21.958328247070312,13.686296463012695
1702137823697275400,17.856275390625,-4.226447582244873,-19.286415100097656,15.87625789642334
1702137823714272500,17.8732724609375,-8.623315811157227,-17.0814208984375,16.589195251464844
1702137823731264300,17.89026416015625,-11.789281845092773,-15.938070297241211,18.29034423828125
1702137823748255000,17.9072548828125,-16.14681625366211,-15.456945419311523,24.3115234375
1702137823765243000,17.924242919921873,-21.059282302856445,-14.713321685791016,30.121105194091797
1702137823782229500,17.9412294921875,-21.164907455444336,-13.964109420776367,30.50887680053711
1702137823799231200,17.958231201171873,-17.228214263916016,-14.720766067504883,30.185222625732422
1702137823816226300,17.975226318359375,-10.67950439453125,-15.354267120361328,30.09380340576172
1702137823833215000,17.992215087890624,-6.1711225509643555,-15.18178653717041,31.20235824584961
1702137823850203400,18.009203369140625,-5.404462814331055,-14.41960334777832,32.878028869628906
1702137823867199500,18.026199462890624,-4.952908515930176,-12.805231094360352,32.543216705322266
1702137823884187600,18.043187744140624,-2.4420228004455566,-12.51356315612793,34.05452346801758
1702137823901179100,18.06017919921875,0.9239428043365479,-12.071199417114258,35.183528900146484
1702137823918169900,18.077169921875,4.338071346282959,-11.70759105682373,34.90594482421875
1702137823935161600,18.09416162109375,6.799118995666504,-12.618799209594727,31.786041259765625
1702137823952152300,18.11115234375,9.791805267333984,-14.065654754638672,28.165836334228516
1702137823969143000,18.12814306640625,12.358238220214844,-15.600655555725098,25.60312271118164
1702137823986133800,18.1451337890625,13.136489868164062,-15.526759147644043,22.553213119506836
1702137824003126000,18.1621259765625,11.223388671875,-15.541648864746094,21.503061294555664
1702137824020118000,18.179117919921875,8.574694633483887,-15.364875793457031,20.478334426879883
1702137824037101300,18.196101318359375,7.725428581237793,-15.09169864654541,19.363069534301758
1702137824054098700,18.2130986328125,8.476178169250488,-15.279207229614258,20.58888816833496
1702137824071090400,18.23009033203125,6.56785774230957,-16.068504333496094,21.373586654663086
1702137824088078300,18.247078369140624,3.669952392578125,-16.006961822509766,21.37019157409668
1702137824105064700,18.264064697265624,0.8115220069885254,-15.35888957977295,21.12053680419922
1702137824122061800,18.281061767578127,2.200955629348755,-13.257040023803711,19.37389373779297
1702137824139058000,18.298057861328125,5.968867301940918,-12.259775161743164,19.215717315673828
1702137824156032000,18.315031982421875,6.443774223327637,-11.064411163330078,18.13819694519043
1702137824173037000,18.332037109375,4.064229965209961,-9.331052780151367,13.990589141845703
1702137824190027800,18.34902783203125,2.620913505554199,-6.9144697189331055,8.919332504272461
1702137824207019500,18.36601953125,3.6132469177246094,-4.987930774688721,6.76970100402832
1702137824224009700,18.383009765625,5.3014044761657715,-4.761889457702637,8.113357543945312
1702137824241001500,18.40000146484375,6.382142066955566,-5.7198638916015625,11.462469100952148
1702137824257989600,18.41698974609375,5.0680718421936035,-7.540765762329102,14.644819259643555
1702137824274986200,18.433986328125,2.7169189453125,-8.140498161315918,14.26846694946289
1702137824291974100,18.45097412109375,-0.13297080993652344,-7.325328350067139,11.916099548339844
1702137824308966000,18.4679658203125,-3.4960689544677734,-4.985088348388672,12.159452438354492
1702137824325956400,18.484956298828124,-6.910433769226074,-3.1141111850738525,15.788750648498535
1702137824342944500,18.501944580078124,-8.244536399841309,-2.8653652667999268,20.113126754760742
1702137824359934200,18.518934326171873,-5.153508186340332,-3.181306838989258,19.400300979614258
1702137824376934700,18.5359345703125,-0.9764503836631775,-2.9806113243103027,16.073238372802734
1702137824393918200,18.552918212890624,0.12910443544387817,-1.0488395690917969,12.815093994140625
1702137824410915300,18.569915283203127,-4.38677978515625,1.0497956275939941,10.965254783630371
1702137824427903000,18.586903076171875,-9.4661283493042,1.1570324897766113,11.708154678344727
1702137824444894700,18.603894775390625,-9.086685180664062,-0.5511045455932617,12.247243881225586
1702137824461885200,18.62088525390625,-4.129663467407227,-3.1605310440063477,11.080706596374512
1702137824478879500,18.63787939453125,0.355863094329834,-5.211094856262207,9.55028247833252
1702137824495867400,18.654867431640625,2.0855979919433594,-7.432047367095947,8.191147804260254
1702137824512859000,18.67185888671875,1.9600539207458496,-9.733424186706543,6.112588405609131
1702137824529849300,18.688849365234375,-1.216322422027588,-11.52873706817627,9.89862060546875
1702137824546841300,18.70584130859375,-2.961526393890381,-13.821683883666992,16.55704689025879
1702137824563832000,18.72283203125,-0.7161116600036621,-17.00457191467285,22.492849349975586
1702137824580824800,18.739824951171876,2.503474235534668,-18.95358657836914,21.12021255493164
1702137824597811700,18.756811767578125,8.037521362304688,-17.197952270507812,13.018536567687988
1702137824614808000,18.77380810546875,4.560978889465332,-16.694677352905273,12.323113441467285
1702137824631796500,18.79079638671875,-2.6577160358428955,-17.54080581665039,23.32075309753418
1702137824648788200,18.807788330078125,-3.7546348571777344,-16.114967346191406,34.33198165893555
1702137824665778700,18.82477880859375,1.1032909154891968,-11.023438453674316,38.49127960205078
1702137824682770200,18.841770263671876,2.866610527038574,-6.059939861297607,39.04132843017578
1702137824699755500,18.858755615234376,-2.572707176208496,-4.79086971282959,38.62816619873047
1702137824716755000,18.8757548828125,-8.604469299316406,-4.489689350128174,37.18437194824219
1702137824733732400,18.892732421875,-12.317464828491211,-5.409428596496582,42.27037048339844
1702137824750734600,18.909734619140625,-12.71349811553955,-8.416035652160645,51.79705047607422
1702137824767725000,18.92672509765625,-7.926341533660889,-10.434661865234375,58.703067779541016
1702137824784730600,18.943730712890623,-2.171048641204834,-11.72521686553955,57.59777069091797
1702137824801704700,18.96070458984375,-0.23142290115356445,-14.025594711303711,53.28968811035156
1702137824818703400,18.977703369140624,-1.781252384185791,-17.83402442932129,52.703163146972656
1702137824835689700,18.994689697265624,1.4537336826324463,-21.483715057373047,53.31538009643555
1702137824852681200,19.01168115234375,6.106515407562256,-23.708276748657227,51.52765655517578
1702137824869671400,19.02867138671875,6.680502414703369,-27.733394622802734,46.888484954833984
1702137824886663400,19.045663330078124,5.524378776550293,-33.35120391845703,39.29548263549805
1702137824903654000,19.06265380859375,4.4774370193481445,-38.79694366455078,30.78385353088379
1702137824920637400,19.079637451171877,5.485040187835693,-41.035560607910156,22.71942901611328
1702137824937635800,19.0966357421875,5.94966983795166,-38.83859634399414,17.51994514465332
1702137824954627600,19.113627685546874,6.044189453125,-35.158775329589844,13.888798713684082
1702137824971618000,19.1306181640625,5.462784767150879,-27.84898567199707,8.995399475097656
1702137824988609500,19.147609619140624,2.672450065612793,-22.70905876159668,7.168244361877441
1702137825005600800,19.164600830078125,1.267242431640625,-19.140230178833008,6.677317142486572
1702137825022592000,19.181592041015627,-1.4451179504394531,-15.983295440673828,8.489255905151367
1702137825039570400,19.1985703125,-3.034709930419922,-14.3305082321167,10.414299964904785
1702137825056563700,19.215563720703123,0.09237480163574219,-13.18205738067627,9.161517143249512
1702137825073567200,19.232567138671875,3.0837879180908203,-11.855594635009766,7.289175033569336
1702137825090553900,19.249553955078124,1.912308692932129,-11.887475967407227,7.939539909362793
1702137825107549400,19.266549560546874,-0.6587815284729004,-11.56673526763916,9.401416778564453
1702137825124538600,19.28353857421875,-1.985973834991455,-11.873363494873047,13.873773574829102
1702137825141531600,19.30053173828125,0.1743144989013672,-12.501432418823242,19.658912658691406
1702137825158518300,19.317518310546873,4.68958044052124,-13.012812614440918,22.675113677978516
1702137825175518500,19.3345185546875,6.122061729431152,-13.135777473449707,23.870407104492188
1702137825192483600,19.351483642578124,2.3228087425231934,-13.701690673828125,26.80781364440918
1702137825209496600,19.36849658203125,-1.721342921257019,-14.95959758758545,29.154417037963867
1702137825226485500,19.385485595703123,-3.186920642852783,-18.27840805053711,36.22900390625
1702137825243465500,19.402465576171874,-2.273106575012207,-20.114566802978516,43.94475173950195
1702137825260449300,19.41944921875,2.9120543003082275,-18.327857971191406,44.15254211425781
1702137825277460700,19.436460693359376,3.9787302017211914,-19.58324432373047,40.642723083496094
1702137825294439000,19.45343896484375,0.3232457637786865,-23.593481063842773,37.32954025268555
1702137825311440100,19.470440185546874,-4.407865047454834,-24.390056610107422,35.112030029296875
1702137825328431600,19.487431640625,-6.8140339851379395,-25.856586456298828,43.40407943725586
1702137825345422600,19.504422607421876,-1.3727316856384277,-25.827486038208008,47.998294830322266
1702137825362414000,19.5214140625,10.674065589904785,-24.918315887451172,43.921932220458984
1702137825379404500,19.538404541015623,15.519254684448242,-24.520036697387695,40.25711441040039
1702137825396390700,19.555390625,9.799062728881836,-23.17525863647461,38.811424255371094
1702137825413389600,19.5723896484375,1.4079642295837402,-21.824474334716797,35.75056457519531
1702137825430378200,19.589378173828123,-0.9339321851730347,-19.73471450805664,33.91859436035156
1702137825447368700,19.60636865234375,2.0913329124450684,-20.216249465942383,34.544097900390625
1702137825464359400,19.623359375,9.812103271484375,-20.257102966308594,41.34977340698242
1702137825481352200,19.640352294921875,15.331395149230957,-14.779202461242676,39.86457824707031
1702137825498343000,19.657343017578125,7.777394771575928,-10.232586860656738,31.19873046875
1702137825515333400,19.67433349609375,-0.5097815990447998,-6.272162914276123,22.655038833618164
1702137825532325000,19.6913251953125,1.2307960987091064,-5.511641502380371,19.787979125976562
1702137825549315600,19.708315673828125,7.582484245300293,-6.7191996574401855,28.125
1702137825566307000,19.72530712890625,8.69619083404541,-1.6427496671676636,32.697837829589844
1702137825583289900,19.742289794921874,4.069706439971924,2.780704975128174,26.52898406982422
1702137825600289300,19.759289306640625,1.515437126159668,5.680392265319824,18.700191497802734
1702137825617280000,19.776280029296874,3.1834495067596436,5.779061794281006,17.568214416503906
1702137825634271500,19.793271484375,3.92494797706604,7.588377952575684,20.125988006591797
1702137825651251500,19.81025146484375,0.07271814346313477,9.623376846313477,22.762836456298828
1702137825668251100,19.827251220703126,-1.8285717964172363,9.91455078125,21.208498001098633
1702137825685246700,19.844246826171876,-0.1719367504119873,9.055570602416992,17.76087188720703
1702137825702226000,19.861225830078126,2.115643262863159,7.236116409301758,15.189680099487305
1702137825719224000,19.87822412109375,2.2103657722473145,5.378239154815674,12.188852310180664
1702137825736220700,19.895220703125,1.6044237613677979,3.5715670585632324,9.398160934448242
1702137825753208800,19.912208740234377,0.8142437934875488,1.1089506149291992,8.333104133605957
1702137825770200600,19.92920068359375,1.205385446548462,-0.997549295425415,8.183670997619629
1702137825787191000,19.94619091796875,-0.5382243394851685,-3.2377870082855225,8.691447257995605
1702137825804182500,19.9631826171875,-1.4116575717926025,-5.228076457977295,6.743152618408203
1702137825821172700,19.9801728515625,-2.0631494522094727,-6.507802963256836,3.1569528579711914
1702137825838164700,19.997164794921876,-2.8705904483795166,-7.892995834350586,0.2003459930419922
1702137825855144700,20.014144775390626,-1.5120056867599487,-8.799620628356934,-1.4486045837402344
1702137825872147000,20.03114697265625,0.9791003465652466,-9.23515796661377,-2.1571998596191406
1702137825889138200,20.04813818359375,2.436598777770996,-9.810052871704102,-0.6774635314941406
1702137825906128600,20.065128662109377,2.2667973041534424,-10.156129837036133,0.4216947555541992
1702137825923119900,20.082119873046874,2.174898862838745,-9.974252700805664,-0.18416404724121094
1702137825940110600,20.099110595703124,3.9308719635009766,-9.253090858459473,-1.84918212890625
1702137825957102600,20.1161025390625,5.52239990234375,-8.431905746459961,-3.1777639389038086
1702137825974093600,20.133093505859375,6.783782005310059,-7.939006805419922,-2.783113956451416
1702137825991084300,20.150084228515624,7.332036018371582,-7.640941619873047,0.050871849060058594
1702137826008075800,20.16707568359375,6.6195149421691895,-6.962071418762207,2.539462089538574
1702137826025064000,20.18406396484375,6.91023063659668,-6.180482864379883,2.2313694953918457
1702137826042060300,20.201060302734376,8.19638442993164,-5.665135860443115,0.6628565788269043
1702137826059046400,20.21804638671875,10.58548355102539,-5.352425575256348,-0.0734100341796875
1702137826076042000,20.2350419921875,10.914581298828125,-4.5758233070373535,0.8969125747680664
1702137826093020400,20.2520205078125,8.690155029296875,-4.138302326202393,3.5668587684631348
1702137826110022100,20.269022216796873,6.079718589782715,-3.138502597808838,4.724227428436279
1702137826127012900,20.286012939453126,4.64833927154541,-2.0864410400390625,3.8331007957458496
1702137826144004600,20.303004638671876,4.837576866149902,-1.414180874824524,2.4988365173339844
1702137826160995300,20.319995361328125,6.175608158111572,-1.2223424911499023,2.321359634399414
1702137826177984000,20.33698388671875,6.665951728820801,-0.5950484275817871,3.5799379348754883
1702137826194979800,20.353979736328125,4.556364059448242,0.2510402202606201,4.87916898727417
1702137826211968800,20.37096875,1.26861572265625,2.348341703414917,4.805753231048584
1702137826228959500,20.38795947265625,-1.2110943794250488,3.8767330646514893,5.068751811981201
1702137826245958700,20.404958740234374,-1.0574641227722168,4.568320274353027,5.429070472717285
1702137826262940400,20.4219404296875,0.4351787567138672,4.737072944641113,6.1552815437316895
1702137826279934700,20.438934814453123,1.2925100326538086,5.6162519454956055,5.283276081085205
1702137826296924000,20.455923828125,0.4533991813659668,7.370020866394043,2.5115966796875
1702137826313915400,20.472915283203125,-1.807504653930664,8.565008163452148,0.7686605453491211
1702137826330907000,20.489906982421875,-3.3328442573547363,8.896480560302734,1.5811829566955566
1702137826347897600,20.506897705078124,-3.3152084350585938,8.544246673583984,2.8728179931640625
1702137826364888300,20.523888427734374,-2.6566715240478516,7.756481647491455,2.810598850250244
1702137826381879800,20.5408798828125,-1.8436312675476074,6.738821029663086,0.6025390625
1702137826398870500,20.55787060546875,-1.172436237335205,5.882601261138916,-2.1183674335479736
1702137826415862000,20.574862060546874,-1.37968111038208,5.108914375305176,-3.854229211807251
1702137826432852700,20.591852783203127,-1.653306007385254,3.1362709999084473,-4.121006011962891
1702137826449844200,20.60884423828125,-0.12086629867553711,0.9126009941101074,-4.4388041496276855
1702137826466835000,20.6258349609375,1.803896427154541,-1.0129990577697754,-4.753121376037598
1702137826483827000,20.642826904296875,3.406066417694092,-2.6695637702941895,-4.7210493087768555
1702137826500819000,20.65981884765625,4.4843339920043945,-3.930863380432129,-4.625661373138428
1702137826517806600,20.676806640625,5.271887302398682,-5.339594841003418,-4.521491527557373
1702137826534799400,20.69379931640625,6.3186259269714355,-6.769861698150635,-4.483635902404785
1702137826551790800,20.710790771484376,7.4046783447265625,-7.673309326171875,-4.753960132598877
1702137826568781300,20.72778125,7.590902328491211,-8.302054405212402,-5.133701801300049
1702137826585773300,20.744773193359375,7.229666709899902,-9.009334564208984,-5.464001655578613
1702137826602763800,20.761763671875,6.463025093078613,-9.829927444458008,-5.879578590393066
1702137826619742500,20.778742431640627,5.873833656311035,-10.999165534973145,-6.3256306648254395
1702137826636735500,20.795735595703125,6.564134120941162,-11.750444412231445,-6.896247863769531
1702137826653737500,20.812737548828125,7.507108211517334,-12.625338554382324,-6.907639026641846
1702137826670731300,20.829731201171874,8.695696830749512,-13.973234176635742,-5.5066447257995605
1702137826687716400,20.84671630859375,8.18043041229248,-15.898609161376953,-2.762162446975708
1702137826704713500,20.86371337890625,6.237789154052734,-17.56667709350586,0.10740399360656738
1702137826721702000,20.880701904296874,3.302400588989258,-18.754682540893555,2.263585329055786
1702137826738692600,20.897692626953123,0.737464427947998,-20.444143295288086,4.650317192077637
1702137826755684000,20.91468408203125,-0.04997110366821289,-22.76868438720703,8.048192024230957
1702137826772682200,20.93168212890625,-0.9217264652252197,-24.18238639831543,11.629280090332031
1702137826789664000,20.9486640625,-1.7083399295806885,-23.584457397460938,14.092367172241211
1702137826815142400,20.974142333984375,-6.618109226226807,-21.719547271728516,19.5965576171875
1702137826832146400,20.991146484375,-9.938541412353516,-20.392000198364258,24.41569709777832
1702137826849124900,21.008124755859374,-13.013106346130371,-18.965328216552734,27.02994155883789
1702137826866131200,21.025131103515626,-14.961606979370117,-19.00982666015625,28.71383285522461
1702137826883105500,21.04210546875,-12.908756256103516,-19.566204071044922,32.25508117675781
1702137826900100900,21.059100830078126,-8.641876220703125,-18.82562255859375,36.37348937988281
1702137826917089000,21.076089111328123,-5.263754844665527,-16.914813995361328,38.199317932128906
1702137826934082600,21.09308251953125,-3.121680736541748,-14.552399635314941,39.034034729003906
1702137826951073800,21.11007373046875,-1.9374113082885742,-12.094489097595215,39.52958297729492
1702137826968062500,21.1270625,-0.8924064636230469,-10.570680618286133,38.8538932800293
1702137826985055700,21.1440556640625,1.3880481719970703,-10.539471626281738,37.5331916809082
1702137827002044700,21.161044677734374,5.249761581420898,-12.418926239013672,36.950340270996094
1702137827019034000,21.1780341796875,9.016801834106445,-15.148933410644531,36.025672912597656
1702137827036030000,21.195030029296873,12.822187423706055,-18.596895217895508,33.565608978271484
1702137827053020200,21.212020263671874,18.063077926635742,-21.360876083374023,28.751953125
1702137827070007800,21.2290078125,18.1722469329834,-21.642141342163086,24.19610595703125
1702137827087002000,21.246002197265625,14.493454933166504,-20.897541046142578,20.802656173706055
1702137827103991800,21.26299169921875,11.596841812133789,-20.537593841552734,20.719539642333984
1702137827120982500,21.279982421875,12.210232734680176,-20.67837142944336,20.471529006958008
1702137827137974800,21.296974853515625,13.796439170837402,-18.839740753173828,19.346439361572266
1702137827154965200,21.31396533203125,10.835697174072266,-17.43248176574707,19.13286590576172
1702137827171957200,21.330957275390624,4.623074054718018,-15.166850090026855,17.71254539489746
1702137827188948500,21.347948486328125,0.6845542192459106,-12.60562801361084,14.353706359863281
1702137827205937400,21.3649375,1.668710708618164,-13.55618953704834,13.090847969055176
1702137827222932500,21.381932373046876,4.748888969421387,-14.037683486938477,13.50264835357666
1702137827239930400,21.398930419921875,5.869097709655762,-15.112361907958984,15.485265731811523
1702137827256920600,21.415920654296876,4.702824115753174,-14.683111190795898,15.11068344116211
1702137827273912300,21.432912353515626,1.5822863578796387,-13.575494766235352,14.419160842895508
1702137827290903000,21.449903076171875,-1.2849018573760986,-12.766313552856445,16.31261444091797
1702137827307894800,21.466894775390625,-4.4341254234313965,-11.392663955688477,18.118122100830078
1702137827324885200,21.48388525390625,-9.125408172607422,-9.662574768066406,18.583234786987305
1702137827341866000,21.500865966796876,-13.489105224609375,-8.160701751708984,19.293630599975586
1702137827358862600,21.517862548828123,-14.039290428161621,-7.715278625488281,20.050458908081055
1702137827375856400,21.5348564453125,-10.019298553466797,-7.35427188873291,19.918128967285156
1702137827392849400,21.551849365234375,-5.304924488067627,-6.596864700317383,19.41015625
1702137827409841000,21.5688408203125,-1.8483433723449707,-4.71147346496582,19.567354202270508
1702137827426831400,21.585831298828126,-2.3252103328704834,-3.154369354248047,20.07022476196289
1702137827443824000,21.60282421875,-4.895500183105469,-2.5379302501678467,20.077146530151367
1702137827460814000,21.61981396484375,-6.226531982421875,-3.1922812461853027,18.23003387451172
1702137827477803000,21.636802978515625,-4.071397304534912,-4.067185401916504,13.725465774536133
1702137827494788900,21.653788818359374,0.6410574913024902,-3.1048777103424072,11.386929512023926
1702137827511787500,21.67078759765625,1.6519551277160645,-1.5023273229599,13.100929260253906
1702137827528778500,21.687778564453126,-6.690140247344971,-1.3875480890274048,18.578767776489258
1702137827545763800,21.704763916015626,-17.186918258666992,-3.5480902194976807,23.440959930419922
1702137827562759200,21.72175927734375,-19.797191619873047,-6.074105262756348,20.74825668334961
1702137827579753700,21.738753662109374,-16.34915542602539,-10.971087455749512,13.802955627441406
1702137827596735700,21.75573583984375,-8.647184371948242,-15.250606536865234,8.86002254486084
1702137827613731800,21.77273193359375,-0.4528493881225586,-17.74637222290039,9.16771125793457
1702137827630727700,21.789727783203126,3.5513930320739746,-15.661382675170898,11.277567863464355
