time,seconds_elapsed,z,y,x
1702137419264246500,0.11024658203125,0.18416213989257812,0.5831999778747559,0.021134287118911743
1702137419281238000,0.127238037109375,0.03876686096191406,0.7550101280212402,0.14081302285194397
1702137419298229800,0.144229736328125,0.08230352401733398,1.0486035346984863,0.1721702665090561
1702137419315222000,0.161221923828125,0.6049423217773438,1.2857952117919922,0.12462073564529419
1702137419332215600,0.178215576171875,1.2232179641723633,1.1745986938476562,0.06982600688934326
1702137419349203000,0.195202880859375,1.4028429985046387,1.0250473022460938,-0.05189736932516098
1702137419366196700,0.21219677734375,0.875422477722168,1.11405611038208,0.23537728190422058
1702137419383183400,0.229183349609375,-0.05627155303955078,1.0064544677734375,0.5943563580513
1702137419400176000,0.246176025390625,-0.8270597457885742,0.7946782112121582,0.6789804697036743
1702137419417172000,0.263171875,-1.267540454864502,0.6224260330200195,0.2998345196247101
1702137419434160400,0.280160400390625,-1.4501361846923828,0.38904428482055664,0.08914467692375183
1702137419451166200,0.297166259765625,-1.4490070343017578,0.12941837310791016,-0.0018760962411761284
1702137419468143600,0.3141435546875,-1.8411779403686523,-0.4517064094543457,-0.054701417684555054
1702137419485136000,0.331135986328125,-1.9884881973266602,-1.1263833045959473,0.5954024791717529
1702137419502124500,0.34812451171875,-2.428110122680664,-0.9745354652404785,0.41672268509864807
1702137419519119000,0.365119140625,-3.799713134765625,-1.288280963897705,0.4492591619491577
1702137419536109000,0.382109130859375,-4.810610294342041,-1.689690113067627,0.3689146041870117
1702137419553091800,0.399091796875,-5.4741082191467285,-2.104404926300049,0.3248031735420227
1702137419570092300,0.41609228515625,-5.867428779602051,-3.906834363937378,1.301527738571167
1702137419587081200,0.433081298828125,-5.987376689910889,-3.547323703765869,-0.0963764637708664
1702137419604075800,0.45007568359375,-5.998642921447754,-4.109296798706055,-1.3398232460021973
1702137419621056000,0.467055908203125,-5.837637901306152,-5.247156143188477,-1.5439205169677734
1702137419638058000,0.48405810546875,-5.361354827880859,-5.847738742828369,-1.8651007413864136
1702137419655050500,0.501050537109375,-5.6541900634765625,-6.1666259765625,-1.2940263748168945
1702137419672038100,0.5180380859375,-7.351183891296387,-7.051540374755859,0.4145512580871582
1702137419689031400,0.535031494140625,-8.007031440734863,-7.366758823394775,0.40967297554016113
1702137419706015000,0.552014892578125,-8.497076034545898,-8.116815567016602,-0.27333390712738037
1702137419723012000,0.56901220703125,-8.721073150634766,-8.928047180175781,-0.49453508853912354
1702137419740006400,0.58600634765625,-6.223492622375488,-9.507244110107422,-0.3798842430114746
1702137419756999400,0.60299951171875,-2.4021553993225098,-8.834808349609375,2.56779408454895
1702137419773994500,0.619994384765625,-0.45417070388793945,-8.579275131225586,6.821499824523926
1702137419790981000,0.636981201171875,-0.4160041809082031,-8.329996109008789,9.110490798950195
1702137419807975000,0.653974853515625,-3.86501407623291,-7.167654037475586,10.083996772766113
1702137419824961500,0.67096142578125,-6.655228614807129,-7.335484027862549,11.510684967041016
1702137419841952800,0.687952880859375,-3.892482042312622,-7.201288223266602,16.03411102294922
1702137419858935300,0.704935302734375,0.9189410209655762,-6.052145957946777,19.081003189086914
1702137419875939600,0.721939697265625,2.8610281944274902,-4.084780693054199,19.059467315673828
1702137419892926200,0.73892626953125,1.104285717010498,-3.340758800506592,19.474611282348633
1702137419909920000,0.755919921875,-1.548780918121338,-3.9706225395202637,22.692466735839844
1702137419926923000,0.772923095703125,-2.04711651802063,-4.312041282653809,26.84820556640625
1702137419943896300,0.789896240234375,-0.673222541809082,-4.047076225280762,29.286033630371094
1702137419960894700,0.806894775390625,2.495608329772949,-3.703969955444336,30.638402938842773
1702137419977886000,0.823885986328125,4.40969181060791,-3.0568695068359375,29.93729019165039
1702137419994880300,0.84088037109375,5.621128559112549,-2.80965518951416,28.200971603393555
1702137420011867000,0.857866943359375,5.103719711303711,-2.9329376220703125,28.313678741455078
1702137420028858600,0.874858642578125,5.9086174964904785,-3.8782436847686768,28.83402442932129
1702137420045855500,0.89185546875,8.634664535522461,-5.008896350860596,27.59500503540039
1702137420062840600,0.908840576171875,12.059980392456055,-6.969901084899902,24.467403411865234
1702137420079835000,0.9258349609375,14.838468551635742,-8.627166748046875,21.415151596069336
1702137420096817700,0.942817626953125,14.186532974243164,-9.348077774047852,20.091381072998047
1702137420113815800,0.95981591796875,10.989178657531738,-11.09138298034668,20.52667999267578
1702137420130798800,0.976798828125,9.951055526733398,-13.193744659423828,19.89812660217285
1702137420147800600,0.993800537109375,12.11950969696045,-15.380241394042969,18.658506393432617
1702137420164792800,1.010792724609375,16.67332649230957,-16.906646728515625,18.928298950195312
1702137420181782800,1.02778271484375,18.66483497619629,-17.862045288085938,20.9938907623291
1702137420198769000,1.044768798828125,16.4488468170166,-17.891984939575195,21.722270965576172
1702137420215765200,1.06176513671875,13.529914855957031,-17.32574462890625,20.76073455810547
1702137420232757200,1.07875732421875,12.94456958770752,-15.969144821166992,18.41130828857422
1702137420249741300,1.0957412109375,15.103766441345215,-14.079048156738281,14.368491172790527
1702137420266741800,1.11274169921875,16.259004592895508,-12.157182693481445,10.87726879119873
1702137420283729400,1.1297294921875,15.12115478515625,-9.09653377532959,8.216278076171875
1702137420300723500,1.146723388671875,10.82767391204834,-8.656370162963867,8.293530464172363
1702137420317715200,1.163715087890625,8.318203926086426,-8.282742500305176,8.942453384399414
1702137420334707000,1.18070703125,9.509302139282227,-9.494075775146484,9.092220306396484
1702137420351696100,1.197696044921875,12.226676940917969,-9.71096420288086,9.361160278320312
1702137420368688400,1.2146884765625,11.385543823242188,-8.324848175048828,10.47298526763916
1702137420385682400,1.231682373046875,5.8141021728515625,-7.051707744598389,13.073471069335938
1702137420402668800,1.248668701171875,0.3612954616546631,-6.892921447753906,18.020462036132812
1702137420419662800,1.265662841796875,-2.1799111366271973,-8.799722671508789,23.80366325378418
1702137420436654000,1.282654052734375,0.6686922311782837,-11.919918060302734,25.788328170776367
1702137420453639200,1.29963916015625,5.601154327392578,-14.076658248901367,21.94245147705078
1702137420470638600,1.316638671875,9.706028938293457,-11.94510269165039,16.84281349182129
1702137420487628500,1.333628662109375,8.990385055541992,-9.547133445739746,15.601200103759766
1702137420504621800,1.350621826171875,2.723254919052124,-7.769765853881836,16.288280487060547
1702137420521610500,1.367610595703125,-3.6070733070373535,-7.1317362785339355,15.504843711853027
1702137420538600200,1.38460009765625,-4.790635108947754,-8.243256568908691,13.262791633605957
1702137420555593700,1.40159375,0.7848358154296875,-9.759885787963867,9.971284866333008
1702137420572584200,1.418584228515625,5.774569511413574,-9.880956649780273,10.38809871673584
1702137420589581000,1.4355810546875,6.870516777038574,-10.185090065002441,13.023246765136719
1702137420606570800,1.45257080078125,6.213071346282959,-10.076370239257812,15.58369255065918
1702137420623558100,1.46955810546875,3.035611152648926,-8.887307167053223,16.72947883605957
1702137420640552000,1.486552001953125,-0.44678688049316406,-7.814511775970459,17.410484313964844
1702137420657538300,1.503538330078125,-3.241631507873535,-9.966398239135742,18.84622573852539
1702137420674532600,1.52053271484375,0.03342294692993164,-15.120182037353516,17.001218795776367
1702137420691516700,1.5375166015625,9.572071075439453,-16.51607894897461,13.032236099243164
1702137420708529700,1.55452978515625,13.288702011108398,-14.019774436950684,12.76878547668457
1702137420725508400,1.57150830078125,8.100693702697754,-12.570342063903809,19.40096664428711
1702137420742500000,1.5885,-1.7025593519210815,-12.618281364440918,25.653366088867188
1702137420759500800,1.605500732421875,-4.2451887130737305,-12.63143539428711,27.69863510131836
1702137420776484000,1.622484130859375,2.787243366241455,-12.910818099975586,30.50676155090332
1702137420793466600,1.639466552734375,6.4608354568481445,-11.3046293258667,34.38129806518555
1702137420810466600,1.656466552734375,2.1911239624023438,-9.085042953491211,34.0738525390625
1702137420827457500,1.67345751953125,-2.6775689125061035,-7.971965789794922,35.421974182128906
1702137420844446200,1.6904462890625,-3.0943515300750732,-8.124765396118164,40.63454055786133
1702137420861441500,1.707441650390625,-1.7362697124481201,-9.903006553649902,46.7452278137207
1702137420878431500,1.724431396484375,1.605268955230713,-13.297112464904785,50.11221694946289
1702137420895421400,1.74142138671875,7.070390224456787,-17.388031005859375,52.88557815551758
1702137420912415200,1.758415283203125,11.85074520111084,-19.576129913330078,55.11346435546875
1702137420929404700,1.77540478515625,12.21494197845459,-18.909692764282227,57.12788391113281
1702137420946400500,1.792400390625,10.082707405090332,-20.420251846313477,54.83253479003906
1702137420963386400,1.809386474609375,12.882009506225586,-24.169567108154297,49.37250518798828
1702137420980380000,1.8263798828125,20.423479080200195,-30.070392608642578,44.77998352050781
1702137420997373000,1.843373046875,27.04677963256836,-32.58048629760742,40.0418701171875
1702137421014360000,1.860360107421875,25.84429359436035,-34.2143669128418,34.50813293457031
1702137421031361000,1.877361083984375,20.24611473083496,-33.57449722290039,27.475500106811523
1702137421048345900,1.894345947265625,13.026959419250488,-33.77778625488281,24.529712677001953
1702137421065338600,1.911338623046875,7.885732173919678,-33.97827911376953,20.379886627197266
1702137421082327300,1.928327392578125,7.253393173217773,-32.622222900390625,12.377873420715332
1702137421099319600,1.945319580078125,9.949121475219727,-27.38902473449707,5.367810249328613
1702137421116309800,1.962309814453125,11.56410026550293,-22.695579528808594,5.6463141441345215
1702137421133303800,1.9793037109375,10.586847305297852,-20.365686416625977,9.03023910522461
1702137421150294000,1.9962939453125,6.9595136642456055,-17.689634323120117,13.143672943115234
1702137421167285000,2.013284912109375,2.3646812438964844,-16.412294387817383,13.870616912841797
1702137421184277000,2.030277099609375,2.534982204437256,-15.63607406616211,12.521387100219727
1702137421201270000,2.04727001953125,4.795804023742676,-15.723272323608398,12.517688751220703
1702137421218259700,2.064259765625,6.647132873535156,-15.610383033752441,13.643762588500977
1702137421235253200,2.081253173828125,7.347315788269043,-16.102365493774414,15.995257377624512
1702137421252240000,2.098239990234375,7.297708988189697,-17.392566680908203,19.548095703125
1702137421269231400,2.1152314453125,7.404987335205078,-18.467287063598633,21.446002960205078
1702137421286230500,2.13223046875,6.834927082061768,-19.22685432434082,22.50206756591797
1702137421303215000,2.149215087890625,5.3211669921875,-21.03447914123535,23.017663955688477
1702137421320205300,2.166205322265625,5.000191688537598,-24.270885467529297,23.524810791015625
1702137421337204700,2.183204833984375,5.873113632202148,-28.517202377319336,24.305917739868164
1702137421354189000,2.20018896484375,9.195791244506836,-28.851009368896484,25.0035400390625
1702137421371172900,2.2171728515625,8.337961196899414,-27.928802490234375,28.362457275390625
1702137421388174300,2.23417431640625,4.11430025100708,-29.867496490478516,28.29770278930664
1702137421405167600,2.251167724609375,5.8589677810668945,-29.517120361328125,23.931476593017578
1702137421422154500,2.268154541015625,10.308544158935547,-29.022663116455078,25.044113159179688
1702137421439148500,2.2851484375,13.558467864990234,-26.946327209472656,28.6531982421875
1702137421456141000,2.30214111328125,11.01590347290039,-28.50206756591797,36.557861328125
1702137421473129500,2.31912939453125,6.1159515380859375,-25.305343627929688,39.76961135864258
1702137421490122200,2.336122314453125,1.935003638267517,-19.530433654785156,35.69942855834961
1702137421507111400,2.353111328125,0.23962533473968506,-16.125070571899414,33.33905029296875
1702137421524103200,2.370103271484375,0.3305234909057617,-15.28927230834961,33.853004455566406
1702137421541099000,2.38709912109375,0.7012775540351868,-13.366586685180664,33.631195068359375
1702137421558087400,2.40408740234375,0.5794335603713989,-8.217638969421387,35.7313117980957
1702137421575081700,2.421081787109375,3.54742169380188,-4.650861740112305,33.85825729370117
1702137421592068600,2.438068603515625,3.641942024230957,-2.250690460205078,29.99985122680664
1702137421609061400,2.455061279296875,3.3355960845947266,1.742506980895996,25.81814193725586
1702137421626057200,2.47205712890625,1.8087539672851562,2.6254308223724365,27.50885009765625
1702137421643043600,2.489043701171875,-2.238779067993164,3.567286491394043,24.990779876708984
1702137421660036600,2.50603662109375,-3.478631019592285,4.066195964813232,19.95028305053711
1702137421677030700,2.52303076171875,-0.8096405267715454,7.007364273071289,15.054349899291992
1702137421694010400,2.54001025390625,0.09201693534851074,6.662715911865234,17.639976501464844
1702137421711012400,2.557012451171875,-0.810996413230896,5.793591499328613,18.004310607910156
1702137421728002300,2.574002197265625,-2.584784984588623,5.0882463455200195,15.102073669433594
1702137421744996400,2.590996337890625,-3.1526083946228027,4.4506049156188965,10.712615013122559
1702137421761981200,2.607981201171875,-1.6622769832611084,4.2324604988098145,7.066706657409668
1702137421778978800,2.624978759765625,0.17651665210723877,3.049696922302246,5.771434783935547
1702137421795974100,2.64197412109375,1.112005591392517,1.814095377922058,5.657855033874512
1702137421812956000,2.658955810546875,0.7818435430526733,0.9666347503662109,6.047666549682617
1702137421829953000,2.675953125,0.050588130950927734,0.8450741767883301,4.99747371673584
1702137421846942000,2.69294189453125,-1.0470892190933228,0.8893048763275146,3.22702693939209
1702137421863934000,2.709933837890625,-1.9628820419311523,0.278348445892334,1.6011323928833008
1702137421880928000,2.726927978515625,-1.653930425643921,-0.2654759883880615,0.9971952438354492
1702137421897920500,2.74392041015625,0.2651272714138031,-0.26618146896362305,1.5142860412597656
1702137421914922200,2.760922119140625,2.267104148864746,-0.0730123519897461,3.0426788330078125
1702137421931893800,2.777893798828125,2.456669330596924,0.18015944957733154,3.976742744445801
1702137421948886000,2.794885986328125,1.8601866960525513,-0.5393763780593872,4.54051399230957
1702137421965883600,2.811883544921875,0.7609815001487732,-0.8399686813354492,3.660098075866699
1702137421982872000,2.8288720703125,0.07356640696525574,0.14875434339046478,3.5796737670898438
1702137421999868000,2.845867919921875,-0.6059070825576782,-0.08839142322540283,6.0176191329956055
1702137422016846600,2.8628466796875,-0.35262101888656616,-0.6416317820549011,8.699014663696289
1702137422033841700,2.879841552734375,1.0762377977371216,-1.1271551847457886,9.226511001586914
1702137422050840600,2.896840576171875,2.495845317840576,-1.7903250455856323,8.045794486999512
1702137422067821300,2.9138212890625,3.3348426818847656,-1.7579971551895142,6.0971479415893555
1702137422084824800,2.930824951171875,2.2017064094543457,-0.9089686870574951,5.90654182434082
1702137422101812700,2.947812744140625,0.057051658630371094,-1.0335698127746582,7.264176368713379
1702137422118805800,2.9648056640625,-0.9788047075271606,-1.2282288074493408,6.994692802429199
1702137422135798300,2.98179833984375,-0.99761962890625,-1.8457958698272705,4.67719841003418
1702137422152786700,2.99878662109375,0.060181617736816406,-2.5271267890930176,1.2477216720581055
1702137422169772000,3.01577197265625,1.4019775390625,-3.320647954940796,-1.5491724014282227
1702137422186773000,3.03277294921875,2.3778631687164307,-4.297386169433594,-3.2172694206237793
1702137422203759600,3.049759521484375,2.0419557094573975,-5.593528747558594,-4.109796524047852
1702137422220755200,3.066755126953125,1.3968713283538818,-6.571799278259277,-5.148714542388916
1702137422237745200,3.0837451171875,0.9412785768508911,-6.959952354431152,-6.5906596183776855
1702137422254739000,3.100739013671875,0.5544347763061523,-7.291778564453125,-7.832731246948242
1702137422271718400,3.117718505859375,0.7920429706573486,-7.67608642578125,-8.627847671508789
1702137422288720400,3.134720458984375,1.2594572305679321,-8.315536499023438,-8.613039016723633
1702137422305712400,3.15171240234375,1.679361343383789,-8.849441528320312,-8.271482467651367
1702137422322704100,3.1687041015625,1.950461745262146,-9.373699188232422,-7.6438140869140625
1702137422339694600,3.185694580078125,1.6341710090637207,-10.063821792602539,-6.767254829406738
1702137422356687000,3.20268701171875,1.6357659101486206,-10.409589767456055,-6.288512229919434
1702137422373667300,3.219667236328125,1.1114473342895508,-10.8521728515625,-6.078685760498047
1702137422390669300,3.23666943359375,0.6283730268478394,-11.258270263671875,-6.2527570724487305
1702137422407660000,3.253659912109375,0.07022571563720703,-11.896005630493164,-6.050322532653809
1702137422424649000,3.27064892578125,-1.2050963640213013,-12.819562911987305,-5.473748207092285
1702137422441634000,3.287634033203125,-2.506838083267212,-13.654523849487305,-4.783346176147461
1702137422458642400,3.304642333984375,-3.854949951171875,-14.761455535888672,-2.941373348236084
1702137422475626000,3.3216259765625,-4.108626365661621,-16.209278106689453,-0.6581649780273438
1702137422492618500,3.338618408203125,-3.699354648590088,-17.26774024963379,1.9018917083740234
1702137422509609000,3.35560888671875,-3.696143627166748,-17.6146297454834,6.336647987365723
1702137422526601200,3.372601318359375,-4.5461649894714355,-17.25045394897461,9.574342727661133
1702137422543591700,3.389591796875,-6.383854866027832,-16.665325164794922,11.632474899291992
1702137422560584200,3.406584228515625,-6.712696075439453,-16.35464859008789,16.064075469970703
1702137422577575000,3.423574951171875,-6.425844192504883,-15.416435241699219,21.59006118774414
1702137422594566700,3.440566650390625,-8.172832489013672,-14.59468936920166,26.555007934570312
1702137422611544600,3.457544677734375,-8.861842155456543,-13.792466163635254,30.82635498046875
1702137422628552400,3.474552490234375,-8.565030097961426,-12.463395118713379,36.890445709228516
1702137422645540400,3.491540283203125,-10.330696105957031,-11.559171676635742,40.828731536865234
1702137422662532400,3.508532470703125,-9.127801895141602,-11.732873916625977,41.31324005126953
1702137422679520500,3.5255205078125,-2.9588634967803955,-12.16694164276123,38.6763916015625
1702137422696518100,3.54251806640625,3.555187702178955,-11.193108558654785,36.08268737792969
1702137422713503000,3.5595029296875,6.891297340393066,-9.708752632141113,36.87240219116211
1702137422730498300,3.576498291015625,7.051085472106934,-8.39010238647461,36.29601287841797
1702137422747476000,3.59347607421875,7.58227014541626,-7.9782395362854,35.49225616455078
1702137422764470800,3.610470703125,10.844891548156738,-9.9379243850708,36.43075942993164
1702137422781465600,3.627465576171875,13.599388122558594,-12.764023780822754,34.59132385253906
1702137422798455600,3.64445556640625,15.57722282409668,-16.155479431152344,32.209434509277344
1702137422815443700,3.661443603515625,16.135011672973633,-18.76615333557129,31.623401641845703
1702137422832438000,3.67843798828125,15.385852813720703,-20.982954025268555,31.457130432128906
1702137422849429200,3.69542919921875,16.384111404418945,-21.76706314086914,29.637161254882812
1702137422866419700,3.712419677734375,18.9945068359375,-21.548160552978516,27.771059036254883
1702137422883412700,3.729412841796875,20.878612518310547,-19.875036239624023,25.659343719482422
1702137422900404500,3.746404541015625,19.073278427124023,-16.86448860168457,20.960737228393555
1702137422917400800,3.76340087890625,17.066314697265625,-14.73592758178711,15.109331130981445
1702137422934385000,3.780385009765625,16.242603302001953,-13.065016746520996,11.131804466247559
1702137422951371000,3.79737109375,14.28395938873291,-10.608813285827637,9.414533615112305
1702137422968367600,3.81436767578125,12.296865463256836,-11.184109687805176,11.602710723876953
1702137422985362400,3.831362548828125,13.067501068115234,-11.84291934967041,12.026128768920898
1702137423002353000,3.848352783203125,13.373055458068848,-12.45591926574707,13.418049812316895
1702137423019341300,3.86534130859375,10.179950714111328,-11.390804290771484,14.849359512329102
1702137423036347000,3.882346923828125,4.437036514282227,-8.836273193359375,15.498846054077148
1702137423053333500,3.89933349609375,-1.4726836681365967,-6.888986110687256,17.778839111328125
1702137423070312700,3.916312744140625,-4.536194801330566,-7.371801376342773,22.132598876953125
1702137423087314400,3.933314453125,-3.3660335540771484,-9.377118110656738,23.639469146728516
1702137423104316200,3.950316162109375,-0.6045030355453491,-11.054147720336914,21.697858810424805
1702137423121298400,3.96729833984375,1.7287898063659668,-9.89282512664795,18.334888458251953
1702137423138294300,3.984294189453125,1.5442466735839844,-8.188861846923828,17.078330993652344
1702137423155272400,4.0012724609375,-1.649512767791748,-8.515487670898438,18.08481788635254
1702137423172275500,4.018275390625,-4.128137588500977,-10.401192665100098,18.32784652709961
1702137423189264000,4.035263916015625,-2.4338173866271973,-12.716232299804688,14.883642196655273
1702137423206260200,4.05226025390625,1.2485661506652832,-13.616883277893066,10.270034790039062
1702137423223250200,4.069250244140625,3.6406407356262207,-15.011631965637207,8.263031005859375
1702137423240239600,4.086239501953125,5.267268180847168,-15.009187698364258,9.379444122314453
1702137423257232000,4.10323193359375,3.4875845909118652,-15.168732643127441,15.389966011047363
1702137423274223600,4.1202236328125,0.1111440658569336,-15.419047355651855,19.25026512145996
1702137423291224600,4.137224609375,-2.5134458541870117,-14.892955780029297,15.792901992797852
1702137423308209200,4.154209228515625,-1.0659809112548828,-17.217519760131836,10.544577598571777
1702137423325197600,4.171197509765625,4.972286224365234,-18.623313903808594,8.414678573608398
1702137423342189300,4.188189208984375,11.435809135437012,-17.009029388427734,11.838336944580078
1702137423359170800,4.2051708984375,10.123820304870605,-14.018022537231445,18.919458389282227
1702137423376172500,4.222172607421875,2.133436918258667,-11.794304847717285,22.513883590698242
1702137423393163000,4.2391630859375,-2.037282705307007,-12.045368194580078,25.15472412109375
1702137423410155300,4.2561552734375,3.0328032970428467,-12.723163604736328,28.919410705566406
1702137423427148300,4.273148193359375,9.031388282775879,-9.94096565246582,35.07182312011719
1702137423444133400,4.29013330078125,6.501652717590332,-6.126875877380371,38.62679672241211
1702137423461126400,4.30712646484375,-5.179276943206787,-4.040126800537109,36.289306640625
1702137423478120700,4.32412060546875,-8.635696411132812,-7.02072286605835,40.48231506347656
1702137423495117800,4.341117919921875,1.836871862411499,-10.423482894897461,45.449607849121094
1702137423512107500,4.358107421875,10.708192825317383,-11.92428970336914,46.78129577636719
1702137423529094700,4.3750947265625,11.877446174621582,-11.672098159790039,45.592185974121094
1702137423546086400,4.39208642578125,10.427933692932129,-9.86288833618164,45.77511978149414
1702137423563076900,4.409076904296875,6.915529251098633,-9.56433391571045,47.34117126464844
1702137423580070000,4.42606982421875,6.565902233123779,-12.81112003326416,49.65660095214844
1702137423597060000,4.44306005859375,10.755570411682129,-16.414907455444336,50.03266143798828
1702137423614041300,4.460041259765625,15.140542984008789,-18.21596908569336,46.53231430053711
1702137423631042800,4.477042724609375,16.298599243164062,-21.280860900878906,42.429832458496094
1702137423648035300,4.494035400390625,16.717334747314453,-25.596302032470703,37.619380950927734
1702137423665027800,4.51102783203125,18.25748062133789,-29.027572631835938,32.77019500732422
1702137423682016500,4.5280166015625,19.464277267456055,-29.865516662597656,28.261608123779297
1702137423699009800,4.545009765625,17.726186752319336,-29.457454681396484,22.6802978515625
1702137423715985400,4.5619853515625,14.450061798095703,-28.335269927978516,17.75819969177246
1702137423732989000,4.578989013671875,10.455034255981445,-26.936939239501953,14.984516143798828
1702137423749986300,4.595986328125,9.306629180908203,-23.937530517578125,11.076451301574707
1702137423766975000,4.61297509765625,8.696939468383789,-20.82018280029297,8.881908416748047
1702137423783966000,4.629966064453125,7.065432548522949,-19.156631469726562,9.902026176452637
1702137423800957400,4.64695751953125,4.268774032592773,-18.393295288085938,12.400581359863281
1702137423817961000,4.6639609375,3.412322521209717,-17.399490356445312,12.428699493408203
1702137423834936800,4.680936767578125,4.952218532562256,-16.627405166625977,10.785988807678223
1702137423851932400,4.697932373046875,6.3167724609375,-16.75383758544922,10.994626998901367
1702137423868923000,4.7149228515625,6.470796585083008,-16.881893157958984,13.770476341247559
1702137423885914000,4.7319140625,5.379837989807129,-16.710119247436523,16.64917755126953
1702137423902905300,4.7489052734375,5.256015777587891,-17.772607803344727,18.098308563232422
1702137423919897900,4.76589794921875,6.586277484893799,-18.548683166503906,17.99386215209961
1702137423936888600,4.782888671875,7.693880081176758,-20.175437927246094,20.333282470703125
1702137423953880600,4.799880615234375,7.783465385437012,-21.08999252319336,23.4993953704834
1702137423970871300,4.816871337890625,6.091516494750977,-22.741901397705078,27.564247131347656
1702137423987863800,4.83386376953125,4.282155990600586,-24.39775276184082,28.41259765625
1702137424004843800,4.85084375,4.9574432373046875,-27.74639892578125,28.5590877532959
1702137424021846300,4.86784619140625,10.321243286132812,-30.01980972290039,28.888187408447266
1702137424038836700,4.884836669921875,14.994638442993164,-30.557147979736328,32.18716812133789
1702137424055818500,4.901818603515625,7.759376525878906,-30.77942657470703,35.30196762084961
1702137424072820000,4.918820068359375,4.03355073928833,-28.570960998535156,29.569917678833008
1702137424089811700,4.935811767578125,6.671569347381592,-28.30040740966797,32.59214401245117
1702137424106802400,4.952802490234375,10.51697063446045,-27.316953659057617,41.303531646728516
1702137424123795000,4.969794921875,11.303934097290039,-23.501516342163086,44.55015182495117
1702137424140785700,4.98678564453125,10.926838874816895,-18.698265075683594,40.67587661743164
1702137424157772500,5.0037724609375,8.447619438171387,-16.287330627441406,37.64319610595703
1702137424174768000,5.02076806640625,6.467230319976807,-16.06536293029785,35.389339447021484
1702137424191760600,5.0377607421875,7.427020072937012,-11.722068786621094,31.895219802856445
1702137424208747300,5.054747314453125,6.592154502868652,-9.221393585205078,33.35575485229492
1702137424225747200,5.071747314453125,8.131409645080566,-7.598857879638672,34.16627502441406
1702137424242733800,5.08873388671875,7.1674628257751465,-4.825462341308594,29.82465362548828
1702137424259726600,5.1057265625,2.2768070697784424,-2.7481977939605713,27.202499389648438
1702137424276717600,5.122717529296875,-2.5004138946533203,-1.117893099784851,25.687450408935547
1702137424293699000,5.139698974609375,-2.6848342418670654,0.9363122582435608,23.131698608398438
1702137424310699500,5.156699462890625,-0.06388938426971436,2.1745455265045166,22.47620391845703
1702137424327692300,5.1736923828125,3.115962028503418,2.877159357070923,21.991939544677734
1702137424344682500,5.1906826171875,2.9102487564086914,3.6061525344848633,21.517200469970703
1702137424361673200,5.207673095703125,1.8483171463012695,4.142972946166992,19.008943557739258
1702137424378662700,5.22466259765625,-1.3192468881607056,4.703634262084961,15.713451385498047
1702137424395660500,5.24166064453125,-3.520556926727295,4.090783596038818,13.271871566772461
1702137424412643800,5.258643798828125,-2.5977799892425537,4.951747894287109,10.688090324401855
1702137424429645300,5.275645263671875,-0.899051308631897,4.685793876647949,11.084257125854492
1702137424446630700,5.292630615234375,-0.14828932285308838,3.823503255844116,10.71472454071045
1702137424463623200,5.309623046875,-0.5221251249313354,3.554711103439331,8.979668617248535
1702137424480614100,5.3266142578125,-1.952007532119751,3.1460556983947754,6.684210777282715
1702137424497606000,5.34360595703125,-3.070591449737549,2.6554765701293945,4.791014671325684
1702137424514596600,5.3605966796875,-2.3120369911193848,2.0363011360168457,3.5786046981811523
1702137424531589600,5.377589599609375,-0.5689264535903931,1.5351371765136719,2.9165477752685547
1702137424548579000,5.3945791015625,0.09501993656158447,1.0075756311416626,2.4442405700683594
1702137424565571800,5.41157177734375,0.18513453006744385,0.7242124080657959,1.765049934387207
1702137424582562300,5.428562255859375,-0.34571921825408936,0.1755661964416504,1.2241859436035156
1702137424599544000,5.4455439453125,-0.744687020778656,-0.3539566993713379,0.7264738082885742
1702137424616545800,5.4625458984375,-0.8995737433433533,-0.6274065971374512,0.3230915069580078
1702137424633526800,5.47952685546875,-1.6037369966506958,-0.7740380764007568,0.5440397262573242
1702137424650525200,5.496525146484375,-1.7978324890136719,-0.6946208477020264,0.9099845886230469
1702137424667517000,5.513516845703125,-0.8348974585533142,-0.662015438079834,1.069117546081543
1702137424684511000,5.530510986328125,0.5344094038009644,-0.9833406209945679,1.3395977020263672
1702137424701503000,5.5475029296875,1.427952527999878,-0.9749319553375244,1.1873703002929688
1702137424718494000,5.564493896484375,1.3108915090560913,-1.026986837387085,0.770355224609375
1702137424735486200,5.581486328125,0.8079495429992676,-0.8282185792922974,0.35955238342285156
1702137424752470500,5.598470458984375,0.15154337882995605,-1.3670117855072021,0.7954301834106445
1702137424769466000,5.615466064453125,1.2231059074401855,-1.4519267082214355,1.156473159790039
1702137424786462000,5.6324619140625,2.6339149475097656,-1.3540400266647339,1.2907447814941406
1702137424803452000,5.649451904296875,3.8556928634643555,-1.2302888631820679,1.4376144409179688
1702137424820442400,5.6664423828125,4.594455718994141,-0.7984956502914429,2.116818428039551
1702137424837423900,5.683423828125,4.20405387878418,-0.8320803642272949,3.3548336029052734
1702137424854421000,5.7004208984375,3.1485276222229004,-1.3676209449768066,4.402411460876465
1702137424871408600,5.71740869140625,2.2914047241210938,-1.82356858253479,4.656319618225098
1702137424888408000,5.734407958984375,2.57684326171875,-1.753927230834961,5.037549018859863
1702137424905399800,5.75139990234375,3.392331123352051,-1.0919418334960938,5.925432205200195
1702137424922390500,5.768390625,3.137007713317871,-0.39269328117370605,6.878757476806641
1702137424939373000,5.785373046875,0.022763729095458984,0.6023967266082764,6.755377769470215
1702137424956374000,5.8023740234375,-2.6853487491607666,-0.42102885246276855,7.343103408813477
1702137424973365800,5.81936572265625,-1.626682996749878,-1.388963222503662,6.405640602111816
1702137424990355700,5.836355712890625,1.1774718761444092,-1.7977607250213623,3.851541519165039
1702137425007349000,5.853348876953125,2.71034574508667,-1.5507640838623047,0.42597341537475586
1702137425024337000,5.8703369140625,2.51234769821167,-0.9851269721984863,-2.5639405250549316
1702137425041333800,5.887333740234375,0.9026697874069214,-1.0862531661987305,-3.9691202640533447
1702137425058322400,5.904322509765625,0.7690829038619995,-1.6808042526245117,-4.160120487213135
1702137425075311900,5.921311767578125,0.9082082509994507,-2.7963857650756836,-4.489895820617676
1702137425092305200,5.93830517578125,0.7002427577972412,-4.09749698638916,-5.272618770599365
1702137425109299200,5.95529931640625,0.5627443790435791,-5.124441623687744,-6.205047607421875
1702137425126286000,5.9722861328125,0.8445624113082886,-5.895054817199707,-6.929747581481934
1702137425143280400,5.9892802734375,1.359514594078064,-6.610223770141602,-7.3053693771362305
1702137425160270800,6.006270751953125,1.9231235980987549,-7.37894868850708,-7.3017377853393555
1702137425177262800,6.023262939453125,2.0449273586273193,-8.177989959716797,-7.165338516235352
1702137425194253600,6.040253662109375,1.7576056718826294,-8.924219131469727,-7.105141639709473
1702137425211249200,6.057249267578125,0.8687671422958374,-9.874960899353027,-7.169256687164307
1702137425228236800,6.07423681640625,0.19697880744934082,-10.886600494384766,-7.322150230407715
1702137425245225700,6.091225830078125,-0.35099148750305176,-12.18504524230957,-7.398807525634766
1702137425262211300,6.10821142578125,-1.4286919832229614,-13.458145141601562,-7.311699867248535
1702137425279211500,6.12521142578125,-3.3853886127471924,-14.345603942871094,-6.787762641906738
1702137425296202000,6.142201904296875,-5.786892414093018,-16.27090072631836,-3.9002747535705566
1702137425313199000,6.15919921875,-4.318906307220459,-17.68313217163086,0.5809578895568848
1702137425330182400,6.176182373046875,-2.130847692489624,-17.08338737487793,5.945894718170166
1702137425347179800,6.1931796875,-3.2888364791870117,-15.563070297241211,9.753149032592773
1702137425364157200,6.2101572265625,-5.399462699890137,-13.882386207580566,12.683555603027344
1702137425381160000,6.227159912109375,-4.7194952964782715,-11.9518404006958,17.315467834472656
1702137425398150400,6.244150390625,-3.0914626121520996,-9.019243240356445,22.920650482177734
1702137425415143000,6.261142822265625,-4.477983474731445,-6.199527263641357,25.63532257080078
1702137425432134100,6.278134033203125,-7.0452656745910645,-4.783572196960449,25.538978576660156
1702137425449133800,6.2951337890625,-7.154985427856445,-3.79349946975708,24.273826599121094
1702137425466100500,6.3121005859375,-6.121148586273193,-2.7025351524353027,24.643775939941406
1702137425483106600,6.3291064453125,-4.870057582855225,-1.6503909826278687,26.111589431762695
1702137425500101400,6.346101318359375,-4.447150230407715,-0.2966240644454956,28.190975189208984
1702137425517091300,6.36309130859375,-3.7910397052764893,0.40796804428100586,32.097068786621094
1702137425534082000,6.38008203125,-1.6594551801681519,-0.5318325161933899,34.93787384033203
1702137425551074300,6.39707421875,3.0658323764801025,-2.1533753871917725,36.25585174560547
1702137425568064800,6.414064697265625,8.73495101928711,-3.9731602668762207,35.884342193603516
1702137425585056800,6.431056884765625,12.995719909667969,-5.722099781036377,34.068607330322266
1702137425602035500,6.448035400390625,15.958490371704102,-7.0838117599487305,32.41209411621094
1702137425619029800,6.46502978515625,16.858827590942383,-8.542523384094238,32.31021499633789
1702137425636033000,6.482032958984375,16.309104919433594,-10.027997970581055,30.658283233642578
1702137425653017600,6.499017578125,17.252521514892578,-11.61522102355957,27.826656341552734
1702137425670010600,6.5160107421875,23.221960067749023,-13.848342895507812,26.275943756103516
1702137425687008000,6.533008056640625,26.867542266845703,-13.816731452941895,22.657550811767578
1702137425703993600,6.54999365234375,25.628612518310547,-11.31815242767334,17.805355072021484
1702137425720988400,6.566988525390625,21.815954208374023,-8.567590713500977,14.954419136047363
1702137425737968400,6.583968505859375,17.937376022338867,-5.653501510620117,9.951613426208496
1702137425754971400,6.600971435546875,16.360952377319336,-4.202255725860596,5.493663787841797
1702137425771961900,6.6179619140625,18.3090877532959,-4.048357009887695,3.370903491973877
1702137425788953900,6.634953857421875,21.615571975708008,-4.779675483703613,5.459042549133301
1702137425805944300,6.6519443359375,23.14174461364746,-5.953135967254639,9.586398124694824
1702137425822936800,6.668936767578125,21.187395095825195,-6.291646957397461,14.837007522583008
1702137425839927600,6.685927490234375,15.7098970413208,-7.020633697509766,18.850189208984375
1702137425856917000,6.7029169921875,7.74208927154541,-7.38839054107666,20.463176727294922
1702137425873912800,6.719912841796875,0.9783174991607666,-6.500237464904785,21.32196807861328
1702137425890902800,6.73690283203125,-0.14715051651000977,-6.979561805725098,24.70169448852539
1702137425907893000,6.75389306640625,2.9440388679504395,-10.126398086547852,24.995824813842773
1702137425924874800,6.770874755859375,8.757733345031738,-12.47654914855957,22.70016860961914
1702137425941876500,6.78787646484375,12.795293807983398,-12.699167251586914,22.069805145263672
1702137425958867500,6.804867431640625,12.224327087402344,-11.82968807220459,22.028182983398438
1702137425975859000,6.82185888671875,7.918359279632568,-11.52408218383789,22.007125854492188
1702137425992854000,6.83885400390625,3.9165027141571045,-12.378786087036133,20.03045654296875
1702137426009838000,6.855838134765625,3.9041919708251953,-13.59311294555664,16.459823608398438
1702137426026834000,6.872833984375,7.508703708648682,-14.075712203979492,12.50461196899414
1702137426043825000,6.889824951171875,10.785038948059082,-11.837340354919434,11.884422302246094
1702137426060816400,6.90681640625,7.4726481437683105,-10.593268394470215,17.244579315185547
1702137426077804300,6.92380419921875,-3.0087852478027344,-10.43939208984375,24.061677932739258
1702137426094788400,6.940788330078125,-13.338105201721191,-10.411720275878906,22.562883377075195
1702137426111790000,6.9577900390625,-12.465627670288086,-15.9928617477417,16.439144134521484
1702137426128778800,6.97477880859375,-3.877699851989746,-18.281661987304688,7.010802745819092
1702137426145775900,6.99177587890625,1.5066285133361816,-19.049976348876953,3.7947609424591064
1702137426162765300,7.008765380859375,3.932777166366577,-19.246301651000977,7.89016580581665
1702137426179756000,7.025756103515625,2.1835217475891113,-17.628742218017578,12.872840881347656
1702137426196747500,7.04274755859375,-1.5656063556671143,-15.956155776977539,16.54334259033203
1702137426213726500,7.0597265625,-4.348388671875,-16.49772071838379,21.192882537841797
1702137426230718200,7.07671826171875,-1.9774373769760132,-17.36553955078125,22.682985305786133
1702137426247713300,7.09371337890625,1.8163344860076904,-17.86430549621582,23.89321517944336
1702137426264700400,7.110700439453125,3.737617254257202,-18.496212005615234,27.634979248046875
1702137426281695700,7.12769580078125,5.677646160125732,-18.038070678710938,32.27719497680664
1702137426298686700,7.144686767578125,4.111672401428223,-15.439376831054688,37.336124420166016
1702137426315678200,7.16167822265625,-3.4475138187408447,-14.120169639587402,42.005859375
1702137426332672800,7.1786728515625,-4.462987899780273,-14.848969459533691,44.76225662231445
1702137426349659400,7.195659423828125,1.8322830200195312,-17.3228702545166,45.73695373535156
1702137426366659800,7.212659912109375,5.952682018280029,-17.791332244873047,46.6578369140625
1702137426383645400,7.2296455078125,4.436485290527344,-15.856910705566406,46.754615783691406
1702137426400637200,7.24663720703125,1.7909767627716064,-16.246925354003906,48.54320526123047
1702137426417628000,7.2636279296875,1.4745352268218994,-20.27663230895996,50.333091735839844
1702137426434617000,7.2806171875,5.646639823913574,-24.690818786621094,47.31166458129883
1702137426451608300,7.2976083984375,13.577415466308594,-30.876842498779297,43.20452117919922
1702137426468600800,7.314600830078125,22.731191635131836,-33.3890380859375,36.82464599609375
1702137426485590500,7.331590576171875,24.668930053710938,-33.52116394042969,28.4012451171875
1702137426502585300,7.34858544921875,20.99165153503418,-30.738296508789062,19.121307373046875
1702137426519575800,7.365575927734375,14.967927932739258,-29.420185089111328,14.883733749389648
1702137426536566000,7.38256591796875,10.075420379638672,-27.006053924560547,11.704107284545898
1702137426553558300,7.399558349609375,7.175697326660156,-24.937889099121094,9.109177589416504
1702137426570561300,7.416561279296875,7.767099857330322,-23.679391860961914,7.7264790534973145
1702137426587531300,7.43353125,11.023045539855957,-21.066078186035156,6.185450553894043
1702137426604541400,7.45054150390625,13.419660568237305,-18.05037498474121,7.5868821144104
1702137426621532200,7.4675322265625,9.507951736450195,-15.514165878295898,11.803905487060547
1702137426638525000,7.48452490234375,3.6253366470336914,-14.23779582977295,14.498446464538574
1702137426655515400,7.501515380859375,0.9046502113342285,-12.944271087646484,14.616085052490234
1702137426672507400,7.51850732421875,0.4602823257446289,-13.229056358337402,14.169820785522461
1702137426689495600,7.53549560546875,1.0805940628051758,-13.783987998962402,14.138946533203125
1702137426706492700,7.55249267578125,1.842092514038086,-15.197967529296875,14.838871002197266
1702137426723481000,7.569481201171875,2.962498664855957,-17.522794723510742,18.71304702758789
1702137426740473900,7.586473876953125,4.311615467071533,-18.06845474243164,22.67537498474121
1702137426757462500,7.603462646484375,4.380519866943359,-18.393888473510742,24.935630798339844
1702137426774457600,7.62045751953125,2.7353878021240234,-19.03007698059082,25.617393493652344
1702137426791434800,7.637434814453125,0.9435361623764038,-21.04946517944336,28.312185287475586
1702137426808439800,7.654439697265625,3.2439281940460205,-21.90656089782715,30.91031265258789
1702137426825429200,7.67142919921875,6.101848125457764,-21.869972229003906,33.66582489013672
1702137426842421800,7.688421875,4.39191198348999,-21.078720092773438,32.772247314453125
1702137426859400200,7.705400146484375,-0.7273727655410767,-21.493762969970703,27.632314682006836
1702137426876393500,7.7223935546875,0.05479961633682251,-21.286354064941406,23.223133087158203
1702137426893394700,7.739394775390625,3.6206278800964355,-23.26428985595703,26.61864471435547
1702137426910387500,7.756387451171875,5.9865946769714355,-24.28582000732422,33.625335693359375
1702137426927378200,7.773378173828125,5.641507148742676,-23.77340316772461,36.387420654296875
1702137426944369700,7.79036962890625,2.7224433422088623,-23.77121353149414,36.06178283691406
1702137426961360400,7.8073603515625,1.3191587924957275,-20.55624771118164,33.10137176513672
1702137426978353200,7.824353271484375,0.0788198709487915,-18.872528076171875,34.174705505371094
1702137426995343400,7.84134326171875,-2.301359176635742,-18.411561965942383,34.749244689941406
1702137427012335900,7.8583359375,-1.2685904502868652,-15.87014102935791,30.96485710144043
1702137427029323300,7.8753232421875,2.449535369873047,-13.226181030273438,29.564443588256836
1702137427046324000,7.892323974609375,3.9119505882263184,-10.522500991821289,31.090301513671875
1702137427063305000,7.909304931640625,-0.9967482089996338,-7.507197380065918,33.24639129638672
1702137427080305400,7.926305419921875,-5.747379779815674,-4.578144550323486,30.86093521118164
1702137427097292000,7.9432919921875,-2.4474241733551025,-0.74272620677948,26.399763107299805
1702137427114284300,7.9602841796875,3.1244473457336426,0.663360059261322,25.523500442504883
1702137427131274800,7.977274658203125,5.123836517333984,1.6876978874206543,24.22491455078125
1702137427148266800,7.994266845703125,2.5058202743530273,3.0604515075683594,21.677927017211914
1702137427165256400,8.01125634765625,-1.3758866786956787,5.968033313751221,19.54314422607422
1702137427182250800,8.028250732421874,-2.3114471435546875,7.271841049194336,20.189605712890625
1702137427199240700,8.04524072265625,-0.7573109269142151,7.9337239265441895,20.70946502685547
1702137427216232400,8.062232421875,1.835530161857605,7.438380241394043,18.592578887939453
1702137427233218300,8.07921826171875,2.8967020511627197,7.623031139373779,15.042816162109375
1702137427250205000,8.096204833984375,2.861586332321167,7.500373840332031,11.639045715332031
1702137427267203600,8.11320361328125,2.449645757675171,6.991340637207031,9.834761619567871
1702137427284200400,8.130200439453125,2.065593719482422,5.837587356567383,9.359118461608887
1702137427301188600,8.147188720703125,2.139744758605957,4.609328746795654,8.462423324584961
1702137427318181000,8.16418115234375,2.425323963165283,3.2366819381713867,6.874931335449219
1702137427335171800,8.181171875,2.6226730346679688,1.9701447486877441,4.665708541870117
1702137427352163600,8.19816357421875,2.56602144241333,0.683684229850769,3.442999839782715
1702137427369154000,8.215154052734375,2.1235175132751465,-0.11892104148864746,2.9415321350097656
1702137427386146000,8.23214599609375,1.316902995109558,-0.5482968091964722,2.208867073059082
1702137427403137500,8.249137451171874,0.45483481884002686,-1.3273929357528687,2.051280975341797
1702137427420129000,8.26612890625,0.7615185976028442,-2.2249250411987305,2.391080856323242
1702137427437129000,8.28312890625,1.8655928373336792,-3.2075703144073486,2.3629074096679688
1702137427454109700,8.300109619140626,2.8682854175567627,-3.759258270263672,1.6512012481689453
1702137427471105500,8.31710546875,3.0748682022094727,-3.7368812561035156,0.7013111114501953
1702137427488095000,8.334094970703125,2.43454909324646,-3.852973461151123,0.5325527191162109
1702137427505085400,8.35108544921875,2.114795207977295,-4.08868932723999,0.6325540542602539
1702137427522078000,8.368077880859374,1.783786654472351,-4.39332389831543,0.6217555999755859
1702137427539068700,8.385068603515625,2.219919443130493,-4.245767593383789,-0.04370594024658203
1702137427556060700,8.402060791015625,3.0897090435028076,-3.8787684440612793,-0.4753866195678711
1702137427573051100,8.419051025390624,3.8861348628997803,-3.7589335441589355,-0.15460205078125
1702137427590041000,8.436041015625,4.6893310546875,-3.813412666320801,0.4690427780151367
1702137427607036700,8.45303662109375,5.249999046325684,-3.5981087684631348,0.6041316986083984
1702137427624025900,8.47002587890625,4.977585792541504,-3.3818440437316895,0.17769813537597656
1702137427641014000,8.487013916015625,4.340653419494629,-3.039682149887085,-0.02870941162109375
1702137427658005500,8.504005615234375,3.3602395057678223,-2.821894407272339,0.9727010726928711
1702137427674999800,8.520999755859375,3.187804937362671,-2.396101713180542,2.618471145629883
1702137427691991800,8.53799169921875,3.982290029525757,-2.196702480316162,4.709715843200684
1702137427708974800,8.554974853515626,5.056025505065918,-1.6932621002197266,5.512725830078125
1702137427725974800,8.571974853515625,4.438779830932617,-0.36322593688964844,4.063648223876953
1702137427742964700,8.58896484375,0.9487557411193848,1.4902997016906738,2.6646413803100586
1702137427759958500,8.60595849609375,-2.6420445442199707,2.399017333984375,5.385960578918457
1702137427776948000,8.622947998046875,-2.442361831665039,2.7791624069213867,7.810377597808838
1702137427793940500,8.6399404296875,0.8042933940887451,3.4966416358947754,6.377192974090576
1702137427810931500,8.656931396484374,2.7247323989868164,3.5268735885620117,3.045133590698242
1702137427827923200,8.673923095703126,1.267520546913147,2.947145462036133,-1.041574478149414
1702137427844912400,8.690912353515625,-1.9798665046691895,3.021575927734375,-3.8740928173065186
1702137427861899800,8.707899658203125,-5.187199592590332,0.9864530563354492,-2.6883184909820557
1702137427878894300,8.724894287109375,-4.560760498046875,-1.6529459953308105,-2.0162391662597656
1702137427895891200,8.74189111328125,-2.1950621604919434,-3.9252500534057617,-4.006983280181885
1702137427912879600,8.758879638671875,-0.22476983070373535,-5.545129776000977,-6.326447486877441
1702137427929872000,8.775871826171874,1.2993030548095703,-5.956658840179443,-8.094640731811523
1702137427946862300,8.7928623046875,2.0106587409973145,-6.424671173095703,-8.522539138793945
1702137427963856600,8.809856689453126,1.6228339672088623,-7.517507553100586,-7.700229644775391
1702137427980842800,8.8268427734375,0.9308160543441772,-8.51314640045166,-6.330202102661133
1702137427997832700,8.843832763671875,0.3600442409515381,-9.239184379577637,-4.247898578643799
1702137428014828000,8.860828125,0.032881975173950195,-9.86764907836914,-3.2378640174865723
1702137428031820000,8.877820068359375,0.48280906677246094,-10.443653106689453,-4.0354838371276855
1702137428048810500,8.894810546875,0.7013818025588989,-11.342927932739258,-5.4051923751831055
1702137428065800700,8.91180078125,1.0937857627868652,-12.08326530456543,-6.669492721557617
1702137428082785800,8.928785888671875,0.8984970450401306,-12.952280044555664,-6.787021636962891
1702137428099785700,8.94578564453125,0.4528921842575073,-13.872492790222168,-4.761751174926758
1702137428116776400,8.9627763671875,0.48488008975982666,-14.703230857849121,-2.700709819793701
1702137428133758200,8.97975830078125,0.4710782468318939,-14.971920013427734,-1.8746538162231445
1702137428150756600,8.996756591796874,-1.0622597932815552,-14.748355865478516,-1.4688141345977783
1702137428167753700,9.013753662109375,-3.591062545776367,-15.147040367126465,1.4916996955871582
1702137428184742000,9.030741943359375,-5.047562122344971,-15.108429908752441,5.768393039703369
1702137428201734100,9.047734130859375,-5.49418306350708,-14.720865249633789,9.997092247009277
1702137428218724900,9.064724853515624,-6.702070236206055,-13.847536087036133,12.55594253540039
1702137428235716900,9.081716796875,-9.188901901245117,-13.456005096435547,12.973240852355957
1702137428252707600,9.09870751953125,-8.816235542297363,-13.423463821411133,14.282205581665039
1702137428269699800,9.115699951171875,-6.691331386566162,-12.459578514099121,18.68132781982422
1702137428286690300,9.132690185546876,-6.969184875488281,-10.558370590209961,22.988290786743164
1702137428303677700,9.149677734375,-10.172880172729492,-8.05282211303711,25.268041610717773
1702137428320673300,9.16667333984375,-13.326498985290527,-7.436006546020508,27.620948791503906
1702137428337665800,9.183665771484375,-14.146822929382324,-7.885985851287842,30.884382247924805
1702137428354656000,9.200656005859376,-12.010318756103516,-9.351375579833984,35.3349723815918
1702137428371640600,9.217640625,-5.631882190704346,-9.332036018371582,37.739097595214844
1702137428388638700,9.234638671875,0.7538611888885498,-8.599861145019531,37.760799407958984
1702137428405631200,9.25163134765625,4.5054521560668945,-8.236872673034668,36.570899963378906
1702137428422621700,9.26862158203125,7.184741020202637,-8.643634796142578,35.577880859375
1702137428439613700,9.28561376953125,9.75139045715332,-9.976479530334473,34.74156188964844
1702137428456604200,9.302604248046874,12.778425216674805,-11.80175495147705,32.425899505615234
1702137428473609500,9.319609375,15.45902156829834,-14.582242965698242,30.550437927246094
1702137428490584000,9.336583984375,17.280054092407227,-17.031349182128906,28.55454444885254
1702137428507579100,9.3535791015625,17.28213882446289,-18.21481704711914,27.194894790649414
1702137428524569900,9.37056982421875,14.431671142578125,-19.464366912841797,25.434186935424805
1702137428541562400,9.387562255859375,13.754814147949219,-18.568958282470703,22.451452255249023
1702137428558549500,9.404549560546876,15.255895614624023,-17.994220733642578,20.46611213684082
1702137428575542300,9.421542236328126,18.678735733032227,-16.25594139099121,19.325986862182617
1702137428592538000,9.4385380859375,18.782201766967773,-16.549884796142578,20.240467071533203
1702137428609525500,9.455525390625,14.377081871032715,-16.1830997467041,20.279537200927734
1702137428626524400,9.4725244140625,9.405856132507324,-14.429128646850586,18.293174743652344
1702137428643507200,9.489507080078125,7.60737419128418,-11.678496360778809,14.910490989685059
1702137428660501000,9.5065009765625,8.965133666992188,-9.91834831237793,12.312135696411133
1702137428677493500,9.523493408203125,10.645017623901367,-10.135610580444336,10.764848709106445
1702137428694473500,9.540473388671876,10.870935440063477,-10.751260757446289,11.180230140686035
1702137428711465500,9.557465576171875,8.64780330657959,-10.387182235717773,13.105594635009766
1702137428728466700,9.574466796875,5.895791053771973,-9.834440231323242,17.00845718383789
1702137428745469000,9.591468994140625,3.573269844055176,-9.335319519042969,22.696277618408203
1702137428762450000,9.608449951171876,0.20037633180618286,-9.002729415893555,25.291297912597656
1702137428779441700,9.625441650390625,-1.228135585784912,-7.106220245361328,24.286712646484375
1702137428796422100,9.642422119140624,-2.639155387878418,-6.138574123382568,24.94063949584961
1702137428813426200,9.65942626953125,-3.5840775966644287,-6.814126968383789,26.23031997680664
1702137428830415400,9.676415283203125,-3.957667827606201,-7.184323310852051,26.35468101501465
1702137428847407400,9.693407470703125,-5.321160793304443,-6.683895587921143,24.311315536499023
1702137428864397800,9.710397705078124,-8.072542190551758,-5.8565354347229,21.256206512451172
1702137428881387800,9.7273876953125,-9.331262588500977,-5.33947229385376,18.934789657592773
1702137428898378500,9.74437841796875,-6.763816833496094,-5.157967567443848,17.712581634521484
1702137428915375600,9.761375732421875,-4.0073699951171875,-6.202457427978516,17.6389102935791
1702137428932363500,9.778363525390626,-0.6579170227050781,-7.229742527008057,15.680225372314453
1702137428949352200,9.795352294921875,2.189957618713379,-8.656051635742188,12.957108497619629
1702137428966350000,9.81235009765625,5.132220268249512,-8.740589141845703,12.97402572631836
1702137428983338500,9.82933837890625,1.755408763885498,-9.955484390258789,18.36370849609375
1702137429000329200,9.8463291015625,-4.265392303466797,-11.19766902923584,22.21612548828125
1702137429017321700,9.86332177734375,-2.545267105102539,-10.548206329345703,17.425825119018555
1702137429034312200,9.880312255859375,4.381054878234863,-14.194388389587402,15.462782859802246
1702137429051301400,9.89730126953125,11.503885269165039,-17.504507064819336,16.170940399169922
1702137429068294700,9.914294677734375,16.29561996459961,-16.381898880004883,17.234085083007812
1702137429085272600,9.9312724609375,10.684860229492188,-13.302907943725586,21.25787353515625
1702137429102282000,9.948281982421875,-0.7926309108734131,-11.074585914611816,25.127777099609375
1702137429119270400,9.9652705078125,-4.621623992919922,-12.291966438293457,30.90327262878418
1702137429136260600,9.982260498046875,3.5492148399353027,-12.310781478881836,33.150634765625
1702137429153252600,9.999252685546875,7.134686470031738,-8.849428176879883,34.43730163574219
1702137429170247000,10.016246826171875,-0.4088442921638489,-6.961240768432617,37.741172790527344
1702137429187232800,10.033232666015625,-8.718215942382812,-6.7488861083984375,39.753196716308594
1702137429204228000,10.05022802734375,-9.667281150817871,-8.566909790039062,41.8999137878418
1702137429221218600,10.067218505859374,-2.652660608291626,-10.984504699707031,46.53809356689453
1702137429238208800,10.084208740234375,3.1440329551696777,-11.460801124572754,51.37834930419922
1702137429255201000,10.101200927734375,3.683499813079834,-11.538939476013184,51.651710510253906
1702137429272194600,10.118194580078125,2.942265033721924,-13.281094551086426,50.800880432128906
1702137429289184300,10.135184326171874,2.347352981567383,-16.09276580810547,51.222900390625
1702137429306174500,10.152174560546875,4.240276336669922,-20.431568145751953,50.90399169921875
1702137429323166200,10.169166259765625,9.649259567260742,-26.050373077392578,52.39162826538086
1702137429340157000,10.186156982421876,13.978004455566406,-29.637725830078125,46.05852508544922
1702137429357147000,10.20314697265625,16.80652618408203,-33.52674865722656,39.42418670654297
1702137429374137900,10.220137939453124,19.791528701782227,-34.328521728515625,32.42459487915039
1702137429391132200,10.237132080078124,19.061805725097656,-32.07678985595703,26.87151336669922
1702137429408122600,10.25412255859375,14.297615051269531,-30.46457290649414,24.115802764892578
1702137429425115000,10.271114990234375,9.21955394744873,-29.7034969329834,20.10591697692871
1702137429442105900,10.28810595703125,7.360640525817871,-27.234203338623047,12.768450736999512
1702137429459097900,10.305097900390624,7.692573547363281,-23.84494400024414,7.005577564239502
1702137429476088300,10.32208837890625,9.484577178955078,-20.592851638793945,5.505396366119385
1702137429493080800,10.339080810546875,10.090147972106934,-17.876474380493164,8.708836555480957
1702137429510071300,10.3560712890625,9.201534271240234,-15.524246215820312,12.759573936462402
1702137429527060700,10.373060791015625,5.657741069793701,-14.20577621459961,14.03914737701416
1702137429544056300,10.390056396484376,2.8850207328796387,-13.896337509155273,13.251501083374023
1702137429561041000,10.407041015625,2.4418492317199707,-14.382827758789062,11.95572280883789
1702137429578036700,10.42403662109375,4.126041889190674,-15.033073425292969,10.506205558776855
1702137429595029000,10.441029052734375,5.893481254577637,-16.031808853149414,13.42147159576416
1702137429612016600,10.4580166015625,4.856752395629883,-17.694555282592773,18.24279022216797
1702137429629014500,10.4750146484375,4.046489715576172,-17.84851837158203,18.817481994628906
1702137429645999900,10.491999755859375,4.64757776260376,-17.985700607299805,17.127731323242188
1702137429662997000,10.5089970703125,7.114757061004639,-18.12416648864746,16.685504913330078
1702137429679985200,10.525985107421874,8.379878044128418,-20.554859161376953,20.863967895507812
1702137429696967000,10.542966796875,8.674209594726562,-22.444046020507812,26.033138275146484
1702137429713960200,10.559960205078125,7.657879829406738,-21.674081802368164,27.92695426940918
1702137429730950400,10.576950439453125,5.280922889709473,-21.42740249633789,27.97771453857422
1702137429747953200,10.593953125,2.7397284507751465,-22.78140640258789,27.24717903137207
1702137429764943000,10.610943115234376,4.021981716156006,-23.807424545288086,25.322765350341797
1702137429781920500,10.62792041015625,8.466283798217773,-22.63324737548828,25.404754638671875
1702137429798916900,10.644916748046874,9.485679626464844,-22.461366653442383,30.518062591552734
1702137429815904800,10.66190478515625,9.400317192077637,-22.011383056640625,34.49981689453125
1702137429832901600,10.678901611328126,6.365384101867676,-20.486534118652344,32.767311096191406
1702137429849893000,10.69589306640625,2.758694887161255,-18.521739959716797,30.658798217773438
1702137429866880000,10.7128798828125,-0.3350098133087158,-17.904748916625977,29.853057861328125
1702137429883875800,10.729875732421876,-0.30760979652404785,-15.812646865844727,29.34311866760254
1702137429900866000,10.746865966796875,1.464320182800293,-13.003717422485352,31.044048309326172
1702137429917855700,10.763855712890624,2.5281546115875244,-9.966236114501953,29.657676696777344
1702137429934848500,10.7808486328125,5.195045471191406,-7.4267354011535645,27.735380172729492
1702137429951837700,10.797837646484375,5.530655860900879,-5.827658653259277,28.941333770751953
1702137429968829200,10.8148291015625,2.582688570022583,-3.2447216510772705,27.085323333740234
1702137429985821700,10.83182177734375,2.3501198291778564,0.4897596836090088,23.108360290527344
1702137430002811100,10.84881103515625,2.946953773498535,2.1403892040252686,24.278900146484375
1702137430019804700,10.8658046875,2.29891300201416,3.774627447128296,24.77486801147461
1702137430036796400,10.88279638671875,-1.6641972064971924,5.207826614379883,23.118946075439453
1702137430053785000,10.89978515625,-4.40787410736084,7.059259414672852,19.222145080566406
1702137430070780200,10.9167802734375,-1.3824071884155273,8.409069061279297,16.469669342041016
1702137430087771400,10.933771484375,1.6621417999267578,7.1603803634643555,17.909500122070312
1702137430104763400,10.950763427734374,1.8038291931152344,6.191912651062012,17.737842559814453
1702137430121752600,10.967752685546875,-1.6608123779296875,5.6441755294799805,15.636837005615234
1702137430138745300,10.984745361328125,-5.282092094421387,5.538865089416504,12.509257316589355
1702137430155744300,11.001744140625,-5.091440200805664,4.74669885635376,9.53490924835205
1702137430172736500,11.018736572265626,-2.1861114501953125,3.0739712715148926,7.8754777908325195
1702137430189736200,11.035736083984375,0.34631121158599854,1.0461108684539795,7.265138626098633
1702137430206719200,11.05271923828125,1.1052939891815186,-0.3890281915664673,5.865549087524414
1702137430223709400,11.06970947265625,0.8182523250579834,-1.2452391386032104,4.3314666748046875
1702137430240711700,11.086711669921876,0.2887020707130432,-1.745295524597168,3.102858543395996
1702137430257691600,11.103691650390624,0.7552986741065979,-2.4115240573883057,2.550686836242676
1702137430274686000,11.12068603515625,1.7551178932189941,-3.087285280227661,2.1266984939575195
1702137430291675100,11.137675048828125,2.7231435775756836,-3.79237961769104,1.2899694442749023
1702137430308668200,11.154668212890625,3.72248911857605,-4.197887897491455,0.2546367645263672
1702137430325658000,11.171658203125,4.346057891845703,-4.3693037033081055,-0.48789310455322266
1702137430342647800,11.188647705078125,4.333063125610352,-4.482758522033691,-0.7194452285766602
1702137430359643400,11.205643310546876,4.0008344650268555,-4.846106052398682,0.36512184143066406
1702137430376633300,11.22263330078125,3.423262119293213,-4.8044023513793945,1.6295948028564453
1702137430393625900,11.2396259765625,2.4516541957855225,-4.412884712219238,1.9583425521850586
1702137430410615800,11.25661572265625,1.9008548259735107,-3.667799949645996,1.0374174118041992
1702137430427609600,11.273609619140625,2.0104801654815674,-3.5796656608581543,-0.08757591247558594
1702137430444599000,11.29059912109375,2.5733089447021484,-3.573760986328125,-0.8414068222045898
1702137430461589500,11.307589599609376,3.4611804485321045,-3.693263292312622,-0.39978694915771484
1702137430478594300,11.32459423828125,3.9721240997314453,-3.744607448577881,0.7472982406616211
1702137430495569700,11.341569580078126,3.980367422103882,-3.5773863792419434,1.1307868957519531
1702137430512556300,11.358556396484374,3.228187322616577,-3.390263557434082,0.5724973678588867
1702137430529555200,11.37555517578125,2.9223177433013916,-2.656099796295166,-1.0130414962768555
1702137430546547000,11.392546875,2.789834499359131,-1.9432307481765747,-1.0093674659729004
1702137430563537400,11.409537353515624,2.6796178817749023,-1.1783483028411865,0.7271022796630859
1702137430580530000,11.426530029296876,2.0624425411224365,-0.5105507373809814,2.1364612579345703
1702137430597521000,11.44352099609375,1.3792343139648438,0.33864879608154297,1.995680809020996
1702137430614502100,11.460502197265624,1.0336368083953857,1.2343006134033203,0.9445085525512695
1702137430631492600,11.47749267578125,0.6599085330963135,2.2361326217651367,0.9882326126098633
1702137430648495600,11.49449560546875,-0.20999360084533691,3.653463840484619,3.327138900756836
1702137430665486000,11.511486083984375,-1.491051197052002,4.232426166534424,8.291409492492676
1702137430682478300,11.528478271484374,-2.024951934814453,4.876731872558594,7.513425827026367
1702137430699468800,11.54546875,-1.3187987804412842,6.4255290031433105,2.7191271781921387
1702137430716451000,11.562451171875,-0.8760442733764648,6.9062933921813965,-0.09141016006469727
1702137430733451800,11.57945166015625,-1.6874823570251465,5.822230815887451,-0.5643153190612793
1702137430750444000,11.596444091796876,-1.5299460887908936,4.978222370147705,-0.9871616363525391
1702137430767434200,11.613434326171875,-1.0583257675170898,3.5833754539489746,-0.7090802192687988
1702137430784427000,11.630427001953125,-0.8044822216033936,1.644763469696045,-1.2933259010314941
1702137430801417500,11.64741748046875,-1.084181308746338,-0.5262279510498047,-3.133559226989746
1702137430818409200,11.6644091796875,-1.2779231071472168,-2.1538004875183105,-5.263767242431641
1702137430835397400,11.6813974609375,-0.32160282135009766,-3.149966239929199,-6.473844528198242
1702137430852395000,11.69839501953125,1.4189908504486084,-3.843445301055908,-7.008171081542969
1702137430869370400,11.715370361328125,2.930691719055176,-4.8845624923706055,-7.1874189376831055
1702137430886374000,11.732373779296875,3.6209421157836914,-5.928840637207031,-6.681586265563965
1702137430903368000,11.749367919921875,4.183689594268799,-6.714256286621094,-5.746023654937744
1702137430920358100,11.766358154296874,4.1673197746276855,-7.536459445953369,-4.679713249206543
1702137430937348600,11.7833486328125,3.5478427410125732,-8.425362586975098,-4.276259899139404
1702137430954337500,11.800337646484374,2.8804519176483154,-9.049792289733887,-4.429152488708496
1702137430971315200,11.817315185546875,2.25219988822937,-9.660846710205078,-4.949196815490723
1702137430988326100,11.834326171875,2.38043475151062,-10.119112968444824,-5.288000106811523
1702137431005314000,11.85131396484375,2.54260516166687,-10.774259567260742,-4.592739105224609
1702137431022305800,11.868305908203125,2.2311809062957764,-11.588996887207031,-2.767940044403076
1702137431039296500,11.885296630859376,0.8646984100341797,-12.749774932861328,-0.935152530670166
1702137431056289300,11.902289306640625,-0.042026519775390625,-13.474653244018555,-0.8623266220092773
1702137431073279700,11.91927978515625,-1.2529102563858032,-13.042177200317383,-2.3894166946411133
1702137431090271500,11.936271484375,-2.917426586151123,-12.800874710083008,-2.378728151321411
1702137431107259600,11.953259765625,-3.948697328567505,-12.58711051940918,0.8851480484008789
1702137431124257300,11.97025732421875,-4.455513000488281,-12.507522583007812,6.002762317657471
1702137431141227800,11.987227783203124,-5.704427242279053,-12.24509048461914,10.956598281860352
1702137431158234400,12.004234375,-7.366357326507568,-11.80064868927002,12.274559020996094
1702137431175230500,12.02123046875,-7.207563400268555,-10.563423156738281,11.736918449401855
1702137431192220200,12.03822021484375,-5.917385101318359,-9.670973777770996,13.373350143432617
1702137431209211000,12.0552109375,-6.099035263061523,-8.58697509765625,18.17350196838379
1702137431226192100,12.072192138671875,-10.04976749420166,-6.722875595092773,21.450456619262695
1702137431243193300,12.089193359375,-13.369967460632324,-6.536269187927246,24.30626678466797
1702137431260185900,12.106185791015625,-11.415116310119629,-5.869353294372559,25.258047103881836
1702137431277176600,12.123176513671876,-6.195180892944336,-4.45214319229126,26.042644500732422
1702137431294157800,12.14015771484375,-3.485344886779785,-3.0502302646636963,28.420459747314453
1702137431311163600,12.15716357421875,-3.7292633056640625,-2.535220146179199,30.80313491821289
1702137431328153900,12.17415380859375,-5.168662071228027,-2.3788692951202393,32.603336334228516
1702137431345139500,12.191139404296875,-4.104951858520508,-3.303398609161377,34.91646194458008
1702137431362136300,12.20813623046875,-0.12838459014892578,-5.638599395751953,35.57713317871094
1702137431379118000,12.2251181640625,6.278505325317383,-9.238886833190918,34.354736328125
1702137431396114400,12.242114501953125,11.601136207580566,-12.232929229736328,31.650741577148438
1702137431413110000,12.259110107421876,13.478145599365234,-14.799657821655273,28.94219970703125
1702137431430099500,12.276099365234375,12.997747421264648,-16.140295028686523,26.072528839111328
1702137431447089000,12.2930888671875,12.051610946655273,-16.77371597290039,23.73794174194336
1702137431464083700,12.310083740234376,12.339151382446289,-17.607421875,22.883846282958984
1702137431481073200,12.3270732421875,13.50848388671875,-17.546871185302734,21.64469337463379
1702137431498065000,12.34406494140625,12.405664443969727,-17.346881866455078,20.382749557495117
1702137431515050200,12.36105029296875,11.171401023864746,-16.338722229003906,18.936965942382812
1702137431532045600,12.378045654296875,10.547750473022461,-15.911661148071289,18.752355575561523
1702137431549041000,12.395041015625,10.567192077636719,-14.735757827758789,17.86056900024414
1702137431566030300,12.4120302734375,9.629976272583008,-12.880695343017578,16.4521541595459
1702137431583020000,12.42902001953125,8.242696762084961,-11.01195240020752,14.005611419677734
1702137431600025000,12.446025146484375,8.68657398223877,-9.033605575561523,11.00669002532959
1702137431617004300,12.46300439453125,8.825916290283203,-8.872096061706543,9.388103485107422
1702137431633996000,12.47999609375,8.337987899780273,-8.053473472595215,5.9722771644592285
1702137431650986800,12.49698681640625,7.591951370239258,-9.16089153289795,4.693190574645996
1702137431667979000,12.51397900390625,7.128077030181885,-9.432973861694336,5.06187629699707
1702137431684970000,12.530969970703126,6.9678778648376465,-9.716484069824219,8.492573738098145
1702137431701961500,12.54796142578125,5.642012119293213,-9.06029224395752,12.517181396484375
1702137431718952200,12.5649521484375,3.034452438354492,-8.156784057617188,16.77349853515625
1702137431735944700,12.58194482421875,-0.12313441187143326,-7.851365089416504,19.249496459960938
1702137431752935200,12.59893505859375,-1.2421663999557495,-8.112997055053711,20.545974731445312
1702137431769927400,12.615927490234375,-0.21041321754455566,-8.990522384643555,21.011272430419922
1702137431786917400,12.63291748046875,2.687462091445923,-9.445782661437988,20.626441955566406
1702137431803919000,12.649919189453126,4.256216049194336,-8.894603729248047,20.074888229370117
1702137431820898300,12.666898193359375,3.1526317596435547,-8.70270824432373,19.716514587402344
1702137431837895200,12.683895263671875,0.9987671375274658,-8.893083572387695,18.785057067871094
1702137431854883300,12.70088330078125,0.1550588607788086,-9.431901931762695,18.000267028808594
1702137431871875800,12.717875732421875,0.9933943748474121,-10.423185348510742,16.972904205322266
1702137431888855800,12.734855712890624,2.3716111183166504,-11.997625350952148,15.765765190124512
1702137431905858300,12.7518583984375,3.7013676166534424,-14.098733901977539,14.28519058227539
1702137431922848800,12.768848876953125,4.567911148071289,-14.89091682434082,13.404799461364746
1702137431939841300,12.78584130859375,5.893279552459717,-14.380341529846191,17.593162536621094
1702137431956832300,12.802832275390625,3.7466881275177,-13.460819244384766,23.811023712158203
1702137431973810700,12.819810791015625,-4.490063667297363,-14.04762077331543,21.43438720703125
1702137431990804200,12.83680419921875,-7.988292694091797,-15.548528671264648,11.767753601074219
1702137432007809000,12.85380908203125,1.5545330047607422,-19.50933837890625,12.65423583984375
1702137432024797400,12.87079736328125,9.866657257080078,-19.250221252441406,19.9521484375
1702137432041789400,12.88778955078125,9.002304077148438,-17.969730377197266,27.23240089416504
1702137432058780200,12.9047802734375,2.5812811851501465,-16.465234756469727,27.900909423828125
1702137432075762000,12.921761962890624,-1.4867112636566162,-15.933328628540039,33.32643127441406
1702137432092760600,12.938760498046875,1.7381343841552734,-13.394834518432617,43.29737091064453
1702137432109757200,12.955757080078126,4.765970230102539,-8.667491912841797,51.773956298828125
1702137432126745600,12.97274560546875,0.9505720138549805,-5.184709548950195,50.502071380615234
1702137432143738000,12.989738037109374,-3.8846755027770996,-4.0993123054504395,48.3991813659668
1702137432160728600,13.006728515625,-5.378292560577393,-5.822280406951904,52.9736328125
1702137432177720300,13.02372021484375,1.051462173461914,-7.673867225646973,58.223506927490234
1702137432194711300,13.040711181640624,9.33238410949707,-7.587047576904297,61.35594940185547
1702137432211703600,13.05770361328125,10.638897895812988,-6.339700222015381,58.65378952026367
1702137432228694300,13.0746943359375,8.084101676940918,-7.062753677368164,54.28504943847656
1702137432245685800,13.091685791015625,7.810253143310547,-8.602975845336914,52.6361198425293
1702137432262672000,13.108671875,9.247434616088867,-10.16740894317627,51.18659210205078
1702137432279676200,13.12567626953125,10.600835800170898,-14.986276626586914,50.171783447265625
1702137432296662300,13.142662353515625,14.486444473266602,-21.65582275390625,48.43707275390625
1702137432313640700,13.159640625,17.799686431884766,-25.678279876708984,43.62422561645508
1702137432330642200,13.17664208984375,17.69236946105957,-28.524625778198242,36.635318756103516
1702137432347634400,13.193634521484375,15.593777656555176,-29.35649871826172,28.333087921142578
1702137432364625200,13.210625244140624,13.286272048950195,-27.65390396118164,22.91566276550293
1702137432381617000,13.227616943359376,11.097244262695312,-26.230762481689453,20.83314323425293
1702137432398597000,13.24459716796875,7.6881818771362305,-24.161376953125,19.298057556152344
1702137432415600000,13.26160009765625,2.7818222045898438,-22.788389205932617,16.688785552978516
1702137432432590600,13.278590576171876,0.8976569175720215,-20.461164474487305,12.212750434875488
1702137432449590800,13.2955908203125,1.5425944328308105,-18.119157791137695,9.636560440063477
1702137432466573000,13.312572998046875,2.791966438293457,-15.834846496582031,10.691399574279785
1702137432483565600,13.329565673828125,3.5927491188049316,-14.847217559814453,10.4365234375
1702137432500556300,13.346556396484376,4.351273536682129,-11.172045707702637,7.6545515060424805
1702137432517548300,13.36354833984375,0.9445171356201172,-10.451369285583496,9.587357521057129
1702137432534528300,13.3805283203125,-1.3025176525115967,-11.076333999633789,13.28068733215332
1702137432551520800,13.397520751953126,-1.1153337955474854,-11.443726539611816,14.15266227722168
1702137432568522200,13.414522216796875,-0.497173547744751,-13.158283233642578,15.209226608276367
1702137432585513500,13.431513427734375,1.7889306545257568,-14.197389602661133,14.495758056640625
1702137432602504400,13.44850439453125,2.9884278774261475,-15.541179656982422,14.161828994750977
1702137432619496400,13.465496337890626,3.893190383911133,-17.776126861572266,16.009716033935547
1702137432636487400,13.4824873046875,5.2603888511657715,-19.37198257446289,17.73565673828125
1702137432653470200,13.49947021484375,6.409517765045166,-21.65386199951172,20.502422332763672
1702137432670469600,13.5164697265625,6.7689208984375,-24.39667510986328,23.670833587646484
1702137432687457800,13.533457763671874,7.477260589599609,-26.097579956054688,27.794462203979492
1702137432704452600,13.55045263671875,6.821261882781982,-27.06521224975586,32.839229583740234
1702137432721434400,13.567434326171876,5.29355001449585,-25.901874542236328,32.74790954589844
1702137432738432800,13.584432861328125,3.8502988815307617,-24.068138122558594,30.599605560302734
1702137432755430100,13.60143017578125,2.2613701820373535,-26.076519012451172,29.086029052734375
1702137432772418300,13.618418212890624,2.9908740520477295,-26.47565460205078,27.962970733642578
1702137432789407700,13.63540771484375,4.730032444000244,-24.325288772583008,30.8786563873291
1702137432806403000,13.652403076171876,3.2768445014953613,-22.139198303222656,38.726905822753906
1702137432823393300,13.669393310546875,0.9128614664077759,-21.839614868164062,39.717979431152344
1702137432840383700,13.6863837890625,1.3146841526031494,-16.84169578552246,30.473358154296875
1702137432857375700,13.703375732421875,1.2534186840057373,-15.894290924072266,30.63022232055664
1702137432874363600,13.72036376953125,1.1607587337493896,-14.056146621704102,33.11497116088867
1702137432891364000,13.737364013671876,0.9700943231582642,-11.599241256713867,34.39178466796875
1702137432908349400,13.754349365234376,0.3147156238555908,-5.891308784484863,32.32899475097656
1702137432925336600,13.771336669921874,1.8296072483062744,-3.8633382320404053,31.536895751953125
1702137432942336500,13.78833642578125,3.5977766513824463,-1.8178426027297974,30.122634887695312
1702137432959324400,13.805324462890624,4.181055068969727,0.1574854850769043,27.358564376831055
1702137432976315000,13.82231494140625,3.9830851554870605,3.0594725608825684,23.14847183227539
1702137432993306600,13.839306640625,3.1829283237457275,4.4595746994018555,21.90021324157715
1702137433010296600,13.856296630859376,3.568067789077759,5.298070907592773,20.722620010375977
1702137433027288300,13.873288330078125,2.808563470840454,5.696249961853027,20.385101318359375
1702137433044280600,13.890280517578125,2.2949600219726562,7.034409523010254,17.837512969970703
1702137433061272300,13.907272216796875,2.9531142711639404,7.241465091705322,14.94163703918457
1702137433078265300,13.924265380859374,5.244964599609375,6.953874111175537,12.861720085144043
1702137433095255300,13.94125537109375,6.96419620513916,6.147005081176758,11.540006637573242
1702137433112246000,13.95824609375,6.591086387634277,5.171734809875488,9.926169395446777
1702137433129234000,13.97523388671875,4.49111270904541,4.035904884338379,8.234580993652344
1702137433146222000,13.99222216796875,2.8494327068328857,2.7315707206726074,6.802462577819824
1702137433163218400,14.009218505859375,2.0141489505767822,1.6273541450500488,5.491279602050781
1702137433180214000,14.026214111328125,2.0544071197509766,0.5333760976791382,4.442582130432129
1702137433197203700,14.04320361328125,2.566216468811035,-0.5280879735946655,3.3719959259033203
1702137433214181400,14.060181396484374,2.70753812789917,-1.3760168552398682,2.111884117126465
1702137433231178200,14.07717822265625,1.618039846420288,-2.225252866744995,1.3018007278442383
1702137433248177200,14.09417724609375,0.4197823405265808,-3.2725958824157715,0.9850072860717773
1702137433265169200,14.111169189453125,0.28255411982536316,-3.7744827270507812,1.171483039855957
1702137433282157300,14.1281572265625,0.941084086894989,-4.0365424156188965,1.297933578491211
1702137433299142100,14.14514208984375,1.5489161014556885,-4.307109832763672,0.9357748031616211
1702137433316133000,14.162133056640625,2.526820182800293,-4.664732933044434,0.4887809753417969
1702137433333124400,14.179124267578125,3.569852352142334,-4.928833484649658,0.09129810333251953
1702137433350116400,14.196116455078124,3.7479443550109863,-4.920794486999512,-0.22569847106933594
1702137433367106800,14.21310693359375,1.3410643339157104,-4.079455852508545,-0.5788993835449219
1702137433384098800,14.230098876953125,-0.6918680667877197,-4.265267372131348,-0.23682212829589844
1702137433401091800,14.247091796875,-0.4609863758087158,-4.2262372970581055,0.3529052734375
1702137433418082600,14.26408251953125,2.8777575492858887,-3.8382911682128906,0.965937614440918
1702137433435073000,14.281072998046875,4.882712364196777,-3.5865654945373535,1.4158811569213867
1702137433452064300,14.298064208984375,5.377811908721924,-2.9854660034179688,0.7079706192016602
1702137433469056300,14.31505615234375,3.1278247833251953,-2.527233123779297,0.4645557403564453
1702137433486046500,14.33204638671875,1.009948492050171,-2.639558792114258,0.7708559036254883
1702137433503038500,14.34903857421875,1.7225360870361328,-2.11564302444458,1.9736442565917969
1702137433520034000,14.366033935546875,3.4369096755981445,-1.719528317451477,4.123638153076172
1702137433537021200,14.383021240234376,4.3873162269592285,-1.0418543815612793,5.647072792053223
1702137433554012000,14.400011962890625,3.0845961570739746,-0.4421200752258301,4.248125076293945
1702137433571001600,14.417001708984374,0.17877793312072754,-0.3403911590576172,2.462064266204834
1702137433587997200,14.4339970703125,-0.7970900535583496,-0.09509563446044922,3.2964987754821777
1702137433604986000,14.450986083984375,-0.09220433235168457,0.10477352142333984,5.398641109466553
1702137433621977900,14.467977783203125,1.0700877904891968,0.30945920944213867,6.773524761199951
1702137433638972400,14.484972412109375,1.4732495546340942,1.2502760887145996,4.778698921203613
1702137433655960300,14.501960205078126,0.050029754638671875,1.7668657302856445,2.200316905975342
1702137433672964400,14.51896435546875,-1.3854870796203613,1.64607572555542,0.8877248764038086
1702137433689950000,14.535949951171874,-1.3661587238311768,1.1382107734680176,0.02372598648071289
1702137433706947000,14.552947021484375,-0.35926389694213867,0.2764744758605957,-1.086742877960205
1702137433723938600,14.5699384765625,0.5868092775344849,-0.8170895576477051,-2.3127081394195557
1702137433740927500,14.586927490234375,1.0655360221862793,-2.0819106101989746,-3.0684447288513184
1702137433757910000,14.603909912109375,1.6552245616912842,-3.2529215812683105,-3.8784546852111816
1702137433774911000,14.620910888671874,1.72136652469635,-4.228187084197998,-4.987898349761963
1702137433791901200,14.637901123046875,1.4643181562423706,-4.723102569580078,-6.131916522979736
1702137433808882700,14.654882568359374,0.8065822124481201,-5.443344593048096,-6.634311676025391
1702137433825884200,14.67188427734375,0.7054741382598877,-6.455267429351807,-6.65349817276001
1702137433842876200,14.688876220703126,1.092578649520874,-7.163228511810303,-6.684210777282715
1702137433859866600,14.70586669921875,1.416347861289978,-7.828873157501221,-6.6252217292785645
1702137433876858600,14.722858642578124,1.740410327911377,-8.366914749145508,-6.555617332458496
1702137433893842200,14.73984228515625,1.8256127834320068,-8.985932350158691,-6.545496940612793
1702137433910839300,14.75683935546875,1.9039032459259033,-9.513422012329102,-6.5415449142456055
1702137433927835000,14.7738349609375,1.6177759170532227,-10.041926383972168,-6.328906059265137
1702137433944824600,14.790824462890624,0.857607364654541,-10.68942642211914,-5.52415657043457
1702137433961816300,14.80781640625,0.302997350692749,-11.520329475402832,-4.466944217681885
1702137433978805800,14.8248056640625,0.16943204402923584,-12.343764305114746,-3.15584135055542
1702137433995797800,14.8417978515625,-0.6238754987716675,-13.080022811889648,-1.788558006286621
1702137434012789800,14.858789794921876,-1.6881802082061768,-13.667057991027832,-0.41775941848754883
1702137434029771500,14.875771484375,-3.139683246612549,-13.991541862487793,1.3567919731140137
1702137434046770200,14.892770263671874,-4.27133846282959,-14.274473190307617,4.45931339263916
1702137434063766300,14.909766357421875,-4.381059646606445,-13.704235076904297,7.921947956085205
1702137434080755200,14.926755126953125,-5.088595390319824,-12.276996612548828,11.347097396850586
1702137434097746200,14.94374609375,-6.678055286407471,-10.421687126159668,13.372493743896484
1702137434114733300,14.9607333984375,-8.66894245147705,-9.608177185058594,13.713631629943848
1702137434131729000,14.97772900390625,-9.165657043457031,-9.500309944152832,13.968443870544434
1702137434148721000,14.994720947265625,-8.353357315063477,-9.417973518371582,15.868402481079102
1702137434165707000,15.01170703125,-6.845067501068115,-8.143026351928711,18.443099975585938
1702137434182701600,15.02870166015625,-6.3745198249816895,-6.466193199157715,21.90062141418457
1702137434199696600,15.045696533203126,-9.11097526550293,-5.752626419067383,25.449554443359375
1702137434216686000,15.06268603515625,-9.213698387145996,-6.398615837097168,27.183849334716797
1702137434233662700,15.079662841796875,-4.675325393676758,-6.943429946899414,28.119335174560547
1702137434250673400,15.09667333984375,-0.506176233291626,-6.688950538635254,29.485591888427734
1702137434267659800,15.11365966796875,0.20610105991363525,-6.485118389129639,30.861473083496094
1702137434284655000,15.130655029296875,1.605506420135498,-7.239431381225586,31.733360290527344
1702137434301639400,15.147639404296875,5.88865852355957,-8.127519607543945,31.494346618652344
1702137434318635000,15.164635009765625,9.707222938537598,-8.58158016204834,29.687829971313477
1702137434335623000,15.181622802734376,12.219051361083984,-8.771564483642578,27.029123306274414
1702137434352620000,15.1986201171875,12.837714195251465,-9.37386703491211,25.294910430908203
1702137434369608200,15.215608154296875,11.809564590454102,-10.559782028198242,24.277999877929688
1702137434386600400,15.232600341796875,9.960938453674316,-12.19675064086914,23.744976043701172
1702137434403591000,15.2495908203125,8.89509105682373,-14.068751335144043,21.585739135742188
1702137434420583000,15.2665830078125,10.435853004455566,-15.610922813415527,19.405956268310547
1702137434437573400,15.283573486328125,12.180130004882812,-15.783180236816406,18.712427139282227
1702137434454560000,15.30056005859375,11.98550796508789,-15.335716247558594,18.779144287109375
1702137434471543600,15.31754345703125,10.430279731750488,-14.158563613891602,17.822782516479492
1702137434488551000,15.334551025390626,7.2492852210998535,-12.428323745727539,17.769987106323242
1702137434505538800,15.351538818359375,4.13795804977417,-11.794061660766602,17.510589599609375
1702137434522531600,15.368531494140624,4.734036445617676,-11.357390403747559,16.416770935058594
1702137434539522000,15.38552197265625,8.23663330078125,-9.825263977050781,13.03306770324707
1702137434556514000,15.40251416015625,12.288333892822266,-10.937854766845703,10.710931777954102
1702137434573503200,15.419503173828126,13.298271179199219,-10.082077980041504,7.6978936195373535
1702137434590486300,15.436486328125,9.794973373413086,-10.260103225708008,7.893105983734131
1702137434607487700,15.45348779296875,6.426999568939209,-10.923030853271484,9.30065631866455
1702137434624479200,15.470479248046875,5.321923732757568,-10.654501914978027,10.588532447814941
1702137434641469700,15.4874697265625,4.217205047607422,-10.01105785369873,12.718648910522461
1702137434658459600,15.504459716796875,1.5643028020858765,-8.590417861938477,15.264486312866211
1702137434675455700,15.521455810546875,-3.091372013092041,-7.071200847625732,16.61221694946289
1702137434692445000,15.53844482421875,-6.913087844848633,-6.598031044006348,17.218950271606445
1702137434709433300,15.555433349609375,-6.574524402618408,-6.715839385986328,17.438053131103516
1702137434726420000,15.572419921875,-3.4496006965637207,-7.178879737854004,19.222095489501953
1702137434743417300,15.589417236328124,-0.9987304210662842,-7.416877269744873,21.25710678100586
1702137434760412000,15.606411865234374,-0.6438158750534058,-6.440467357635498,20.959766387939453
1702137434777401000,15.623401123046875,-1.9751349687576294,-5.22092342376709,18.112342834472656
1702137434794393600,15.6403935546875,-4.1372270584106445,-4.799888610839844,15.290281295776367
1702137434811379500,15.65737939453125,-4.783099174499512,-6.22735071182251,13.775440216064453
1702137434828376000,15.6743759765625,-3.1916937828063965,-8.666398048400879,13.191483497619629
1702137434845366800,15.69136669921875,-0.7191882133483887,-11.123743057250977,14.722635269165039
1702137434862348300,15.708348388671874,2.5895304679870605,-10.169113159179688,15.125131607055664
1702137434879349800,15.725349853515626,1.7963218688964844,-9.371698379516602,14.791897773742676
1702137434896341500,15.742341552734375,-2.188880443572998,-8.897516250610352,12.97677993774414
1702137434913342500,15.759342529296875,-4.354599952697754,-10.354333877563477,11.416133880615234
1702137434930314200,15.776314208984376,-1.6101059913635254,-13.658804893493652,11.98243236541748
1702137434947312400,15.7933125,3.3884849548339844,-16.026060104370117,14.633042335510254
1702137434964309800,15.810309814453126,9.31704330444336,-14.385168075561523,17.324796676635742
1702137434981298000,15.8272978515625,10.73051929473877,-10.810762405395508,19.28736686706543
1702137434998276900,15.84427685546875,4.570923805236816,-9.21912670135498,19.67920684814453
1702137435015280600,15.86128076171875,-3.3306527137756348,-9.999289512634277,25.696826934814453
1702137435032272600,15.878272705078125,-2.1203107833862305,-10.63117504119873,31.28993034362793
1702137435049250300,15.895250244140625,5.273172378540039,-6.720831871032715,35.11915969848633
1702137435066258000,15.9122578125,5.910751819610596,-4.283968925476074,37.54578399658203
1702137435083241700,15.92924169921875,-1.6771769523620605,-2.9920921325683594,34.57448959350586
1702137435100227600,15.9462275390625,-8.640856742858887,-2.001631021499634,33.535316467285156
1702137435117231000,15.963231201171874,-12.087359428405762,-2.4086413383483887,40.77806854248047
1702137435134218800,15.98021875,-11.64918041229248,-5.3667707443237305,52.13363265991211
1702137435151201300,15.997201171875,-2.483905792236328,-9.321433067321777,54.72172164916992
1702137435168194000,16.014194091796874,7.463208198547363,-11.19715690612793,50.540306091308594
1702137435185186300,16.031186279296875,10.922390937805176,-11.357927322387695,46.15110778808594
1702137435202186800,16.048186767578127,11.08055305480957,-10.017207145690918,44.57740020751953
1702137435219177200,16.06517724609375,7.7732977867126465,-9.800336837768555,47.51652145385742
1702137435236169000,16.0821689453125,5.104249000549316,-12.345094680786133,47.24923324584961
1702137435253157000,16.0991572265625,5.9193620681762695,-18.707061767578125,46.99188232421875
1702137435270154500,16.116154541015625,11.180049896240234,-26.137710571289062,44.49297332763672
1702137435287146000,16.13314599609375,16.04538917541504,-30.52764129638672,33.858863830566406
1702137435304131300,16.15013134765625,17.208770751953125,-30.308263778686523,23.369712829589844
1702137435321125000,16.167125,15.323960304260254,-27.743417739868164,18.256940841674805
1702137435338112500,16.184112548828125,11.373152732849121,-24.38422393798828,17.59549903869629
1702137435355105500,16.20110546875,6.115751266479492,-21.82013702392578,17.672128677368164
1702137435372102700,16.2181025390625,1.4989633560180664,-21.744314193725586,13.038079261779785
1702137435389090600,16.235090576171874,1.9116954803466797,-22.31861114501953,6.34454870223999
1702137435406083000,16.2520830078125,4.31687068939209,-19.387977600097656,4.817768573760986
1702137435423073500,16.269073486328125,4.715229034423828,-16.308622360229492,10.128254890441895
1702137435440065300,16.286065185546875,4.571247100830078,-14.695338249206543,14.824716567993164
1702137435457056300,16.30305615234375,5.216951370239258,-14.28443717956543,12.845870971679688
1702137435474049800,16.3200498046875,5.339075565338135,-13.173803329467773,9.872074127197266
1702137435491039200,16.337039306640627,6.247558116912842,-11.876462936401367,11.894433975219727
1702137435508034300,16.354034423828125,8.334633827209473,-10.204258918762207,18.017244338989258
1702137435525018000,16.37101806640625,8.37108039855957,-9.301435470581055,25.48667335510254
1702137435542014000,16.388013916015623,7.908707618713379,-10.238615036010742,28.515443801879883
1702137435559004700,16.405004638671876,9.563863754272461,-9.671299934387207,25.499713897705078
1702137435575986000,16.42198583984375,8.1172456741333,-10.96617603302002,24.912023544311523
1702137435592983800,16.43898388671875,4.032296180725098,-12.86058521270752,32.2337646484375
1702137435609983000,16.45598291015625,2.7098207473754883,-13.211101531982422,41.70984649658203
1702137435626972000,16.472971923828126,2.9160141944885254,-12.030961036682129,42.9324951171875
1702137435643960300,16.489960205078123,3.373122453689575,-11.412113189697266,36.870704650878906
1702137435660950000,16.506949951171876,3.6643753051757812,-13.318864822387695,33.40465545654297
1702137435677947000,16.52394677734375,2.8041324615478516,-18.1146240234375,34.162620544433594
1702137435694936300,16.540936279296876,4.248960971832275,-20.951934814453125,39.66106414794922
1702137435711938300,16.557938232421876,7.666996955871582,-18.630752563476562,45.93434143066406
1702137435728917800,16.574917724609374,9.405372619628906,-15.778717994689941,47.031593322753906
1702137435745911300,16.591911376953124,10.390368461608887,-15.592382431030273,42.94121551513672
1702137435762900500,16.608900390625,11.934943199157715,-15.566665649414062,38.786163330078125
1702137435779893200,16.625893310546875,10.519197463989258,-14.445253372192383,40.91549301147461
1702137435796883700,16.6428837890625,6.490615367889404,-12.335653305053711,45.174232482910156
1702137435813865700,16.65986572265625,1.8679040670394897,-9.769800186157227,41.42829513549805
1702137435830866700,16.67686669921875,2.398463726043701,-8.043137550354004,35.44841003417969
1702137435847858400,16.6938583984375,4.890926361083984,-5.294208526611328,32.95906066894531
1702137435864849200,16.71084912109375,4.220728874206543,-3.314211368560791,31.15462875366211
1702137435881841700,16.727841552734375,0.757287859916687,-0.0976877212524414,30.449146270751953
1702137435898832100,16.74483203125,-4.138171195983887,2.1959574222564697,30.934799194335938
1702137435915824000,16.76182421875,-6.193929672241211,4.930527687072754,30.000160217285156
1702137435932813800,16.778813720703123,-4.270600318908691,5.504254341125488,25.437191009521484
1702137435949807600,16.7958076171875,0.8380445241928101,6.597598075866699,20.642757415771484
1702137435966797600,16.812797607421874,4.4188385009765625,6.980007171630859,19.584190368652344
1702137435983789300,16.829789306640624,3.9430530071258545,7.312966346740723,17.197368621826172
1702137436000769500,16.84676953125,0.3856014907360077,7.774144649505615,16.33591651916504
1702137436017772500,16.8637724609375,-3.4091908931732178,7.148828029632568,14.711885452270508
1702137436034763000,16.880762939453124,-3.6766700744628906,7.032726764678955,11.982458114624023
1702137436051754800,16.897754638671874,-1.4699468612670898,6.188044548034668,10.013663291931152
1702137436068745500,16.914745361328126,1.5677711963653564,5.953585624694824,8.270990371704102
1702137436085738200,16.93173828125,3.2221574783325195,4.6932454109191895,7.708168983459473
1702137436102714400,16.94871435546875,3.3658084869384766,3.401602268218994,8.011858940124512
1702137436119715800,16.9657158203125,1.5324510335922241,2.631399631500244,7.117902755737305
1702137436136715800,16.9827158203125,-0.33241021633148193,1.9460089206695557,5.565316200256348
1702137436153693200,16.999693115234376,-0.9660513401031494,1.208484172821045,4.27318000793457
1702137436170691000,17.016691162109375,0.07487380504608154,0.2996188998222351,3.476435661315918
1702137436187689200,17.033689208984374,1.5237723588943481,-0.9528310298919678,2.8421411514282227
1702137436204676400,17.05067626953125,2.5725581645965576,-1.8027703762054443,2.263517379760742
1702137436221668900,17.0676689453125,2.829080820083618,-2.5678606033325195,2.297403335571289
1702137436238652700,17.084652587890623,2.6708083152770996,-2.797943353652954,1.5679140090942383
1702137436255651600,17.101651611328126,2.3847758769989014,-3.0932860374450684,0.5154924392700195
1702137436272642000,17.11864208984375,1.741344928741455,-3.384119749069214,-0.3888826370239258
1702137436289641500,17.135641357421875,1.6387521028518677,-3.4066972732543945,-1.280228614807129
1702137436306624500,17.15262451171875,2.444746732711792,-3.390735149383545,-1.4236984252929688
1702137436323616800,17.16961669921875,3.485797882080078,-3.0058460235595703,-0.8756685256958008
1702137436340607700,17.186607666015625,3.5937929153442383,-2.7776718139648438,-0.43816471099853516
1702137436357600000,17.20360009765625,3.1687052249908447,-2.5229640007019043,-0.26833438873291016
1702137436374580000,17.220580078125,2.872159004211426,-2.1727066040039062,0.10473823547363281
1702137436391586000,17.2375859375,2.8932993412017822,-1.7298402786254883,0.5349283218383789
1702137436408573000,17.254572998046875,3.000394582748413,-1.2721412181854248,0.5819759368896484
1702137436425565200,17.271565185546876,3.952012062072754,-0.9832369685173035,1.1092586517333984
1702137436442556200,17.28855615234375,4.249220371246338,-1.0102649927139282,1.7537317276000977
1702137436459548000,17.3055478515625,4.425589084625244,-1.1943424940109253,2.7919492721557617
1702137436476538400,17.322538330078125,4.38557243347168,-1.3175081014633179,2.7040176391601562
1702137436493521000,17.33952099609375,4.37353515625,-1.5473486185073853,1.8916435241699219
1702137436510521300,17.356521240234375,4.730196952819824,-1.654349684715271,1.5768003463745117
1702137436527513600,17.373513671875,4.827733993530273,-1.379300832748413,2.2049875259399414
1702137436544504000,17.390504150390626,4.067671298980713,-1.4494937658309937,4.440505504608154
1702137436561496600,17.40749658203125,3.1981894969940186,-1.0399949550628662,5.23402738571167
1702137436578487300,17.4244873046875,2.2650482654571533,-0.32802605628967285,3.926881790161133
1702137436595478500,17.441478515625,0.6998553276062012,0.44541096687316895,2.911562442779541
1702137436612467500,17.458467529296875,-0.7726259231567383,1.2151193618774414,2.0435328483581543
1702137436629472000,17.475471923828124,-0.6420350074768066,1.6977858543395996,2.066096305847168
1702137436646452500,17.492452392578127,1.329482078552246,2.5451760292053223,3.7384018898010254
1702137436663446800,17.50944677734375,4.338486194610596,4.109719753265381,3.912720203399658
1702137436680432000,17.52643212890625,4.334483623504639,6.126956462860107,1.2221617698669434
1702137436697430300,17.54343017578125,-0.49031782150268555,6.395516395568848,-0.23795747756958008
1702137436714405400,17.5604052734375,-4.377129554748535,5.84629487991333,-0.658111572265625
1702137436731407000,17.577406982421873,-4.584610939025879,4.64231538772583,-0.6725187301635742
1702137436748400400,17.594400390625,-2.0944278240203857,3.0516629219055176,-0.9706439971923828
1702137436765382100,17.611382080078126,0.3808467388153076,1.1965751647949219,-1.896653413772583
1702137436782373000,17.628373046875,1.7130941152572632,-0.6927413940429688,-2.7775416374206543
1702137436799362600,17.645362548828125,2.2166199684143066,-2.5037107467651367,-3.674072742462158
1702137436816357000,17.662357177734375,2.2329001426696777,-3.8990368843078613,-4.692941665649414
1702137436833349000,17.67934912109375,1.9235950708389282,-4.961606979370117,-5.549038887023926
1702137436850339000,17.696339111328125,1.77350652217865,-5.8842973709106445,-5.919000625610352
1702137436867330600,17.71333056640625,2.0489401817321777,-6.597912788391113,-5.933480262756348
1702137436884323800,17.73032373046875,2.4028282165527344,-7.086191654205322,-5.959710121154785
1702137436901316600,17.747316650390626,2.729191541671753,-7.557619571685791,-5.873254776000977
1702137436918304000,17.764303955078127,3.059833526611328,-8.146718978881836,-5.529298782348633
1702137436935296500,17.781296630859377,3.5607593059539795,-8.52782917022705,-5.185164928436279
1702137436952288300,17.798288330078126,3.982898712158203,-8.932319641113281,-4.842138767242432
1702137436969279700,17.81527978515625,4.312552452087402,-9.275270462036133,-4.484500885009766
1702137436986270200,17.832270263671877,4.37178897857666,-9.598484992980957,-4.210436820983887
1702137437003261700,17.84926171875,4.409569263458252,-9.988018035888672,-3.874199628829956
1702137437020252400,17.86625244140625,4.5079522132873535,-10.310378074645996,-3.305309772491455
1702137437037247000,17.8832470703125,3.9077258110046387,-10.636968612670898,-2.3691654205322266
1702137437054236200,17.900236083984375,2.470705270767212,-10.597376823425293,-1.190037488937378
1702137437071220200,17.91722021484375,0.7009925842285156,-10.714869499206543,-0.4461040496826172
1702137437088219600,17.9342197265625,0.18657708168029785,-10.817825317382812,0.23638057708740234
1702137437105213700,17.951213623046876,0.05981040000915527,-10.621368408203125,0.9660625457763672
1702137437122203100,17.968203125,-0.6857578754425049,-10.236518859863281,2.017723560333252
1702137437139192800,17.98519287109375,-2.6399457454681396,-9.823748588562012,3.7203574180603027
1702137437156187100,18.002187255859376,-4.48200798034668,-9.984964370727539,6.615809917449951
1702137437173185800,18.019185791015627,-5.5765557289123535,-10.297554969787598,9.593936920166016
1702137437190176500,18.036176513671876,-6.721819877624512,-10.941268920898438,12.788253784179688
1702137437207165400,18.05316552734375,-7.908671855926514,-11.32363510131836,14.955706596374512
1702137437224161800,18.070161865234375,-8.059610366821289,-11.20651912689209,16.60390853881836
1702137437241151200,18.087151123046876,-7.983763694763184,-10.96131420135498,19.478038787841797
1702137437258131200,18.104131103515623,-9.228062629699707,-10.383748054504395,22.295682907104492
1702137437275136300,18.12113623046875,-10.4678373336792,-9.611007690429688,23.985515594482422
1702137437292122400,18.138122314453124,-9.612380981445312,-8.54521369934082,25.91720962524414
1702137437309116700,18.15511669921875,-8.19179916381836,-7.737630844116211,28.359394073486328
1702137437326106000,18.172106201171875,-6.463033199310303,-6.57318115234375,30.46300506591797
1702137437343100400,18.189100341796873,-4.318848133087158,-5.684558868408203,32.92877197265625
1702137437360095700,18.206095703125,-1.6846003532409668,-4.713022232055664,33.161376953125
1702137437377082400,18.223082275390624,0.9167847633361816,-4.547523021697998,30.218570709228516
1702137437394062300,18.240062255859375,4.219620227813721,-6.027093887329102,27.750123977661133
1702137437411064800,18.25706494140625,7.8182268142700195,-7.861422538757324,27.227237701416016
1702137437428055600,18.2740556640625,9.795928955078125,-9.509366989135742,27.858192443847656
1702137437445047800,18.2910478515625,9.483652114868164,-11.48060417175293,28.219911575317383
1702137437462035500,18.308035400390626,9.310182571411133,-14.18690299987793,28.006629943847656
1702137437479033900,18.325033935546877,10.975334167480469,-16.397891998291016,26.894540786743164
1702137437496019700,18.342019775390625,13.127485275268555,-18.002674102783203,25.501840591430664
1702137437513013500,18.359013427734375,13.167144775390625,-16.850521087646484,24.2773494720459
1702137437530004000,18.37600390625,12.043156623840332,-14.867141723632812,22.705150604248047
1702137437546985000,18.39298486328125,11.304947853088379,-11.626136779785156,22.10348892211914
1702137437563986200,18.409986083984375,10.536322593688965,-10.576247215270996,24.022438049316406
1702137437580978700,18.426978759765625,11.167238235473633,-9.961784362792969,21.391098022460938
1702137437597969200,18.44396923828125,13.012565612792969,-11.301660537719727,16.45294952392578
1702137437614961200,18.460961181640624,14.590846061706543,-12.183879852294922,8.88560676574707
1702137437631952000,18.477951904296877,14.565726280212402,-13.763381004333496,3.931377410888672
1702137437648933600,18.49493359375,13.584247589111328,-12.915456771850586,-0.15281152725219727
1702137437665934800,18.511934814453124,11.723919868469238,-9.785179138183594,1.5191726684570312
1702137437682926300,18.52892626953125,8.093655586242676,-7.150233268737793,9.301504135131836
1702137437699911400,18.545911376953125,1.8109713792800903,-5.0758585929870605,17.952226638793945
1702137437716899000,18.562899169921874,-6.035674095153809,-2.7232656478881836,21.667343139648438
1702137437733901300,18.5799013671875,-10.67098617553711,-2.6849679946899414,24.181297302246094
1702137437750892000,18.59689208984375,-8.348017692565918,-5.443358898162842,27.420345306396484
1702137437767882500,18.613882568359376,-3.0681285858154297,-8.405380249023438,31.135393142700195
1702137437784875000,18.630875,-0.5541453957557678,-9.066230773925781,31.221742630004883
1702137437801865700,18.64786572265625,-3.1005985736846924,-8.765454292297363,29.321487426757812
1702137437818857500,18.664857421875,-6.625361442565918,-9.25139045715332,28.341903686523438
1702137437835848200,18.68184814453125,-7.327394008636475,-9.6927490234375,25.622604370117188
1702137437852839700,18.698839599609375,-5.4803009033203125,-9.689127922058105,21.262798309326172
1702137437869832000,18.71583203125,-1.8515138626098633,-10.045110702514648,18.23069953918457
1702137437886823000,18.732822998046874,1.4039344787597656,-9.212871551513672,16.221839904785156
1702137437903815700,18.749815673828124,-1.1210527420043945,-7.981762409210205,13.78958511352539
1702137437920807700,18.7668076171875,-6.916430473327637,-7.512176513671875,11.85708999633789
1702137437937794000,18.7837939453125,-10.372332572937012,-9.606583595275879,12.60591983795166
1702137437954791200,18.800791259765624,-9.1005859375,-11.306455612182617,15.996160507202148
1702137437971770000,18.81777001953125,-7.481442928314209,-12.718276977539062,18.011981964111328
1702137437988769000,18.83476904296875,-2.7406773567199707,-14.446685791015625,15.848060607910156
1702137438005764600,18.8517646484375,4.411523818969727,-12.765005111694336,12.702794075012207
1702137438022753800,18.86875390625,4.348911285400391,-12.1795654296875,17.040678024291992
1702137438039744500,18.88574462890625,-0.7814850807189941,-11.7107572555542,21.785762786865234
1702137438056737000,18.902737060546876,-7.331605434417725,-9.928528785705566,21.94939613342285
1702137438073727500,18.9197275390625,-7.026664733886719,-10.84142017364502,29.1363468170166
1702137438090721300,18.93672119140625,3.9747495651245117,-8.473087310791016,36.18757247924805
1702137438107708400,18.95370849609375,7.168126583099365,-4.259640693664551,37.5872917175293
1702137438124702500,18.970702392578126,-4.100546836853027,-3.268967628479004,37.238258361816406
1702137438141693000,18.98769287109375,-13.872170448303223,-4.222700119018555,36.476173400878906
1702137438158684700,19.0046845703125,-15.30012321472168,-6.982593536376953,44.03595733642578
1702137438175665400,19.02166552734375,-8.291055679321289,-9.833603858947754,52.762882232666016
1702137438192670700,19.038670654296876,2.6275336742401123,-8.337150573730469,56.18787384033203
1702137438209655800,19.05565576171875,4.060145378112793,-5.808216571807861,49.79314422607422
1702137438226650600,19.072650634765626,-0.7927517890930176,-4.930630207061768,42.382469177246094
1702137438243638500,19.089638427734375,-2.4927124977111816,-6.499094009399414,40.837181091308594
1702137438260632600,19.106632568359377,-1.5798277854919434,-7.874545097351074,47.98259735107422
1702137438277624000,19.1236240234375,-0.02839183807373047,-7.71501350402832,48.70250701904297
1702137438294615800,19.14061572265625,0.14945077896118164,-11.26356315612793,47.70729064941406
1702137438311614200,19.1576142578125,1.8117470741271973,-18.621862411499023,46.23160934448242
1702137438328598800,19.174598876953127,5.1615705490112305,-26.19773292541504,40.64752960205078
1702137438345576700,19.19157666015625,7.790627479553223,-31.647632598876953,33.20646286010742
1702137438362574300,19.20857421875,10.38936710357666,-33.41363525390625,26.022541046142578
1702137438379571700,19.22557177734375,14.123255729675293,-32.877105712890625,21.436513900756836
1702137438396561700,19.242561767578124,15.719103813171387,-27.685333251953125,16.48792839050293
1702137438413556000,19.259555908203126,12.57046127319336,-22.42578125,13.38106918334961
1702137438430546700,19.276546630859375,7.711081504821777,-19.4820499420166,11.200922966003418
1702137438447537400,19.293537353515624,4.323932647705078,-18.582901000976562,9.243268966674805
1702137438464529400,19.310529296875,4.176013946533203,-15.685958862304688,6.242079734802246
1702137438481520400,19.327520263671875,2.8122711181640625,-13.471624374389648,6.530335903167725
1702137438498512400,19.344512451171877,2.836172580718994,-12.349056243896484,8.46364974975586
1702137438515502800,19.3615029296875,1.7591009140014648,-10.843260765075684,9.39714241027832
1702137438532495000,19.3784951171875,0.2185192108154297,-10.464948654174805,9.310157775878906
1702137438549483300,19.395483154296876,-0.08131265640258789,-11.370241165161133,8.954648971557617
1702137438566480100,19.412480224609375,0.16278600692749023,-12.796630859375,9.948294639587402
1702137438583464400,19.42946435546875,1.25178861618042,-15.578019142150879,12.543697357177734
1702137438600458200,19.446458251953125,3.5020956993103027,-18.628082275390625,14.148038864135742
1702137438617453800,19.463453857421875,8.176876068115234,-18.44205665588379,12.024354934692383
1702137438634443000,19.480443115234376,10.290058135986328,-17.304702758789062,12.375268936157227
1702137438651423700,19.497423828125,5.30980110168457,-18.366256713867188,16.52516746520996
1702137438668428500,19.514428466796875,-1.8949204683303833,-21.783292770385742,22.646366119384766
1702137438685416700,19.531416748046876,-3.4793529510498047,-25.141952514648438,35.52113342285156
1702137438702408700,19.54840869140625,3.1412453651428223,-25.076492309570312,40.17723083496094
1702137438719399200,19.565399169921875,9.859106063842773,-25.123950958251953,37.92057418823242
1702137438736391700,19.5823916015625,10.126120567321777,-25.750701904296875,33.91762161254883
1702137438753382100,19.599382080078126,2.912287950515747,-27.138900756835938,31.186214447021484
1702137438770374000,19.616373779296875,-5.55680513381958,-34.3823127746582,38.11204528808594
1702137438787364600,19.633364501953125,-2.7501449584960938,-32.578121185302734,42.17575454711914
1702137438804356900,19.65035693359375,1.9222010374069214,-29.608078002929688,43.63981628417969
1702137438821337000,19.667337158203125,3.603761672973633,-30.685890197753906,40.974239349365234
1702137438838342700,19.6843427734375,6.340815544128418,-31.38723373413086,40.28690719604492
1702137438855327000,19.701326904296874,5.658028602600098,-27.846221923828125,43.19192886352539
1702137438872322600,19.718322509765624,-0.9958357810974121,-25.16390609741211,45.072452545166016
1702137438889310500,19.735310546875,-5.682169437408447,-21.67653465270996,40.59148025512695
1702137438906307300,19.752307373046875,-0.7316126823425293,-17.838611602783203,34.82185363769531
1702137438923295500,19.76929541015625,4.092652797698975,-16.280550003051758,36.35167694091797
1702137438940288000,19.7862880859375,4.686695575714111,-12.660242080688477,37.89971923828125
1702137438957278500,19.803278564453127,2.375887393951416,-7.31909704208374,33.479103088378906
1702137438974270200,19.820270263671876,-0.6630755662918091,-3.9343042373657227,29.870532989501953
1702137438991261000,19.837260986328126,-1.7299610376358032,-2.4436161518096924,28.75227928161621
1702137439008250600,19.854250732421875,-1.5084887742996216,-0.9230190515518188,28.450820922851562
1702137439025242400,19.871242431640624,-3.0760223865509033,2.846398115158081,26.168601989746094
1702137439042237400,19.888237548828126,-4.353269100189209,4.77161979675293,21.090267181396484
1702137439059226400,19.905226318359375,-2.732933759689331,5.61397647857666,19.06055450439453
1702137439076218600,19.922218505859377,0.48747551441192627,5.763374328613281,18.741920471191406
1702137439093208000,19.9392080078125,2.9203615188598633,5.8362627029418945,17.237934112548828
1702137439110198800,19.95619873046875,2.4871702194213867,6.131161212921143,15.456701278686523
1702137439127191800,19.97319189453125,-0.563524603843689,6.29379940032959,13.034287452697754
1702137439144187000,19.990186767578123,-2.851572036743164,5.8568525314331055,10.576393127441406
1702137439161164300,20.007164306640625,-3.1009745597839355,4.858069896697998,9.438812255859375
1702137439178166500,20.02416650390625,-2.2433886528015137,4.119822025299072,8.195241928100586
1702137439195157200,20.0411572265625,-1.3297450542449951,3.2741332054138184,6.0717668533325195
1702137439212148200,20.058148193359376,-0.7370328903198242,2.1501810550689697,4.449808120727539
1702137439229139000,20.075138916015625,-0.7204123139381409,1.2336513996124268,3.2788124084472656
1702137439246119000,20.092118896484376,-1.0003951787948608,0.3170039653778076,2.542146682739258
1702137439263120400,20.109120361328124,-1.5296943187713623,-0.6603238582611084,2.31630802154541
1702137439280117500,20.126117431640626,-1.469541072845459,-1.4143013954162598,1.8785934448242188
1702137439297106000,20.14310595703125,-0.497293084859848,-2.3649187088012695,1.343191146850586
1702137439314097700,20.16009765625,0.7068073153495789,-3.0331504344940186,0.7118234634399414
1702137439331088100,20.177088134765626,1.4448601007461548,-3.4336307048797607,0.13413047790527344
1702137439348091000,20.1940908203125,1.7304456233978271,-3.522629976272583,-0.41097068786621094
1702137439365074000,20.211073974609373,1.756171703338623,-3.549701690673828,-0.5365571975708008
1702137439382044400,20.22804443359375,1.2805299758911133,-3.6637234687805176,-0.2470541000366211
1702137439399053800,20.2450537109375,1.794791579246521,-3.345676898956299,-0.1958761215209961
1702137439416035800,20.262035888671875,2.0373008251190186,-3.018435478210449,-0.2697896957397461
1702137439433025800,20.27902587890625,2.448056936264038,-2.7868263721466064,-0.21674823760986328
1702137439450026500,20.296026611328124,3.018301486968994,-2.476240634918213,-0.010639190673828125
1702137439467029800,20.31302978515625,3.7015323638916016,-2.478909969329834,0.8335351943969727
1702137439484011800,20.33001171875,4.536713600158691,-2.5183610916137695,1.591949462890625
1702137439501002200,20.347002197265624,5.149511337280273,-2.538733959197998,2.1302289962768555
1702137439517983500,20.3639833984375,5.529963493347168,-2.423435688018799,2.3852109909057617
1702137439534982000,20.38098193359375,5.825858116149902,-2.5811240673065186,1.918135643005371
1702137439551982600,20.397982666015626,6.621115684509277,-3.1037955284118652,1.0169754028320312
1702137439568964600,20.414964599609377,7.623470306396484,-3.165980100631714,0.39301490783691406
1702137439585959400,20.43195947265625,8.405351638793945,-3.1356468200683594,0.6496419906616211
1702137439602950000,20.448949951171876,8.607278823852539,-2.9682374000549316,1.4440784454345703
1702137439619942400,20.4659423828125,8.356008529663086,-2.5848631858825684,1.9540033340454102
1702137439636928800,20.4829287109375,7.22946834564209,-2.2016444206237793,1.6593313217163086
1702137439653924900,20.4999248046875,5.681680202484131,-1.797765851020813,1.2862701416015625
1702137439670913000,20.5169130859375,4.199218273162842,-1.0816303491592407,1.0643978118896484
1702137439687900000,20.53389990234375,3.3469080924987793,-0.6840785145759583,2.0351648330688477
1702137439704898600,20.550898681640625,3.637259006500244,-0.5283412337303162,3.767714500427246
1702137439721890600,20.567890625,4.044570446014404,-0.005303502082824707,4.678133964538574
1702137439738881000,20.584881103515624,3.7151970863342285,0.5805327892303467,4.927734375
1702137439755869200,20.601869140625,2.721100330352783,1.119112253189087,3.725057601928711
1702137439772868400,20.618868408203124,1.868208885192871,1.8522734642028809,2.780562400817871
1702137439789853000,20.63585302734375,1.4046895503997803,2.4863927364349365,3.0572547912597656
1702137439806849000,20.65284912109375,1.8008902072906494,3.101505756378174,4.6040143966674805
1702137439823828500,20.669828369140625,2.034494400024414,3.3135602474212646,5.991589546203613
1702137439840829400,20.686829345703124,1.169374942779541,3.5196139812469482,4.034487724304199
1702137439857821400,20.703821533203126,0.0681769847869873,3.625706195831299,1.201272964477539
1702137439874808300,20.720808349609374,-0.19481301307678223,3.38090181350708,-0.04043102264404297
1702137439891804700,20.7378046875,0.6083359718322754,2.4179821014404297,-0.15210962295532227
1702137439908794400,20.75479443359375,1.5636012554168701,1.3146133422851562,-0.3921527862548828
1702137439925787000,20.771786865234375,1.845323085784912,0.24539613723754883,-1.1982426643371582
1702137439942777600,20.788777587890625,1.8089356422424316,-0.8062200546264648,-2.599026918411255
1702137439959769600,20.80576953125,1.5312037467956543,-1.8011455535888672,-4.05938720703125
1702137439976760300,20.82276025390625,1.658585786819458,-2.8175323009490967,-5.087613105773926
1702137439993741800,20.839741943359375,2.1791932582855225,-3.8428730964660645,-5.881930351257324
1702137440010743000,20.856742919921874,2.7542264461517334,-4.6986002922058105,-6.654303073883057
1702137440027732500,20.873732421875,3.514457941055298,-5.721785068511963,-6.70134162902832
1702137440044717800,20.8907177734375,3.8112590312957764,-6.605420112609863,-6.537071228027344
1702137440061712600,20.907712646484374,3.8959884643554688,-7.289675712585449,-6.251772880554199
1702137440078710500,20.92471044921875,3.9239087104797363,-7.726753234863281,-6.022233009338379
1702137440095700700,20.94170068359375,3.6788156032562256,-8.158062934875488,-5.704824447631836
1702137440112691200,20.958691162109375,3.013205051422119,-8.640565872192383,-5.6999125480651855
1702137440129682200,20.97568212890625,2.1559274196624756,-9.548189163208008,-5.862642765045166
1702137440146677500,20.992677490234374,1.4560010433197021,-10.389103889465332,-5.306057453155518
1702137440163664400,21.009664306640627,0.404254674911499,-11.502433776855469,-3.500014543533325
1702137440180658400,21.026658447265625,-2.065708637237549,-12.572179794311523,-0.8747658729553223
1702137440197636000,21.043635986328123,-5.148672580718994,-13.637459754943848,2.251870632171631
1702137440214628600,21.060628662109377,-8.407383918762207,-13.764863967895508,4.7970757484436035
1702137440231634000,21.077634033203125,-11.79595947265625,-14.621938705444336,6.802430152893066
1702137440248621800,21.094621826171874,-11.087028503417969,-15.88243293762207,10.486101150512695
1702137440265614000,21.111614013671876,-7.369052410125732,-16.560131072998047,15.392250061035156
1702137440282594000,21.128593994140626,-5.2127227783203125,-14.833456039428711,18.173168182373047
1702137440299597000,21.14559716796875,-6.02672004699707,-11.107880592346191,18.259841918945312
1702137440316574700,21.16257470703125,-9.267937660217285,-9.090639114379883,21.840415954589844
1702137440333571300,21.1795712890625,-12.034523963928223,-7.745974540710449,26.459346771240234
1702137440350565000,21.196565185546874,-10.272153854370117,-6.589023113250732,30.592479705810547
1702137440367557400,21.213557373046875,-4.383947849273682,-5.282073974609375,32.99158477783203
1702137440384544000,21.2305439453125,0.3958171606063843,-4.180664539337158,32.946189880371094
1702137440401535700,21.24753564453125,2.2448925971984863,-3.3604235649108887,32.31305694580078
1702137440418526500,21.2645263671875,2.147590160369873,-3.0290722846984863,30.24333381652832
1702137440435518500,21.2815185546875,1.652496099472046,-3.6543831825256348,29.54488182067871
1702137440452509200,21.29850927734375,2.8761322498321533,-5.860920429229736,30.249588012695312
1702137440469499400,21.31549951171875,5.435956954956055,-8.607666015625,30.462080001831055
1702137440486492200,21.3324921875,7.83660888671875,-12.265998840332031,29.125839233398438
1702137440503484400,21.349484375,9.902915954589844,-15.711238861083984,27.13207244873047
1702137440520477200,21.366477294921875,10.448424339294434,-17.577911376953125,22.923065185546875
1702137440537467100,21.383467041015624,9.257770538330078,-17.885482788085938,20.118356704711914
1702137440554456600,21.40045654296875,7.324282646179199,-17.50928497314453,18.538484573364258
1702137440571448000,21.417447998046875,7.641287803649902,-16.165687561035156,16.89775848388672
1702137440588441600,21.434441650390625,9.25838851928711,-14.364778518676758,16.886503219604492
1702137440605440300,21.451440185546875,9.18925952911377,-13.04721450805664,17.688928604125977
1702137440622423800,21.468423828125,7.162654876708984,-11.624704360961914,18.099761962890625
1702137440639414800,21.485414794921876,5.0560221672058105,-10.670212745666504,16.269207000732422
1702137440656405000,21.502405029296874,5.328204154968262,-8.945570945739746,12.46886157989502
1702137440673397500,21.5193974609375,7.8194379806518555,-6.108149528503418,9.438396453857422
1702137440690391800,21.536391845703125,9.446484565734863,-5.262414932250977,8.845762252807617
1702137440707389400,21.553389404296876,8.763219833374023,-6.233782768249512,9.964542388916016
1702137440724377900,21.5703779296875,8.32746696472168,-6.840436935424805,9.76251220703125
1702137440741374500,21.58737451171875,8.426736831665039,-7.03902530670166,9.416566848754883
1702137440758347300,21.60434716796875,9.606939315795898,-6.840144634246826,11.849806785583496
1702137440775356400,21.6213564453125,6.314078330993652,-7.100420951843262,17.607086181640625
1702137440792344300,21.63834423828125,-3.95192813873291,-8.141547203063965,21.23141098022461
1702137440809335600,21.65533544921875,-11.775623321533203,-7.8563618659973145,18.765220642089844
1702137440826330400,21.672330322265626,-10.222516059875488,-8.032576560974121,14.582489013671875
1702137440843320600,21.689320556640624,-2.765745162963867,-8.853238105773926,14.806262969970703
