time,seconds_elapsed,z,y,x
1702137600128038000,0.015037841796875,0.23750019073486328,0.0641937255859375,0.1845412254333496
1702137600213997800,0.100997802734375,-0.3372378349304199,-0.43207693099975586,-0.0671079158782959
1702137600230991400,0.117991455078125,0.1415882110595703,-0.27310991287231445,0.7643698453903198
1702137600247982800,0.13498291015625,-0.09342622756958008,-0.1634378433227539,0.9154273271560669
1702137600264974600,0.151974609375,-0.3639044761657715,-0.44507312774658203,0.3760502338409424
1702137600281963000,0.168962890625,-0.5419168472290039,-0.6804690361022949,-0.15897881984710693
1702137600298955500,0.18595556640625,-0.4994468688964844,-0.6729474067687988,0.18553566932678223
1702137600315949300,0.20294921875,-0.5159955024719238,-0.5679006576538086,0.5450353622436523
1702137600332930300,0.219930419921875,-0.6597151756286621,-0.4953188896179199,0.500016450881958
1702137600349920000,0.236919921875,-0.8589987754821777,-0.2622990608215332,0.24957013130187988
1702137600366922000,0.253921875,-0.2261972427368164,-0.37834692001342773,0.27399230003356934
1702137600383910000,0.270909912109375,0.4924635887145996,-0.14712953567504883,1.122732400894165
1702137600400903400,0.2879033203125,1.4596266746520996,0.4813838005065918,2.4298160076141357
1702137600417895400,0.3048955078125,2.084383964538574,1.3864169120788574,2.760972499847412
1702137600434886000,0.321885986328125,2.362490177154541,2.2038393020629883,2.0277602672576904
1702137600451874000,0.3388740234375,2.51969575881958,3.022223949432373,1.4476940631866455
1702137600468869600,0.35586962890625,2.5263004302978516,4.273149013519287,1.5020849704742432
1702137600485859300,0.372859375,0.9666118621826172,4.455191135406494,2.091822385787964
1702137600502847200,0.38984716796875,-0.6408476829528809,2.7581400871276855,2.3885679244995117
1702137600519832000,0.40683203125,-0.8087358474731445,2.14030122756958,0.7528903484344482
1702137600536833000,0.4238330078125,-0.8700141906738281,2.495420455932617,-0.3129159212112427
1702137600553810200,0.44081005859375,-1.7128777503967285,1.945361614227295,-0.5130176544189453
1702137600570815200,0.457815185546875,-3.0548272132873535,1.244225025177002,-0.3742119073867798
1702137600587806700,0.474806640625,-4.482208251953125,0.3800339698791504,-0.7602087259292603
1702137600604798500,0.491798583984375,-4.8145294189453125,-0.6558957099914551,-0.7018400430679321
1702137600621786400,0.508786376953125,-4.79768180847168,-1.4335989952087402,-1.060840129852295
1702137600638767900,0.525767822265625,-4.827974319458008,-2.383174419403076,-1.245833158493042
1702137600655777500,0.542777587890625,-4.979156970977783,-3.0204405784606934,-1.3996162414550781
1702137600672765400,0.559765380859375,-5.156227111816406,-3.499199390411377,-1.7432594299316406
1702137600689742800,0.576742919921875,-5.4765238761901855,-4.046779632568359,-2.3135812282562256
1702137600706747400,0.593747314453125,-5.496488094329834,-4.84434700012207,-2.925938844680786
1702137600723736600,0.610736572265625,-5.304715633392334,-5.6116132736206055,-3.396700620651245
1702137600740731000,0.62773095703125,-5.796268939971924,-6.571007251739502,-4.032371520996094
1702137600757719600,0.644719482421875,-6.122478008270264,-7.629743576049805,-3.571157217025757
1702137600774700000,0.661699951171875,-5.121824264526367,-8.804082870483398,-3.739374876022339
1702137600791694600,0.678694580078125,-5.019127368927002,-9.543611526489258,-2.6863369941711426
1702137600808695000,0.695695068359375,-5.5721869468688965,-10.305787086486816,-1.5464413166046143
1702137600825685200,0.712685302734375,-5.5247979164123535,-11.495378494262695,-0.46172046661376953
1702137600842671000,0.729671142578125,-4.799102783203125,-12.803647994995117,3.832953453063965
1702137600859666000,0.746666015625,-3.1335387229919434,-12.576238632202148,7.865005016326904
1702137600876647200,0.763647216796875,-4.853733062744141,-11.556119918823242,9.159423828125
1702137600893643000,0.78064306640625,-6.869866371154785,-11.791386604309082,11.153063774108887
1702137600910642000,0.797641845703125,-4.528115749359131,-12.03760051727295,15.151397705078125
1702137600927630600,0.814630615234375,-1.5915231704711914,-12.090421676635742,20.990219116210938
1702137600944622300,0.831622314453125,-0.6984443664550781,-10.216590881347656,24.642284393310547
1702137600961613300,0.84861328125,-2.883857011795044,-8.769513130187988,25.536785125732422
1702137600978605300,0.865605224609375,-2.3138556480407715,-7.43320894241333,26.6401424407959
1702137600995597000,0.88259716796875,1.3213858604431152,-5.766254901885986,28.459117889404297
1702137601012583200,0.899583251953125,4.470150947570801,-4.066952228546143,29.952882766723633
1702137601029577500,0.916577392578125,6.420194625854492,-1.5516031980514526,32.10283660888672
1702137601046569500,0.933569580078125,4.927432537078857,0.7089203000068665,30.482812881469727
1702137601063557600,0.9505576171875,4.092255115509033,0.8697181940078735,29.728477478027344
1702137601080551200,0.96755126953125,6.157999038696289,-0.27904945611953735,30.3278751373291
1702137601097542400,0.98454248046875,11.434356689453125,-1.7229722738265991,31.399463653564453
1702137601114533000,1.001533203125,17.7563533782959,-3.2883248329162598,31.624588012695312
1702137601131523800,1.01852392578125,18.272411346435547,-4.349620819091797,31.636638641357422
1702137601148516900,1.035516845703125,15.41174030303955,-7.015702247619629,32.5354118347168
1702137601165505500,1.052505615234375,17.14352035522461,-10.09722900390625,32.51499938964844
1702137601182497300,1.069497314453125,19.893552780151367,-13.069793701171875,34.15400695800781
1702137601199491000,1.086490966796875,19.695941925048828,-15.603343963623047,33.201812744140625
1702137601216481800,1.103481689453125,21.462797164916992,-17.056852340698242,26.739593505859375
1702137601233469000,1.120468994140625,27.717336654663086,-16.203947067260742,17.824264526367188
1702137601250458600,1.137458740234375,33.36788558959961,-15.473638534545898,15.548019409179688
1702137601267455000,1.154455078125,30.0217342376709,-13.764839172363281,14.742790222167969
1702137601284445400,1.171445556640625,21.492935180664062,-10.33743667602539,12.538945198059082
1702137601301435100,1.18843505859375,15.884098052978516,-7.27687931060791,10.462512969970703
1702137601318434800,1.205434814453125,16.958789825439453,-7.540201663970947,10.953300476074219
1702137601335423200,1.22242333984375,18.565338134765625,-10.409162521362305,12.31159782409668
1702137601352406000,1.239406005859375,18.7985782623291,-11.388192176818848,13.140887260437012
1702137601369401600,1.256401611328125,15.346237182617188,-10.602278709411621,15.071435928344727
1702137601386393300,1.273393310546875,8.976635932922363,-9.956466674804688,19.54289436340332
1702137601403381500,1.290381591796875,4.252089500427246,-12.213122367858887,24.349246978759766
1702137601420375000,1.307375,4.471672534942627,-15.825976371765137,24.529159545898438
1702137601437366500,1.324366455078125,7.295551300048828,-17.752643585205078,19.3210391998291
1702137601454347000,1.341346923828125,10.20837688446045,-17.446041107177734,13.354085922241211
1702137601471349000,1.358348876953125,9.671860694885254,-15.410835266113281,10.031856536865234
1702137601488338700,1.375338623046875,8.849738121032715,-13.677748680114746,10.854687690734863
1702137601505329200,1.3923291015625,6.684624671936035,-12.796518325805664,12.483514785766602
1702137601522316300,1.40931640625,3.896930694580078,-11.888364791870117,10.57657527923584
1702137601539316200,1.426316162109375,2.70058012008667,-11.723761558532715,7.530251502990723
1702137601556305400,1.443305419921875,4.19579553604126,-13.157610893249512,5.997123718261719
1702137601573291300,1.460291259765625,8.381928443908691,-15.035901069641113,8.119890213012695
1702137601590285800,1.477285888671875,10.268115997314453,-15.437047004699707,13.07919979095459
1702137601607278600,1.494278564453125,7.503955841064453,-14.593608856201172,14.072487831115723
1702137601624266800,1.511266845703125,1.8595633506774902,-15.004257202148438,12.846162796020508
1702137601641261600,1.528261474609375,0.5198760032653809,-15.76876449584961,10.835938453674316
1702137601658240300,1.545240234375,9.104433059692383,-14.925874710083008,11.22337532043457
1702137601675245000,1.5622451171875,11.024531364440918,-14.453652381896973,15.337838172912598
1702137601692231000,1.57923095703125,4.240066051483154,-15.090476989746094,19.200092315673828
1702137601709225200,1.59622509765625,-1.8037344217300415,-16.08066177368164,17.679977416992188
1702137601726218800,1.61321875,-0.013841986656188965,-17.93417739868164,16.508365631103516
1702137601743201300,1.630201171875,8.296138763427734,-18.902996063232422,22.28412628173828
1702137601760191200,1.647191162109375,11.303586959838867,-17.44458770751953,29.148143768310547
1702137601777190700,1.664190673828125,5.7169623374938965,-14.568309783935547,29.709999084472656
1702137601794178600,1.681178466796875,0.5593459606170654,-13.277029037475586,30.36267852783203
1702137601811174100,1.698174072265625,-0.5463573932647705,-13.444642066955566,34.0716552734375
1702137601828162300,1.715162353515625,-0.24821686744689941,-14.500432968139648,38.94081115722656
1702137601845145900,1.732145751953125,2.0715506076812744,-16.553647994995117,41.9364128112793
1702137601862143000,1.74914306640625,5.001211166381836,-20.25765037536621,43.91791534423828
1702137601879138300,1.76613818359375,10.485428810119629,-22.702852249145508,47.10453414916992
1702137601896123100,1.783123046875,13.61336898803711,-22.09450912475586,49.34086227416992
1702137601913110500,1.800110595703125,12.434782981872559,-22.761072158813477,50.5606689453125
1702137601930109700,1.817109619140625,13.421624183654785,-26.388816833496094,49.7376708984375
1702137601947103700,1.834103759765625,18.454179763793945,-30.28780746459961,46.07383728027344
1702137601964089900,1.85108984375,23.0214786529541,-32.9033203125,40.13101577758789
1702137601981085400,1.86808544921875,24.324678421020508,-34.840274810791016,32.55216979980469
1702137601998064000,1.885064208984375,22.82961082458496,-34.63290023803711,24.71442413330078
1702137602015068700,1.902068603515625,19.05156707763672,-33.4874382019043,19.551422119140625
1702137602032054800,1.9190546875,14.93835735321045,-32.37444305419922,17.106782913208008
1702137602049049300,1.93604931640625,12.68005657196045,-31.307615280151367,15.290313720703125
1702137602066041300,1.953041259765625,10.126096725463867,-29.45786476135254,12.028599739074707
1702137602083026700,1.970026611328125,8.206811904907227,-26.759305953979492,8.382025718688965
1702137602100021500,1.987021484375,8.17447280883789,-23.095003128051758,6.422528266906738
1702137602117019000,2.004018798828125,9.141201972961426,-20.226957321166992,7.865743637084961
1702137602134001700,2.021001708984375,7.4790520668029785,-18.761619567871094,9.667037963867188
1702137602150997500,2.03799755859375,4.930846214294434,-17.70986557006836,9.730742454528809
1702137602167986700,2.054986572265625,4.050722599029541,-17.344703674316406,9.528691291809082
1702137602184980500,2.07198046875,5.685920715332031,-16.64507293701172,10.721702575683594
1702137602201966600,2.088966552734375,6.1861572265625,-16.742218017578125,13.31572437286377
1702137602218951000,2.105950927734375,6.290065765380859,-17.254056930541992,15.218482971191406
1702137602235953200,2.122953125,8.312170028686523,-18.51187515258789,17.188690185546875
1702137602252941000,2.139941162109375,10.151374816894531,-19.055986404418945,19.02672576904297
1702137602269933600,2.15693359375,8.512201309204102,-19.457046508789062,21.472820281982422
1702137602286930700,2.1739306640625,4.86574125289917,-20.320945739746094,24.01750946044922
1702137602303913700,2.190913818359375,2.398068428039551,-21.876066207885742,25.918018341064453
1702137602320900900,2.20790087890625,2.197951078414917,-23.3975772857666,25.736053466796875
1702137602337896700,2.224896728515625,4.432668685913086,-24.385866165161133,24.74304962158203
1702137602354892300,2.241892333984375,4.966553211212158,-24.1081485748291,24.23686408996582
1702137602371876600,2.258876708984375,0.4627549648284912,-26.295448303222656,23.049692153930664
1702137602388883000,2.275883056640625,3.5231311321258545,-24.799449920654297,19.942975997924805
1702137602405865000,2.292864990234375,5.993429183959961,-27.353599548339844,24.062002182006836
1702137602422853000,2.30985302734375,8.64597225189209,-27.381153106689453,28.61699867248535
1702137602439845600,2.326845703125,9.874423027038574,-25.92104721069336,31.923534393310547
1702137602456836900,2.3438369140625,7.521871566772461,-24.36650848388672,33.928199768066406
1702137602473825800,2.36082568359375,4.375143051147461,-22.92129898071289,32.324462890625
1702137602490823400,2.377823486328125,4.832681179046631,-19.880043029785156,28.83116912841797
1702137602507810300,2.394810302734375,5.721861839294434,-17.372482299804688,29.409482955932617
1702137602524804400,2.411804443359375,4.1171956062316895,-16.39720916748047,33.633697509765625
1702137602541784000,2.4287841796875,2.7963619232177734,-11.474873542785645,32.668087005615234
1702137602558776000,2.445776123046875,1.540155291557312,-8.176462173461914,29.38653564453125
1702137602575777000,2.462777099609375,-0.18143296241760254,-5.725026607513428,27.205726623535156
1702137602592765400,2.479765380859375,-0.39669543504714966,-5.010811805725098,25.10668182373047
1702137602609773800,2.49677392578125,1.4031360149383545,-3.1516196727752686,22.523197174072266
1702137602626745900,2.513745849609375,3.4896016120910645,-0.6035594940185547,21.463886260986328
1702137602643738600,2.530738525390625,3.2900097370147705,0.7105553150177002,22.453853607177734
1702137602660724000,2.547723876953125,1.6106823682785034,2.5737814903259277,22.266347885131836
1702137602677713200,2.564713134765625,-0.13856422901153564,2.654834270477295,20.506879806518555
1702137602694705700,2.58170556640625,1.1096183061599731,4.587549209594727,16.023080825805664
1702137602711700200,2.5987001953125,0.5976755619049072,4.0728373527526855,15.263221740722656
1702137602728690000,2.61568994140625,0.007673025131225586,3.581496238708496,14.255030632019043
1702137602745691000,2.63269091796875,-0.2717248201370239,3.171215057373047,11.202347755432129
1702137602762677200,2.64967724609375,-0.5572038888931274,1.8166213035583496,8.652421951293945
1702137602779668200,2.666668212890625,0.58076012134552,0.4724462032318115,6.340146064758301
1702137602796665300,2.683665283203125,2.194120407104492,-0.2178363800048828,4.301690101623535
1702137602813647000,2.700647216796875,2.6176681518554688,-0.5869582891464233,2.9010086059570312
1702137602830629400,2.71762939453125,2.040336847305298,-0.9436895847320557,1.9355735778808594
1702137602847634400,2.734634521484375,1.614490270614624,-1.3901671171188354,1.5557537078857422
1702137602864628500,2.75162841796875,1.412414312362671,-1.7106668949127197,1.025446891784668
1702137602881616000,2.768615966796875,-0.1635953187942505,-2.0755269527435303,0.9626560211181641
1702137602898598700,2.7855986328125,-1.806291103363037,-2.3681094646453857,1.2361688613891602
1702137602915604000,2.80260400390625,-1.4923880100250244,-1.990468978881836,1.6773061752319336
1702137602932592600,2.819592529296875,-0.7734611630439758,-1.4959121942520142,2.198859214782715
1702137602949581600,2.83658154296875,-0.7257746458053589,-0.9268296360969543,2.092153549194336
1702137602966566400,2.85356640625,-1.3116374015808105,-0.77251797914505,1.7318687438964844
1702137602983561700,2.870561767578125,-1.5183064937591553,-0.5752053260803223,1.5768985748291016
1702137603000557000,2.88755712890625,-1.1060094833374023,-0.2059304416179657,2.65592098236084
1702137603017536300,2.904536376953125,-0.15972048044204712,0.3560107350349426,4.820880889892578
1702137603034537700,2.921537841796875,1.1439929008483887,0.84157794713974,7.046225547790527
1702137603051529700,2.93852978515625,2.1002144813537598,2.035533905029297,8.280207633972168
1702137603068520700,2.955520751953125,1.3752285242080688,3.2339484691619873,11.053072929382324
1702137603085516500,2.9725166015625,0.06882405281066895,2.3105430603027344,12.117928504943848
1702137603102496000,2.98949609375,-0.06588447093963623,1.7852632999420166,8.387314796447754
1702137603119496400,3.006496337890625,1.1560271978378296,2.8138699531555176,4.499799728393555
1702137603136488400,3.023488525390625,1.0756916999816895,3.797454357147217,2.339069366455078
1702137603153468400,3.040468505859375,-0.13665318489074707,4.666077136993408,1.2971210479736328
1702137603170475000,3.05747509765625,-1.0426353216171265,4.458914756774902,0.8077330589294434
1702137603187448300,3.0744482421875,-2.2527992725372314,2.372171401977539,-0.8057613372802734
1702137603204451000,3.091451171875,-3.5767998695373535,-0.5406098365783691,-4.318422317504883
1702137603221439000,3.10843896484375,-4.310458183288574,-3.309767723083496,-7.256041526794434
1702137603238423600,3.125423583984375,-3.4881515502929688,-5.408511161804199,-8.824384689331055
1702137603255421700,3.142421630859375,-1.9552433490753174,-6.758114814758301,-9.476367950439453
1702137603272431400,3.159431396484375,-0.34502148628234863,-7.509799957275391,-10.249505996704102
1702137603289406500,3.176406494140625,1.1613082885742188,-8.039502143859863,-10.495220184326172
1702137603306398700,3.193398681640625,1.6535028219223022,-9.05778694152832,-9.317672729492188
1702137603323389200,3.21038916015625,1.3296293020248413,-10.13556957244873,-8.305015563964844
1702137603340381200,3.227381103515625,0.7013404369354248,-11.38267707824707,-7.980463027954102
1702137603357358600,3.244358642578125,0.7965245246887207,-12.597521781921387,-8.70610237121582
1702137603374355500,3.26135546875,1.6622072458267212,-13.661443710327148,-9.472837448120117
1702137603391356400,3.2783564453125,1.8749678134918213,-14.395509719848633,-10.02872085571289
1702137603408333300,3.295333251953125,0.5168290138244629,-15.691255569458008,-8.935136795043945
1702137603425336000,3.312336181640625,-1.2804455757141113,-17.437477111816406,-6.9041852951049805
1702137603442328300,3.329328369140625,-0.36152929067611694,-19.565303802490234,-2.5952579975128174
1702137603459310000,3.34631005859375,1.7859680652618408,-20.694164276123047,1.987105369567871
1702137603476312000,3.36331201171875,0.9301280975341797,-21.4816951751709,6.320738792419434
1702137603493299700,3.3802998046875,-1.6137406826019287,-21.356830596923828,9.661714553833008
1702137603510293500,3.39729345703125,-3.1966986656188965,-19.997760772705078,15.077346801757812
1702137603527283500,3.414283447265625,-6.537038803100586,-17.216167449951172,20.3868408203125
1702137603544275500,3.431275390625,-9.462472915649414,-14.96830940246582,22.08774185180664
1702137603561266000,3.448265869140625,-10.505864143371582,-13.655311584472656,21.084726333618164
1702137603578258000,3.4652578125,-9.52421760559082,-13.602555274963379,22.28868865966797
1702137603595245600,3.48224560546875,-7.18172025680542,-12.906253814697266,26.405179977416992
1702137603612243000,3.499242919921875,-6.644531726837158,-11.26711654663086,29.752208709716797
1702137603629222100,3.51622216796875,-6.431715488433838,-9.244495391845703,32.84107208251953
1702137603646222800,3.533222900390625,-4.462956428527832,-7.101202011108398,35.23735809326172
1702137603663201300,3.550201171875,-1.0394456386566162,-4.979889869689941,35.41494369506836
1702137603680200200,3.5672001953125,1.3912971019744873,-3.813359260559082,35.766815185546875
1702137603697187300,3.584187255859375,4.245572566986084,-2.0441699028015137,38.14992904663086
1702137603714186000,3.60118603515625,6.022162437438965,-2.074838161468506,41.704925537109375
1702137603731168000,3.61816796875,9.11707878112793,-2.6954355239868164,42.75594711303711
1702137603748164600,3.63516455078125,10.160640716552734,-3.9437851905822754,41.444480895996094
1702137603765156000,3.652156005859375,10.765966415405273,-7.137571334838867,38.8287353515625
1702137603782145300,3.669145263671875,13.991762161254883,-9.69459342956543,35.06097412109375
1702137603799139300,3.686139404296875,18.25202751159668,-12.082025527954102,30.574838638305664
1702137603816122600,3.70312255859375,22.096242904663086,-12.37602424621582,27.67974281311035
1702137603833115100,3.720115234375,22.12823486328125,-11.820833206176758,27.358806610107422
1702137603850108200,3.737108154296875,20.507905960083008,-11.906936645507812,27.889389038085938
1702137603867101200,3.75410107421875,19.628406524658203,-10.73005485534668,24.920377731323242
1702137603884093700,3.77109375,18.892107009887695,-9.158316612243652,20.291059494018555
1702137603901079300,3.788079345703125,16.969039916992188,-6.621057510375977,14.773554801940918
1702137603918074600,3.80507470703125,13.89513111114502,-6.285823822021484,14.434318542480469
1702137603935064800,3.82206494140625,10.801887512207031,-5.898531913757324,15.666394233703613
1702137603952054500,3.839054443359375,8.057397842407227,-7.85061502456665,20.02187156677246
1702137603969040400,3.856040283203125,8.098923683166504,-9.361735343933105,21.50511360168457
1702137603986046700,3.873046630859375,9.7513427734375,-9.721721649169922,20.346027374267578
1702137604003037200,3.890037109375,9.517411231994629,-7.939064979553223,19.631492614746094
1702137604020030000,3.907030029296875,4.39443302154541,-7.107074737548828,21.87903594970703
1702137604037018600,3.9240185546875,-2.285489559173584,-6.866217613220215,23.993297576904297
1702137604054007800,3.9410078125,-6.3723978996276855,-7.263089656829834,24.46942138671875
1702137604070999600,3.95799951171875,-7.0160441398620605,-7.74837589263916,23.751237869262695
1702137604087996200,3.97499609375,-5.801856994628906,-8.094209671020508,22.291763305664062
1702137604104973800,3.991973876953125,-3.366713762283325,-8.60037612915039,20.09503936767578
1702137604121973500,4.008973388671875,-0.7623333930969238,-9.343338012695312,18.69345474243164
1702137604138969900,4.025969970703125,0.3937506675720215,-9.18220329284668,17.52808952331543
1702137604155958800,4.042958740234375,-0.42012739181518555,-9.021717071533203,16.376068115234375
1702137604172949200,4.05994921875,-0.4503631591796875,-9.367886543273926,13.774192810058594
1702137604189931300,4.07693115234375,0.8214473724365234,-9.878551483154297,11.449630737304688
1702137604206931700,4.093931640625,1.4210453033447266,-10.108993530273438,11.216493606567383
1702137604223923700,4.110923828125,0.37927818298339844,-9.849430084228516,12.760747909545898
1702137604240914000,4.127913818359375,-2.424370765686035,-11.103507995605469,14.935932159423828
1702137604257906200,4.14490625,-3.9297990798950195,-12.582954406738281,15.826981544494629
1702137604274882800,4.1618828125,-3.9481444358825684,-16.236440658569336,15.249878883361816
1702137604291888600,4.178888671875,0.41997575759887695,-17.48185920715332,10.615796089172363
1702137604308878800,4.19587890625,5.216047763824463,-17.795034408569336,10.365873336791992
1702137604325873200,4.212873046875,7.018027305603027,-16.058996200561523,17.2640323638916
1702137604342860800,4.22986083984375,4.527823448181152,-14.206290245056152,25.850984573364258
1702137604359853300,4.246853271484375,0.7973584532737732,-12.470741271972656,28.940168380737305
1702137604376843500,4.263843505859375,0.7962906956672668,-11.300453186035156,29.84772300720215
1702137604393835800,4.280835693359375,2.100562810897827,-9.609848022460938,32.63500213623047
1702137604410824700,4.29782470703125,0.4762911796569824,-8.117393493652344,34.87308120727539
1702137604427819300,4.3148193359375,-2.9149699211120605,-7.073155403137207,36.35630798339844
1702137604444808400,4.331808349609375,-5.581500053405762,-5.943889141082764,38.20793914794922
1702137604461790000,4.3487900390625,-5.925713539123535,-5.064813613891602,43.01018524169922
1702137604478780400,4.365780517578125,-6.6005167961120605,-7.042209625244141,47.72779083251953
1702137604495783000,4.382782958984375,-4.778865337371826,-10.836655616760254,50.21257400512695
1702137604512772900,4.39977294921875,1.7464922666549683,-11.082386016845703,50.92079544067383
1702137604529765600,4.416765625,5.764720439910889,-10.37546443939209,51.98541259765625
1702137604546755000,4.433755126953125,7.963891506195068,-11.139246940612793,53.300636291503906
1702137604563748400,4.450748291015625,9.465644836425781,-12.63314437866211,50.40346145629883
1702137604580737800,4.46773779296875,9.980313301086426,-14.805740356445312,44.2624626159668
1702137604597730000,4.48472998046875,13.484698295593262,-19.520832061767578,40.76858139038086
1702137604614720300,4.50172021484375,17.18606948852539,-23.81466293334961,36.852012634277344
1702137604631712800,4.518712646484375,18.191246032714844,-25.443239212036133,30.909828186035156
1702137604648703000,4.535702880859375,16.394954681396484,-26.275161743164062,26.60304832458496
1702137604665694700,4.55269482421875,13.06190299987793,-26.207111358642578,22.284196853637695
1702137604682674700,4.5696748046875,9.522700309753418,-26.20490837097168,19.216075897216797
1702137604699677200,4.58667724609375,8.098932266235352,-25.023391723632812,15.433865547180176
1702137604716658200,4.603658203125,8.445113182067871,-22.525583267211914,11.000628471374512
1702137604733662200,4.620662109375,7.870595455169678,-20.816659927368164,9.250829696655273
1702137604750639400,4.637639404296875,7.7551589012146,-18.766311645507812,8.893184661865234
1702137604767641900,4.654641845703125,6.479970932006836,-17.358531951904297,9.644234657287598
1702137604784632800,4.6716328125,4.5010833740234375,-16.805770874023438,11.565711975097656
1702137604801624800,4.688624755859375,4.217268466949463,-16.660783767700195,10.958526611328125
1702137604818615300,4.705615234375,5.840048313140869,-15.877543449401855,9.150379180908203
1702137604835607800,4.72260791015625,7.326211929321289,-15.235800743103027,10.4576416015625
1702137604852597000,4.739596923828125,6.304837226867676,-15.085775375366211,14.526607513427734
1702137604869586000,4.7565859375,4.778683662414551,-17.105876922607422,16.93117332458496
1702137604886583000,4.7735830078125,6.120096683502197,-20.10026741027832,17.054561614990234
1702137604903571500,4.790571533203125,8.618820190429688,-22.807954788208008,15.666337966918945
1702137604920562000,4.80756201171875,10.063313484191895,-25.530941009521484,15.797971725463867
1702137604937556200,4.82455615234375,9.681784629821777,-28.719629287719727,17.590986251831055
1702137604954539800,4.841539794921875,8.756549835205078,-32.278587341308594,22.299306869506836
1702137604971533300,4.858533203125,8.871797561645508,-34.86111068725586,26.22075843811035
1702137604988524000,4.87552392578125,10.737723350524902,-37.312007904052734,29.561006546020508
1702137605005521700,4.892521728515625,12.03378963470459,-38.31321334838867,31.75187873840332
1702137605022509000,4.909509033203125,13.805366516113281,-37.52452087402344,29.838720321655273
1702137605039501300,4.926501220703125,11.498734474182129,-35.42186737060547,29.789451599121094
1702137605056491500,4.943491455078125,1.188096046447754,-37.1058349609375,32.5395393371582
1702137605073483500,4.9604833984375,2.6953742504119873,-35.70172882080078,29.8349666595459
1702137605090474000,4.977473876953125,9.996220588684082,-35.36763000488281,32.72053146362305
1702137605107466000,4.994466064453125,17.734004974365234,-33.60726547241211,35.84043884277344
1702137605124455000,5.011454833984375,19.92875099182129,-32.213165283203125,37.1762580871582
1702137605141450000,5.028449951171875,14.921879768371582,-29.395095825195312,37.532291412353516
1702137605158438700,5.045438720703125,7.250588893890381,-24.5987548828125,38.456809997558594
1702137605175420400,5.06242041015625,6.433981895446777,-19.03649139404297,40.971717834472656
1702137605192421400,5.07942138671875,8.590036392211914,-15.088724136352539,42.049346923828125
1702137605209413000,5.0964130859375,6.23494815826416,-10.01280403137207,37.52656936645508
1702137605226401300,5.1134013671875,3.0624003410339355,-5.721251487731934,31.13546371459961
1702137605243398100,5.130398193359375,7.038659572601318,-2.186758041381836,28.879135131835938
1702137605260385800,5.1473857421875,9.295814514160156,-0.778789758682251,32.395111083984375
1702137605277378000,5.1643779296875,3.6913139820098877,1.4602419137954712,32.583824157714844
1702137605294380000,5.181380126953125,-3.5937137603759766,5.3316144943237305,25.73202133178711
1702137605311362000,5.198362060546875,-4.605006694793701,5.991584777832031,20.34111976623535
1702137605328347100,5.21534716796875,-0.08893632888793945,5.641836166381836,19.032285690307617
1702137605345345500,5.232345458984375,2.539781332015991,4.60310173034668,18.248825073242188
1702137605362333400,5.24933349609375,1.061535120010376,3.6137304306030273,15.278127670288086
1702137605379325400,5.266325439453125,-1.6450151205062866,2.668346881866455,12.016179084777832
1702137605396315600,5.283315673828125,-2.4957823753356934,1.9365378618240356,8.915953636169434
1702137605413308000,5.300307861328125,-1.808017611503601,1.310912847518921,6.313209533691406
1702137605430297900,5.3172978515625,-0.09861183166503906,0.5022532939910889,4.784954071044922
1702137605447290400,5.334290283203125,0.5511593818664551,-0.764847993850708,3.8898544311523438
1702137605464280600,5.351280517578125,0.06312918663024902,-2.2330400943756104,2.9984092712402344
1702137605481272800,5.36827294921875,-0.7596817016601562,-3.1210594177246094,1.5561494827270508
1702137605498263000,5.385262939453125,-1.9010279178619385,-3.7984249591827393,0.728388786315918
1702137605515254800,5.4022548828125,-3.5407559871673584,-3.5527145862579346,0.3947172164916992
1702137605532245500,5.41924560546875,-4.1753435134887695,-3.2360339164733887,0.47442626953125
1702137605549237200,5.4362373046875,-3.284346103668213,-2.4198670387268066,-0.6222295761108398
1702137605566227700,5.453227783203125,-2.1026878356933594,-2.3390655517578125,-1.2278385162353516
1702137605583220000,5.470219970703125,-0.4722507894039154,-2.165870189666748,-1.5397624969482422
1702137605600210000,5.4872099609375,0.17744645476341248,-2.2274208068847656,-1.4241418838500977
1702137605617192000,5.50419189453125,-0.0071295201778411865,-1.9156138896942139,-1.35528564453125
1702137605634190300,5.5211904296875,0.23847559094429016,-1.7321152687072754,-0.9734058380126953
1702137605651186700,5.538186767578125,0.8560459017753601,-1.6522412300109863,-0.1338520050048828
1702137605668174600,5.555174560546875,2.36904239654541,-1.3370472192764282,0.9337425231933594
1702137605685167000,5.5721669921875,4.334816932678223,-1.0859429836273193,2.1063156127929688
1702137605702157300,5.5891572265625,5.651968479156494,0.11317265033721924,2.8571510314941406
1702137605719149600,5.606149658203125,4.359940528869629,0.45885634422302246,4.005058288574219
1702137605736129000,5.62312890625,3.556216239929199,1.0369369983673096,4.844343185424805
1702137605753133800,5.6401337890625,3.7658491134643555,2.8989179134368896,6.888794898986816
1702137605770120200,5.6571201171875,3.8792777061462402,5.195372581481934,10.81479549407959
1702137605787116500,5.674116455078125,3.091557502746582,6.799930095672607,14.753745079040527
1702137605804104700,5.691104736328125,1.4274488687515259,5.923654079437256,12.917070388793945
1702137605821094400,5.708094482421875,0.4033393859863281,5.148770809173584,7.155891418457031
1702137605838089200,5.725089111328125,0.3575584888458252,4.357345104217529,2.143467426300049
1702137605855079000,5.742078857421875,1.8630937337875366,2.739405632019043,-0.17181968688964844
1702137605872068900,5.75906884765625,3.0845530033111572,0.6569771766662598,-1.7336630821228027
1702137605889062000,5.776061767578125,2.7369773387908936,-1.6003837585449219,-3.6780998706817627
1702137605906051600,5.793051513671875,1.7137832641601562,-3.4082894325256348,-5.489320278167725
1702137605923044000,5.810044189453125,1.0003726482391357,-4.805934906005859,-6.752065181732178
1702137605940034300,5.827034423828125,0.7579102516174316,-5.729222774505615,-7.4478349685668945
1702137605957026300,5.8440263671875,0.9721014499664307,-6.464247703552246,-7.788796424865723
1702137605974016500,5.8610166015625,1.6836903095245361,-6.954746246337891,-8.08907413482666
1702137605991008800,5.8780087890625,2.5429422855377197,-7.6373209953308105,-8.03853988647461
1702137606008001500,5.89500146484375,3.2787699699401855,-8.43152141571045,-7.814790725708008
1702137606024989000,5.911989013671875,3.6050009727478027,-9.171014785766602,-7.881807327270508
1702137606041983500,5.9289833984375,3.249795436859131,-9.875543594360352,-8.158267974853516
1702137606058973700,5.9459736328125,2.494901180267334,-10.791763305664062,-8.403534889221191
1702137606075963600,5.962963623046875,2.2784783840179443,-11.752500534057617,-8.464295387268066
1702137606092956000,5.979955810546875,2.140561580657959,-12.899652481079102,-8.21548080444336
1702137606109948400,5.996948486328125,1.4575806856155396,-13.88963794708252,-8.377606391906738
1702137606126935800,6.013935791015625,1.4171257019042969,-14.894819259643555,-8.47348403930664
1702137606143928600,6.030928466796875,1.4631986618041992,-16.409835815429688,-7.337481498718262
1702137606160908000,6.047907958984375,0.24421679973602295,-18.284931182861328,-4.017405986785889
1702137606177910500,6.06491064453125,-4.00615930557251,-21.010875701904297,-0.8621602058410645
1702137606194893800,6.081893798828125,-1.015027403831482,-20.801673889160156,-0.7712063789367676
1702137606211882500,6.098882568359375,1.3006341457366943,-19.712535858154297,1.2121291160583496
1702137606228878800,6.11587890625,-2.213461399078369,-20.671733856201172,12.364734649658203
1702137606245865000,6.132864990234375,-8.159774780273438,-20.329517364501953,23.49698257446289
1702137606262861800,6.14986181640625,-12.508048057556152,-17.24334716796875,23.125520706176758
1702137606279850000,6.16685009765625,-12.938600540161133,-16.234785079956055,20.55953598022461
1702137606296850400,6.183850341796875,-10.54558277130127,-16.82098960876465,25.106468200683594
1702137606313840600,6.200840576171875,-9.775198936462402,-17.58740234375,30.0880126953125
1702137606330833000,6.2178330078125,-8.208288192749023,-17.423812866210938,31.766450881958008
1702137606347822800,6.23482275390625,-4.72532844543457,-17.863950729370117,33.90351104736328
1702137606364815400,6.2518154296875,-1.9854844808578491,-15.966285705566406,34.92377471923828
1702137606381805600,6.2688056640625,-1.577577829360962,-12.595160484313965,33.111358642578125
1702137606398787300,6.285787353515625,0.2106921672821045,-9.85059928894043,33.757102966308594
1702137606415787800,6.302787841796875,4.173450469970703,-9.751115798950195,37.502044677734375
1702137606432780000,6.319780029296875,7.879769325256348,-10.415273666381836,37.55693054199219
1702137606449758000,6.336758056640625,10.3699369430542,-11.50173568725586,35.500064849853516
1702137606466760400,6.353760498046875,13.724523544311523,-12.571781158447266,33.99103546142578
1702137606483754800,6.370754638671875,17.26259994506836,-13.840087890625,32.76280975341797
1702137606500742000,6.387741943359375,20.298471450805664,-15.243185997009277,31.150569915771484
1702137606517727700,6.404727783203125,21.98358154296875,-17.097763061523438,29.173927307128906
1702137606534727200,6.42172705078125,23.41062355041504,-18.317962646484375,25.745227813720703
1702137606551709400,6.43870947265625,23.878398895263672,-18.715171813964844,23.314273834228516
1702137606568708000,6.4557080078125,24.176555633544922,-17.61351203918457,21.669471740722656
1702137606585699800,6.472699951171875,21.829730987548828,-17.190505981445312,21.478181838989258
1702137606602692000,6.489692138671875,18.894866943359375,-15.183710098266602,18.679290771484375
1702137606619679700,6.5066796875,15.825756072998047,-12.87673568725586,15.391324043273926
1702137606636677400,6.523677490234375,14.628824234008789,-13.026864051818848,15.450575828552246
1702137606653653000,6.540653076171875,14.501455307006836,-12.381547927856445,13.988771438598633
1702137606670657300,6.5576572265625,15.519094467163086,-14.80048942565918,15.424339294433594
1702137606687646700,6.574646728515625,15.174774169921875,-15.945096969604492,16.287708282470703
1702137606704639500,6.591639404296875,12.66850471496582,-15.317358016967773,17.607669830322266
1702137606721629000,6.60862890625,7.884100437164307,-13.92892074584961,20.488170623779297
1702137606738616300,6.6256162109375,2.5792815685272217,-12.210636138916016,23.300392150878906
1702137606755612000,6.64261181640625,-1.7902719974517822,-11.508804321289062,24.354656219482422
1702137606772604400,6.6596044921875,-2.290292501449585,-12.327083587646484,24.247215270996094
1702137606789594400,6.676594482421875,-1.0214745998382568,-14.170195579528809,23.848709106445312
1702137606806586400,6.69358642578125,1.2223663330078125,-12.972825050354004,22.010276794433594
1702137606823576800,6.710576904296875,1.9536375999450684,-11.313932418823242,20.52788543701172
1702137606840569000,6.727569091796875,1.899348497390747,-10.08984661102295,18.89594268798828
1702137606857548500,6.744548583984375,0.40758323669433594,-10.129716873168945,16.80614471435547
1702137606874551000,6.761551025390625,-1.027010440826416,-10.717260360717773,13.882257461547852
1702137606891542000,6.7785419921875,-1.2832584381103516,-11.658555030822754,11.122295379638672
1702137606908534000,6.795533935546875,0.3660879135131836,-13.170580863952637,8.955018997192383
1702137606925524200,6.812524169921875,1.9688210487365723,-15.594536781311035,7.359302997589111
1702137606942505700,6.829505615234375,3.5515542030334473,-18.10284423828125,8.509109497070312
1702137606959495700,6.84649560546875,4.744783401489258,-18.22344207763672,11.307554244995117
1702137606976498700,6.863498779296875,1.8871455192565918,-18.41191864013672,15.03367805480957
1702137606993488600,6.880488525390625,-4.197687149047852,-19.76215362548828,13.835208892822266
1702137607010481200,6.897481201171875,2.135030746459961,-20.793731689453125,10.13219165802002
1702137607027471400,6.914471435546875,15.016600608825684,-19.807083129882812,11.23684024810791
1702137607044463600,6.931463623046875,15.87771224975586,-17.07846450805664,19.056190490722656
1702137607061453600,6.94845361328125,4.359542369842529,-16.915042877197266,24.67039680480957
1702137607078457300,6.965457275390625,-3.557676315307617,-16.514936447143555,24.533870697021484
1702137607095435800,6.982435791015625,1.4757485389709473,-18.1437931060791,30.52065658569336
1702137607112428300,6.99942822265625,8.315185546875,-15.571405410766602,39.83715057373047
1702137607129416200,7.016416259765625,4.032644271850586,-12.071725845336914,42.83306884765625
1702137607146405000,7.033405029296875,-3.951709270477295,-11.95440673828125,38.89220428466797
1702137607163391200,7.05039111328125,-4.485960006713867,-16.106103897094727,40.12594985961914
1702137607180385800,7.0673857421875,3.949335813522339,-17.6644344329834,45.54072952270508
1702137607197373700,7.084373779296875,9.090641021728516,-18.89378547668457,52.19835662841797
1702137607214365000,7.101364990234375,10.21959400177002,-20.446191787719727,53.11953353881836
1702137607231356200,7.118356201171875,8.944905281066895,-24.803756713867188,51.83092498779297
1702137607248350700,7.135350830078125,10.186963081359863,-29.23711395263672,47.950157165527344
1702137607265342000,7.152342041015625,15.201115608215332,-35.731048583984375,45.185890197753906
1702137607282326800,7.169326904296875,25.35763168334961,-41.824913024902344,39.24211883544922
1702137607299320600,7.186320556640625,32.609676361083984,-43.88414001464844,29.587657928466797
1702137607316316200,7.203316162109375,29.88849449157715,-40.881683349609375,20.476043701171875
1702137607333303300,7.22030322265625,23.062070846557617,-37.88380432128906,16.172569274902344
1702137607350295000,7.237294921875,16.671009063720703,-35.95116424560547,15.843996047973633
1702137607367287300,7.254287353515625,10.397937774658203,-34.2424201965332,14.354045867919922
1702137607384279300,7.271279296875,6.635878562927246,-31.912309646606445,7.5667595863342285
1702137607401268500,7.2882685546875,4.930561065673828,-28.29438591003418,0.44304320216178894
1702137607418275800,7.30527587890625,7.920834541320801,-23.526243209838867,-0.0731583833694458
1702137607435256800,7.3222568359375,11.177461624145508,-19.575515747070312,7.035342216491699
1702137607452252200,7.339252197265625,9.050390243530273,-15.730535507202148,13.271781921386719
1702137607469242400,7.356242431640625,3.1145315170288086,-13.873661994934082,14.62396240234375
1702137607486235000,7.37323486328125,0.43442583084106445,-13.7715482711792,13.337371826171875
1702137607503214300,7.39021435546875,2.2713871002197266,-15.332620620727539,12.94052505493164
1702137607520214800,7.40721484375,4.5970587730407715,-17.71465492248535,14.732568740844727
1702137607537207000,7.42420703125,6.557567596435547,-19.68906593322754,15.001869201660156
1702137607554202000,7.4412021484375,7.666541576385498,-20.471233367919922,14.265067100524902
1702137607571185000,7.458184814453125,7.300751686096191,-22.76108741760254,16.693775177001953
1702137607588186600,7.4751865234375,6.3056535720825195,-24.291170120239258,22.622604370117188
1702137607605169400,7.49216943359375,5.496275901794434,-23.43930435180664,28.0587215423584
1702137607622167000,7.5091669921875,3.8812358379364014,-24.203401565551758,29.98550796508789
1702137607639154400,7.526154541015625,5.520123481750488,-26.804765701293945,28.931982040405273
1702137607656136200,7.54313623046875,11.968560218811035,-31.646507263183594,29.895118713378906
1702137607673137000,7.560136962890625,18.979337692260742,-35.84193801879883,41.645469665527344
1702137607690129000,7.57712890625,16.203176498413086,-31.972318649291992,46.91529846191406
1702137607707119000,7.594119140625,4.1915602684021,-28.267654418945312,37.500240325927734
1702137607724111400,7.611111328125,2.003361463546753,-27.599151611328125,32.6779670715332
1702137607741101800,7.628101806640625,8.874954223632812,-29.940900802612305,35.643131256103516
1702137607758096100,7.64509619140625,13.877572059631348,-33.527984619140625,40.985015869140625
1702137607775081700,7.662081787109375,17.788942337036133,-29.97759246826172,46.226318359375
1702137607792076300,7.679076171875,13.968976974487305,-24.713634490966797,44.46148681640625
1702137607809069000,7.696069091796875,5.928592681884766,-21.205638885498047,40.07460403442383
1702137607826059000,7.71305908203125,3.7069039344787598,-19.427505493164062,36.5706901550293
1702137607843051000,7.730051025390625,7.359868049621582,-17.618011474609375,31.75824737548828
1702137607860041000,7.747041015625,13.142011642456055,-16.503355026245117,32.856971740722656
1702137607877031400,7.764031494140625,13.345010757446289,-13.852389335632324,35.71921920776367
1702137607894023700,7.781023681640625,7.1460466384887695,-9.0228853225708,30.16537094116211
1702137607911014000,7.798013916015625,2.259159564971924,-6.570442199707031,25.935319900512695
1702137607928006100,7.815006103515625,2.2586798667907715,-5.039664268493652,25.683069229125977
1702137607944996000,7.83199609375,4.9043989181518555,-3.558171510696411,24.960613250732422
1702137607961988400,7.84898828125,6.8034467697143555,-3.0107128620147705,25.71192169189453
1702137607978978600,7.865978515625,5.494760036468506,-0.8817449808120728,22.96251678466797
1702137607995960300,7.882960205078125,4.345011234283447,0.6103910207748413,17.82896614074707
1702137608012957200,7.899957275390625,5.16306209564209,0.925891637802124,14.98692798614502
1702137608029957000,7.91695703125,7.2299089431762695,1.8246210813522339,14.454607009887695
1702137608046933500,7.93393359375,7.619440078735352,2.512681484222412,15.713269233703613
1702137608063935700,7.950935791015625,6.638394355773926,3.8568637371063232,16.240406036376953
1702137608080925700,7.96792578125,5.293546199798584,4.206418991088867,15.424428939819336
1702137608097908500,7.984908447265625,5.261309623718262,3.825918674468994,13.294158935546875
1702137608114908200,8.001908203125,6.086663246154785,3.10955810546875,11.043031692504883
1702137608131897600,8.018897705078125,6.124251842498779,2.984483003616333,9.029123306274414
1702137608148893200,8.03589306640625,4.227607727050781,2.448348045349121,7.546670913696289
1702137608165883000,8.0528828125,1.8804726600646973,1.5965914726257324,6.820902347564697
1702137608182872800,8.069872802734375,0.3218960762023926,0.6758661270141602,5.922027111053467
1702137608199874800,8.086874755859375,0.5391664505004883,-0.4664487838745117,4.45505428314209
1702137608216854300,8.103854248046876,1.7390813827514648,-1.2346420288085938,2.4919795989990234
1702137608233848800,8.120848876953126,2.4925997257232666,-2.075503349304199,1.9241018295288086
1702137608250837800,8.137837646484375,2.6104867458343506,-3.1056323051452637,2.01290225982666
1702137608267830300,8.154830322265624,2.079763650894165,-3.847656011581421,1.9355840682983398
1702137608284820000,8.171820068359375,0.6199462413787842,-4.379053115844727,1.131230354309082
1702137608301812700,8.188812744140625,-0.5809850692749023,-4.736192226409912,-0.25123023986816406
1702137608318789600,8.20578955078125,-0.7741795778274536,-5.351140975952148,-1.2318840026855469
1702137608335797500,8.222797607421874,0.20517396926879883,-5.383977890014648,-1.8024001121520996
1702137608352785000,8.239784912109375,1.6704926490783691,-5.364290237426758,-1.4392929077148438
1702137608369777200,8.256777099609375,2.4101502895355225,-4.928189754486084,-0.9749717712402344
1702137608386775800,8.27377587890625,2.0716724395751953,-4.403882026672363,-0.6561803817749023
1702137608403762200,8.29076220703125,1.333799958229065,-3.9885027408599854,-1.130594253540039
1702137608420749800,8.307749755859374,1.3072227239608765,-3.532254219055176,-1.9558930397033691
1702137608437742000,8.3247421875,2.1314079761505127,-2.9282522201538086,-2.3388490676879883
1702137608454728000,8.34172802734375,2.6748695373535156,-2.7795908451080322,-1.1186399459838867
1702137608471724300,8.358724365234375,3.0099079608917236,-2.384114980697632,0.16176605224609375
1702137608488714800,8.37571484375,2.661870241165161,-1.8817088603973389,0.14185142517089844
1702137608505706800,8.392706787109375,2.4489822387695312,-1.47346830368042,-0.9197530746459961
1702137608522697000,8.409697021484375,2.6142184734344482,-1.3369133472442627,-1.7137093544006348
1702137608539689500,8.426689453125,3.4217684268951416,-1.5265074968338013,-0.6377553939819336
1702137608556679700,8.4436796875,4.385411739349365,-1.5247387886047363,1.7509737014770508
1702137608573672000,8.460671875,5.397402286529541,-0.9155595898628235,2.7139320373535156
1702137608590662000,8.477661865234374,5.023961544036865,-0.5296339988708496,2.437702178955078
1702137608607661000,8.4946611328125,2.9308502674102783,-0.4081404209136963,1.7510042190551758
1702137608624644000,8.51164404296875,1.5101048946380615,0.1354278326034546,1.2923717498779297
1702137608641634000,8.528634033203126,0.5569624900817871,0.4780919551849365,3.146134376525879
1702137608658618400,8.545618408203126,0.12513399124145508,0.563941478729248,5.3988847732543945
1702137608675619000,8.562619140625,1.0195915699005127,1.4990758895874023,5.422757148742676
1702137608692609300,8.579609375,2.2124431133270264,3.912658452987671,3.9100637435913086
1702137608709601500,8.5966015625,1.418262243270874,6.282751083374023,3.9049501419067383
1702137608726591500,8.613591552734375,-0.015115499496459961,6.234120845794678,6.900720596313477
1702137608743584000,8.630583984375,2.9892797470092773,5.862826824188232,7.703670024871826
1702137608760573700,8.64757373046875,5.670623779296875,7.658852577209473,3.2164831161499023
1702137608777576400,8.664576416015626,2.289865016937256,7.30071496963501,0.10600137710571289
1702137608794553000,8.681552978515626,-0.8776464462280273,6.5442585945129395,-1.1163177490234375
1702137608811552000,8.698552001953125,-2.0175509452819824,5.310158729553223,-1.6307940483093262
1702137608828539000,8.715538818359375,-1.7251076698303223,4.103686809539795,-2.0141096115112305
1702137608845534200,8.7325341796875,-2.2336244583129883,2.4287519454956055,-2.9826788902282715
1702137608862521300,8.749521240234374,-2.6908740997314453,-0.3323554992675781,-4.114041805267334
1702137608879513600,8.766513671875,-1.030207633972168,-3.1896562576293945,-5.3907365798950195
1702137608896503600,8.783503662109375,1.7809665203094482,-5.515854835510254,-6.52855110168457
1702137608913495800,8.800495849609375,4.0099616050720215,-7.43626594543457,-7.4027934074401855
1702137608930485800,8.81748583984375,4.512887954711914,-8.419642448425293,-8.174793243408203
1702137608947484000,8.83448388671875,3.051388740539551,-9.3970365524292,-8.323708534240723
1702137608964468500,8.851468505859375,2.240323066711426,-9.9490327835083,-8.278453826904297
1702137608981460700,8.868460693359374,2.5349793434143066,-10.286727905273438,-8.011771202087402
1702137608998451000,8.885450927734375,2.676144599914551,-11.348212242126465,-7.215872764587402
1702137609015443000,8.90244287109375,2.058495044708252,-12.773670196533203,-7.040007591247559
1702137609032433200,8.91943310546875,1.7045354843139648,-13.795696258544922,-7.974222183227539
1702137609049425700,8.93642578125,2.6558260917663574,-14.785602569580078,-8.979532241821289
1702137609066413300,8.953413330078124,3.9424571990966797,-16.17115020751953,-8.729275703430176
1702137609083410400,8.970410400390625,3.712904930114746,-18.104202270507812,-6.8829498291015625
1702137609100395800,8.987395751953125,2.309572696685791,-19.75320053100586,-5.238483428955078
1702137609117387800,9.0043876953125,0.7992781400680542,-21.79642105102539,-2.1669514179229736
1702137609134379500,9.021379638671876,1.0999839305877686,-24.38528823852539,3.165292263031006
1702137609151365400,9.038365478515624,4.7459187507629395,-25.478153228759766,9.306705474853516
1702137609168352300,9.055352294921875,4.979360103607178,-23.94402313232422,14.277685165405273
1702137609185355300,9.072355224609375,-0.3617669939994812,-21.671621322631836,17.85458755493164
1702137609202345500,9.089345458984376,-7.533265113830566,-20.310901641845703,20.7825984954834
1702137609219335200,9.106335205078125,-11.337265014648438,-20.139680862426758,24.951494216918945
1702137609236327700,9.12332763671875,-9.913755416870117,-19.963001251220703,33.88556671142578
1702137609253320200,9.1403203125,-9.224664688110352,-17.44196891784668,37.48426818847656
1702137609270310000,9.157309814453125,-10.570701599121094,-16.071147918701172,35.37592315673828
1702137609287302100,9.17430224609375,-8.599437713623047,-16.425086975097656,35.50242614746094
1702137609304292600,9.191292724609376,-3.4654228687286377,-16.83233642578125,38.83207321166992
1702137609321284900,9.208284912109375,1.6763637065887451,-14.266880989074707,40.800594329833984
1702137609338274800,9.22527490234375,3.1808958053588867,-10.058526039123535,41.51190185546875
1702137609355267000,9.24226708984375,1.353825569152832,-6.636836528778076,41.08700942993164
1702137609372257500,9.259257568359375,1.4458065032958984,-5.609066963195801,41.11908721923828
1702137609389249500,9.27624951171875,3.664909839630127,-7.114281177520752,41.67394256591797
1702137609406239700,9.29323974609375,12.020447731018066,-10.395840644836426,43.51350021362305
1702137609423232000,9.31023193359375,18.661672592163086,-11.743185043334961,41.545562744140625
1702137609440222200,9.32722216796875,20.470287322998047,-12.103775024414062,35.11935806274414
1702137609457214500,9.34421435546875,19.976612091064453,-12.414165496826172,30.2204532623291
1702137609474204400,9.361204345703126,19.30181121826172,-13.171323776245117,29.702892303466797
1702137609491187200,9.378187255859375,17.802963256835938,-13.365013122558594,28.570446014404297
1702137609508187000,9.395186767578124,15.916168212890625,-13.214359283447266,25.67426872253418
1702137609525176300,9.41217626953125,14.554640769958496,-12.477119445800781,21.86824607849121
1702137609542172000,9.429171875,16.384153366088867,-10.474270820617676,20.40436553955078
1702137609559150800,9.44615087890625,17.602031707763672,-10.496063232421875,19.548824310302734
1702137609576141000,9.46314111328125,17.768831253051758,-11.300153732299805,17.18450164794922
1702137609593142500,9.480142578125,15.748861312866211,-11.080574035644531,14.616368293762207
1702137609610133000,9.497133056640624,12.863327980041504,-11.67546272277832,16.11028480529785
1702137609627129000,9.514129150390625,9.286221504211426,-12.621709823608398,20.132938385009766
1702137609644116500,9.531116455078125,7.050433158874512,-13.156705856323242,24.926902770996094
1702137609661106200,9.548106201171874,2.6844332218170166,-12.506532669067383,26.51728057861328
1702137609678088400,9.56508837890625,-4.061436653137207,-12.203104972839355,25.789552688598633
1702137609695091200,9.58209130859375,-8.68397331237793,-11.391244888305664,24.979347229003906
1702137609712079000,9.5990791015625,-8.869394302368164,-15.185876846313477,26.60855484008789
1702137609729064200,9.616064208984374,-3.180140495300293,-18.026695251464844,25.424161911010742
1702137609746053600,9.6330537109375,2.9578049182891846,-17.94244956970215,22.404939651489258
1702137609763054000,9.65005419921875,6.765758991241455,-16.247882843017578,19.425899505615234
1702137609780043500,9.66704345703125,5.569370269775391,-13.913381576538086,18.081331253051758
1702137609797029400,9.684029296875,-0.2244577407836914,-12.538848876953125,16.93079948425293
1702137609814020400,9.701020263671875,-4.890897274017334,-12.816442489624023,14.855024337768555
1702137609831010300,9.71801025390625,-3.805516242980957,-14.298897743225098,12.058004379272461
1702137609848011000,9.735010986328126,0.5183248519897461,-15.682957649230957,11.252761840820312
1702137609865003500,9.75200341796875,3.1127548217773438,-15.478987693786621,11.885092735290527
1702137609881993200,9.7689931640625,0.8617286682128906,-16.009052276611328,14.382474899291992
1702137609898985500,9.7859853515625,-1.8090810775756836,-17.24732780456543,14.791125297546387
1702137609915975700,9.8029755859375,-1.4793987274169922,-17.078001022338867,9.854497909545898
1702137609932968000,9.819968017578125,4.7184834480285645,-17.864295959472656,9.445782661437988
1702137609949953800,9.836953857421875,6.052883148193359,-19.228588104248047,15.60425090789795
1702137609966950400,9.853950439453126,3.40761661529541,-21.06277847290039,20.309795379638672
1702137609983940400,9.8709404296875,2.939476251602173,-22.349794387817383,19.487422943115234
1702137610000932900,9.887932861328125,7.730307579040527,-22.247915267944336,20.511486053466797
1702137610017923000,9.904923095703126,11.50668716430664,-20.5771541595459,28.995920181274414
1702137610034915300,9.921915283203125,7.633553981781006,-18.3478946685791,36.82279968261719
1702137610051902500,9.93890234375,2.462522506713867,-15.208395004272461,36.50293731689453
1702137610068900000,9.955900146484375,-0.8948252201080322,-15.022432327270508,35.340179443359375
1702137610085888000,9.972887939453125,-2.184055805206299,-17.045495986938477,39.70314025878906
1702137610102880300,9.98988037109375,-0.29439496994018555,-18.570816040039062,49.748661041259766
1702137610119870200,10.0068701171875,2.1132049560546875,-20.324350357055664,54.30707550048828
1702137610136851700,10.023851806640625,6.980193138122559,-21.362937927246094,52.777870178222656
1702137610153852400,10.040852294921875,10.171099662780762,-23.49807357788086,51.95840835571289
1702137610170834200,10.057834228515626,14.067235946655273,-21.414690017700195,50.090919494628906
1702137610187835100,10.074835205078125,17.41881561279297,-20.961483001708984,50.074642181396484
1702137610204816400,10.09181640625,18.777111053466797,-21.155208587646484,51.76144790649414
1702137610221817300,10.1088173828125,16.888595581054688,-23.13711166381836,51.781578063964844
1702137610238799000,10.125799072265625,17.42888069152832,-27.805356979370117,43.56328582763672
1702137610255798300,10.14279833984375,24.02094841003418,-32.225074768066406,33.06142044067383
1702137610272793600,10.159793701171875,30.311111450195312,-33.936004638671875,25.553529739379883
1702137610289782300,10.1767822265625,28.796131134033203,-31.08901023864746,19.591148376464844
1702137610306757600,10.193757568359375,21.873889923095703,-25.74375343322754,15.209178924560547
1702137610323764700,10.2107646484375,14.598418235778809,-22.378936767578125,14.661857604980469
1702137610340757000,10.227757080078124,10.809029579162598,-21.912586212158203,17.24991798400879
1702137610357747000,10.244746826171875,10.688438415527344,-21.703083038330078,17.160564422607422
1702137610374736400,10.261736328125,11.345367431640625,-21.939298629760742,15.883172988891602
1702137610391721500,10.278721435546874,11.533400535583496,-22.2493953704834,15.656179428100586
1702137610408721700,10.2957216796875,10.119790077209473,-21.717912673950195,16.114534378051758
1702137610425709600,10.31270947265625,7.671643257141113,-20.684885025024414,20.884849548339844
1702137610442706400,10.32970654296875,5.105226516723633,-18.153011322021484,25.114234924316406
1702137610459694300,10.3466943359375,3.6242899894714355,-17.519001007080078,25.709930419921875
1702137610476676000,10.363676025390625,5.599338531494141,-17.318397521972656,24.69123077392578
1702137610493676800,10.3806767578125,6.837812900543213,-19.632972717285156,24.676395416259766
1702137610510665700,10.397665771484375,7.374457359313965,-21.34099006652832,24.614959716796875
1702137610527659500,10.414659423828125,8.701586723327637,-22.956928253173828,25.399803161621094
1702137610544653800,10.43165380859375,10.538557052612305,-23.891910552978516,27.747905731201172
1702137610561641500,10.448641357421875,8.645017623901367,-23.73358726501465,28.22418975830078
1702137610578634500,10.465634521484375,5.817724227905273,-24.243160247802734,28.288162231445312
1702137610595623700,10.482623779296874,7.902225494384766,-24.43046760559082,28.112716674804688
1702137610612616000,10.499615966796876,12.272299766540527,-26.567386627197266,30.217491149902344
1702137610629606100,10.516606201171875,15.718790054321289,-28.31256103515625,33.174842834472656
1702137610646588200,10.533588134765624,15.567399978637695,-27.727073669433594,32.399627685546875
1702137610663580200,10.550580078125,12.204488754272461,-27.351032257080078,31.532405853271484
1702137610680571600,10.567571533203125,12.30151653289795,-27.631032943725586,30.43050765991211
1702137610697562400,10.584562255859375,14.537816047668457,-27.002952575683594,29.346723556518555
1702137610714554000,10.60155419921875,17.911819458007812,-27.486698150634766,32.158729553222656
1702137610731544300,10.61854443359375,20.0881290435791,-25.05072784423828,34.804927825927734
1702137610748537900,10.635537841796875,19.796295166015625,-21.214344024658203,36.301910400390625
1702137610765528800,10.65252880859375,17.547706604003906,-16.114469528198242,34.81571578979492
1702137610782518300,10.669518310546875,13.040966033935547,-12.878772735595703,34.91342544555664
1702137610799509500,10.686509521484375,8.285758018493652,-9.600678443908691,32.501739501953125
1702137610816501200,10.703501220703124,2.58944034576416,-6.094564437866211,27.444854736328125
1702137610833491200,10.7204912109375,1.8271420001983643,-1.9304282665252686,22.07823371887207
1702137610850483200,10.737483154296875,5.532602310180664,-1.0124586820602417,23.379261016845703
1702137610867477800,10.754477783203125,6.375891208648682,-0.9362797737121582,26.628995895385742
1702137610884466700,10.771466796875,0.8909735679626465,0.22357064485549927,26.699451446533203
1702137610901467100,10.788467041015625,-2.8168420791625977,4.257471561431885,17.206497192382812
1702137610918457900,10.805457763671875,3.606355667114258,7.029529094696045,12.553027153015137
1702137610935448000,10.822447998046876,11.301997184753418,5.933437347412109,16.324691772460938
1702137610952439800,10.839439697265625,9.146775245666504,4.791086196899414,19.846364974975586
1702137610969430000,10.856429931640625,0.5415310859680176,4.91455078125,18.46283721923828
1702137610986412000,10.873412109375,-6.098206520080566,6.198548316955566,14.142005920410156
1702137611003412700,10.890412841796875,-5.315010070800781,6.439935684204102,10.827804565429688
1702137611020405000,10.907405029296875,0.19610929489135742,5.547340393066406,9.522665023803711
1702137611037395200,10.924395263671874,3.923470973968506,3.922041416168213,9.298995018005371
1702137611054386700,10.94138671875,3.722288131713867,1.7992277145385742,8.626075744628906
1702137611071376000,10.9583759765625,1.4405159950256348,0.5362465381622314,7.054714202880859
1702137611088372200,10.975372314453125,-0.3461627960205078,-0.17951512336730957,5.309541702270508
1702137611105359600,10.992359619140625,-0.3693203926086426,-0.8809010982513428,4.007880210876465
1702137611122352400,11.009352294921875,0.29686594009399414,-1.876699447631836,3.4943923950195312
1702137611139342300,11.02634228515625,1.1694068908691406,-2.77143931388855,2.6990013122558594
1702137611156334600,11.04333447265625,2.189187526702881,-3.0836424827575684,1.1309452056884766
1702137611173324800,11.06032470703125,2.834859609603882,-3.2139172554016113,1.021285057067871
1702137611190322400,11.077322509765626,2.1810944080352783,-3.691135883331299,2.6224756240844727
1702137611207307300,11.094307373046876,1.109968662261963,-3.765852928161621,3.3236989974975586
1702137611224299300,11.11129931640625,-0.051586151123046875,-3.6356587409973145,2.266216278076172
1702137611241289500,11.12828955078125,0.12999749183654785,-3.720550298690796,0.6374063491821289
1702137611258281700,11.14528173828125,1.960587739944458,-4.152836799621582,-0.7714099884033203
1702137611275274200,11.162274169921876,4.90205192565918,-4.556336402893066,-1.6109504699707031
1702137611292255200,11.179255126953125,6.750768184661865,-5.241637706756592,-0.8906335830688477
1702137611309254100,11.196254150390626,6.744886875152588,-5.912096977233887,0.33873844146728516
1702137611326246400,11.213246337890626,5.149815082550049,-5.497334957122803,0.32991600036621094
1702137611343232300,11.230232177734376,3.1969306468963623,-4.527182579040527,-1.2469244003295898
1702137611360229000,11.24722900390625,2.1634976863861084,-4.145572662353516,-2.1389756202697754
1702137611377219300,11.26421923828125,2.3302974700927734,-4.32730770111084,-2.0637736320495605
1702137611394211300,11.28121142578125,3.377492904663086,-4.506475448608398,-1.887436866760254
1702137611411201500,11.298201416015624,4.5193586349487305,-4.610997200012207,-1.2800216674804688
1702137611428194000,11.315194091796876,5.053637981414795,-4.280157089233398,-0.9845438003540039
1702137611445184300,11.332184326171875,4.705469608306885,-3.9594814777374268,-1.207444190979004
1702137611462176000,11.349176025390625,3.4579927921295166,-3.8416972160339355,-1.4235377311706543
1702137611479166500,11.36616650390625,2.530247211456299,-3.696943759918213,-1.7072534561157227
1702137611496148500,11.3831484375,2.8157339096069336,-3.370182991027832,-1.770514965057373
1702137611513144800,11.400144775390626,4.511300086975098,-3.078193187713623,-1.3763461112976074
1702137611530141200,11.41714111328125,5.76923942565918,-2.726125478744507,-0.6925687789916992
1702137611547131400,11.43413134765625,5.681497573852539,-2.5570287704467773,0.3638734817504883
1702137611564123600,11.45112353515625,4.447939395904541,-2.062194347381592,0.050612449645996094
1702137611581113900,11.46811376953125,2.5746641159057617,-1.1165452003479004,-1.1442418098449707
1702137611598095400,11.485095458984375,1.1093285083770752,-0.0560908317565918,-0.9948892593383789
1702137611615096000,11.502095947265625,1.4260368347167969,0.815828800201416,1.8717737197875977
1702137611632088300,11.51908837890625,3.7788589000701904,1.8703887462615967,3.999105453491211
1702137611649078500,11.53607861328125,7.413722038269043,3.302353858947754,2.3416976928710938
1702137611666067000,11.55306689453125,6.353410720825195,5.112247467041016,-0.2671823501586914
1702137611683061000,11.57006103515625,0.4993910789489746,6.608400344848633,-0.7336015701293945
1702137611700053000,11.587052978515626,-4.020501613616943,8.771414756774902,2.3396949768066406
1702137611717043200,11.604043212890625,-4.326212406158447,10.379905700683594,6.112670421600342
1702137611734035500,11.621035400390625,-2.600162982940674,11.621943473815918,7.189473628997803
1702137611751025700,11.638025634765626,-2.6539337635040283,11.703460693359375,4.571689128875732
1702137611768011500,11.655011474609376,-3.5076794624328613,10.963396072387695,1.1251764297485352
1702137611785013000,11.672012939453126,-4.013882637023926,9.566299438476562,-0.5061125755310059
1702137611802002400,11.68900244140625,-4.417398452758789,7.356207370758057,-0.9795608520507812
1702137611818990300,11.705990234375,-3.930999279022217,4.548135757446289,-2.1778359413146973
1702137611835982600,11.722982666015625,-2.7391715049743652,1.8033571243286133,-4.082320213317871
1702137611852973000,11.73997314453125,-0.9951081275939941,-0.8739519119262695,-5.767966270446777
1702137611869965000,11.756965087890626,1.2211577892303467,-3.00594425201416,-6.877819061279297
1702137611886944800,11.77394482421875,3.0820014476776123,-4.638156890869141,-7.669160842895508
1702137611903944700,11.79094482421875,4.134117126464844,-5.906497955322266,-8.600393295288086
1702137611920940300,11.807940185546874,4.191476345062256,-7.323518753051758,-8.96624755859375
1702137611937930000,11.824929931640625,4.257135391235352,-8.606179237365723,-9.175061225891113
1702137611954917400,11.84191748046875,4.9881768226623535,-9.340446472167969,-9.23082447052002
1702137611971912000,11.858911865234376,5.5460309982299805,-10.053162574768066,-9.129776954650879
1702137611988905200,11.8759052734375,5.251827716827393,-10.65204906463623,-9.34153938293457
1702137612005894700,11.892894775390625,4.596507549285889,-11.109055519104004,-9.460824966430664
1702137612022884900,11.909884765625,3.842397928237915,-11.649407386779785,-9.292162895202637
1702137612039873300,11.926873291015625,2.874436855316162,-12.706623077392578,-8.54824447631836
1702137612056871200,11.94387109375,2.9971072673797607,-14.280165672302246,-6.797862529754639
1702137612073840600,11.960840576171876,4.395230770111084,-15.985248565673828,-4.042508602142334
1702137612090849800,11.977849853515625,5.659067153930664,-17.090742111206055,-1.557021141052246
1702137612107841800,11.994841796875,3.840696334838867,-18.358890533447266,0.3792433738708496
1702137612124832300,12.011832275390624,0.34099435806274414,-20.97533416748047,3.0674314498901367
1702137612141827300,12.028827392578124,0.30592143535614014,-22.540058135986328,8.622020721435547
1702137612158801200,12.04580126953125,1.5901178121566772,-22.750520706176758,13.907670021057129
1702137612175807000,12.062806884765624,0.47108983993530273,-21.105335235595703,16.159465789794922
1702137612192797200,12.079797119140625,-3.0856809616088867,-18.437009811401367,16.267593383789062
1702137612209789000,12.096788818359375,-7.464482307434082,-16.999156951904297,19.484298706054688
1702137612226779100,12.113779052734374,-11.257408142089844,-16.157194137573242,24.81855010986328
1702137612243771600,12.130771728515626,-14.480504035949707,-15.82786750793457,30.17222785949707
1702137612260761900,12.147761962890625,-14.5331449508667,-16.47348403930664,31.370393753051758
1702137612277753900,12.16475390625,-10.03005599975586,-18.16781997680664,31.388696670532227
1702137612294744000,12.181744140625,-2.5945513248443604,-17.782224655151367,32.34418869018555
1702137612311736300,12.198736328125,2.192596435546875,-15.375114440917969,34.094947814941406
1702137612328726500,12.2157265625,2.446110248565674,-13.177785873413086,36.30943298339844
1702137612345718800,12.23271875,1.6467244625091553,-12.938175201416016,37.64474105834961
1702137612362695200,12.249695068359374,2.7782957553863525,-14.519744873046875,38.427371978759766
1702137612379698700,12.26669873046875,6.7631402015686035,-16.01239776611328,39.381370544433594
1702137612396694000,12.283694091796875,10.747013092041016,-18.215469360351562,39.70378875732422
1702137612413672000,12.300671875,14.689780235290527,-20.71866798400879,35.834102630615234
1702137612430676500,12.317676513671875,20.261932373046875,-21.287282943725586,31.21480369567871
1702137612447666000,12.334666015625,25.748037338256836,-21.089609146118164,29.834388732910156
1702137612464656400,12.351656494140625,27.11286163330078,-19.072298049926758,28.069337844848633
1702137612481648400,12.3686484375,23.579370498657227,-16.107622146606445,24.62749481201172
1702137612498627800,12.3856279296875,19.131208419799805,-14.21784782409668,21.58984375
1702137612515630800,12.402630859375,17.80280303955078,-12.052233695983887,16.968486785888672
1702137612532620800,12.419620849609375,18.174171447753906,-10.547380447387695,14.736013412475586
1702137612549602600,12.4366025390625,17.95839500427246,-9.959081649780273,16.17102813720703
1702137612566603300,12.453603271484376,15.54974365234375,-11.209551811218262,19.394615173339844
1702137612583595500,12.470595458984375,12.321812629699707,-14.00813102722168,22.065706253051758
1702137612600585700,12.487585693359375,10.0515775680542,-15.307267189025879,21.529823303222656
1702137612617578000,12.504577880859374,6.704235076904297,-13.526981353759766,18.70999526977539
1702137612634565400,12.5215654296875,3.0283124446868896,-13.303211212158203,20.164981842041016
1702137612651563000,12.53856298828125,0.6064431667327881,-14.802651405334473,23.484790802001953
1702137612668548400,12.55554833984375,-0.2859489917755127,-15.463706970214844,24.03780174255371
1702137612685545000,12.572544921875,-0.06383419036865234,-15.341751098632812,22.96859359741211
1702137612702533000,12.589533203125,-0.8591032028198242,-16.072975158691406,21.90802764892578
1702137612719525000,12.606525146484374,-2.109093427658081,-16.018604278564453,20.43978500366211
1702137612736512800,12.6235126953125,-3.464898109436035,-15.380918502807617,18.05640411376953
1702137612753510400,12.640510498046876,-3.1150619983673096,-14.890962600708008,15.79205322265625
1702137612770497500,12.65749755859375,-2.055276870727539,-14.604122161865234,13.932931900024414
1702137612787489800,12.67448974609375,-2.2977242469787598,-15.76025390625,12.302003860473633
1702137612804481500,12.6914814453125,-1.3542571067810059,-18.658411026000977,10.346845626831055
1702137612821469000,12.708468994140626,2.2909884452819824,-20.094524383544922,6.8523688316345215
1702137612838454000,12.7254541015625,3.3347487449645996,-20.252099990844727,5.466824054718018
1702137612855452400,12.742452392578125,2.690634250640869,-20.000640869140625,6.191349983215332
1702137612872447500,12.759447509765625,0.36817216873168945,-20.45261001586914,8.653565406799316
1702137612889437200,12.776437255859374,-2.9023218154907227,-21.465011596679688,9.779397964477539
1702137612906427100,12.79342724609375,-6.1995439529418945,-24.07355308532715,6.781445503234863
1702137612923408100,12.810408203125,-1.5293534994125366,-24.994522094726562,3.196424961090088
1702137612940401400,12.8274013671875,6.650566577911377,-25.198776245117188,5.923222064971924
1702137612957402000,12.844402099609376,9.005937576293945,-22.34485626220703,13.403238296508789
1702137612974389800,12.8613896484375,4.079830169677734,-18.5257568359375,22.58725357055664
1702137612991386400,12.878386474609375,-2.8570518493652344,-16.371440887451172,30.378604888916016
1702137613008364500,12.895364501953125,-3.7371609210968018,-15.589040756225586,33.813812255859375
1702137613025366800,12.91236669921875,2.4133358001708984,-14.744743347167969,35.19197463989258
1702137613042346200,12.92934619140625,6.5036163330078125,-12.88891315460205,38.80452346801758
1702137613059349000,12.946348876953126,4.646642684936523,-11.025354385375977,40.33592987060547
1702137613076329500,12.96332958984375,1.5470452308654785,-9.31115436553955,42.530670166015625
1702137613093331700,12.980331787109375,-0.5305993556976318,-12.140993118286133,50.04955291748047
1702137613110324000,12.997323974609374,4.283778190612793,-17.531147003173828,51.88856506347656
1702137613127311600,13.0143115234375,11.978536605834961,-21.06052017211914,46.5995979309082
1702137613144304400,13.031304443359375,15.694905281066895,-22.63951301574707,41.492393493652344
1702137613161296400,13.04829638671875,18.767139434814453,-24.256969451904297,46.530670166015625
1702137613178274300,13.0652744140625,19.791410446166992,-22.77262306213379,50.830169677734375
1702137613195267600,13.082267578125,14.691539764404297,-23.554981231689453,44.25638198852539
1702137613212271600,13.099271728515625,13.011595726013184,-29.978775024414062,38.42860794067383
1702137613229251600,13.11625146484375,16.72220802307129,-35.43170928955078,30.871807098388672
1702137613246240000,13.133239990234374,18.801288604736328,-36.883514404296875,21.9255428314209
1702137613263236400,13.150236328125,19.180423736572266,-36.52468490600586,15.652748107910156
1702137613280225500,13.1672255859375,18.91375732421875,-32.22129821777344,11.920890808105469
1702137613297216300,13.18421630859375,12.920389175415039,-28.53191375732422,10.020374298095703
1702137613314218000,13.201218017578125,6.511870384216309,-27.355140686035156,8.46520709991455
1702137613331208200,13.218208251953126,4.604363918304443,-25.637229919433594,6.156535625457764
1702137613348198700,13.23519873046875,7.009274005889893,-24.137847900390625,5.92742919921875
1702137613365191000,13.25219091796875,9.302648544311523,-22.135128021240234,9.678523063659668
1702137613382180900,13.269180908203126,6.552705764770508,-20.77117156982422,11.722087860107422
1702137613399162600,13.28616259765625,0.9285964965820312,-20.486454010009766,8.801700592041016
1702137613416150000,13.30314990234375,-0.3635573387145996,-19.17344856262207,4.276012420654297
1702137613433158100,13.320158203125,2.22524356842041,-18.25625991821289,4.188065052032471
1702137613450145800,13.337145751953125,3.722567081451416,-16.84503936767578,7.430348873138428
1702137613467137800,13.3541376953125,3.1275033950805664,-15.953121185302734,11.33934211730957
1702137613484128000,13.3711279296875,1.5510902404785156,-15.526296615600586,14.231903076171875
1702137613501120300,13.388120361328125,1.3940839767456055,-16.089672088623047,16.19212532043457
1702137613518110700,13.40511083984375,2.7922000885009766,-17.66423797607422,16.939754486083984
1702137613535102700,13.422102783203124,4.9156813621521,-20.324522018432617,18.7733154296875
1702137613552093000,13.439093017578125,6.738454818725586,-23.30828094482422,23.529396057128906
1702137613569085000,13.4560849609375,6.86185359954834,-26.376171112060547,26.818105697631836
1702137613586066700,13.473066650390624,7.249350547790527,-27.951391220092773,29.158897399902344
1702137613603067600,13.490067626953126,5.792614459991455,-29.18651008605957,33.56360626220703
1702137613620057900,13.507057861328125,2.932082414627075,-30.036880493164062,39.00137710571289
1702137613637039600,13.52403955078125,0.2827633023262024,-27.384666442871094,35.6650390625
1702137613654040000,13.5410400390625,0.4717641770839691,-27.029094696044922,29.40032958984375
1702137613671032300,13.5580322265625,2.2539424896240234,-27.895217895507812,28.209321975708008
1702137613688012300,13.57501220703125,4.375294208526611,-28.49287986755371,28.506193161010742
1702137613705013800,13.592013671875,3.5900022983551025,-32.00508499145508,32.47957229614258
1702137613722005800,13.609005859375,0.47124868631362915,-31.520793914794922,34.54759216308594
1702137613738997200,13.625997314453125,-1.0705105066299438,-27.589731216430664,31.288162231445312
1702137613755987200,13.6429873046875,-2.628230571746826,-26.507627487182617,30.69112205505371
1702137613772981000,13.65998095703125,-3.0224406719207764,-28.244779586791992,30.349538803100586
1702137613789958100,13.676958251953126,3.0982422828674316,-25.465177536010742,26.09889793395996
1702137613806962200,13.693962158203124,8.010469436645508,-22.4976806640625,27.77463150024414
1702137613823952000,13.710951904296875,4.7587480545043945,-22.52899169921875,34.247535705566406
1702137613840944400,13.7279443359375,-0.9385528564453125,-19.233701705932617,33.48042297363281
1702137613857933300,13.744933349609376,-1.1781915426254272,-14.355154037475586,27.874481201171875
1702137613874928000,13.76192822265625,2.451073408126831,-11.647369384765625,28.679025650024414
1702137613891910400,13.778910400390625,2.9462850093841553,-11.172453880310059,33.312889099121094
1702137613908914200,13.7959140625,2.361623525619507,-7.309897422790527,29.800159454345703
1702137613925897000,13.81289697265625,3.500807762145996,-0.5662894248962402,22.672019958496094
1702137613942891800,13.829891845703125,0.9994271993637085,2.290273666381836,25.28634262084961
1702137613959882000,13.846882080078124,-4.4142303466796875,3.701399564743042,28.984275817871094
1702137613976874000,13.8638740234375,-8.929852485656738,5.428846836090088,25.864988327026367
1702137613993864200,13.8808642578125,-8.250299453735352,6.935388565063477,20.522171020507812
1702137614010856400,13.8978564453125,-3.906003475189209,7.3913421630859375,16.864784240722656
1702137614027846400,13.914846435546876,0.557553768157959,7.436222076416016,15.143206596374512
1702137614044828400,13.931828369140625,1.8200442790985107,6.112666606903076,15.117323875427246
1702137614061828900,13.948828857421875,0.18348360061645508,4.98500919342041,15.36426830291748
1702137614078811000,13.965810791015626,-3.575613021850586,3.804753541946411,14.290270805358887
1702137614095804400,13.982804443359376,-5.975473403930664,2.4047508239746094,10.872775077819824
1702137614112802600,13.999802490234375,-5.380230903625488,0.8401761054992676,7.145524978637695
1702137614129795000,14.016795166015624,-2.6184606552124023,-0.5349628925323486,4.612184524536133
1702137614146774300,14.033774169921875,0.8505909442901611,-1.6569950580596924,3.0503416061401367
1702137614163770400,14.050770263671875,3.120816469192505,-2.692746639251709,1.9733562469482422
1702137614180764400,14.067764404296875,2.957915782928467,-4.364546298980713,2.292910575866699
1702137614197753600,14.084753662109375,1.4199382066726685,-5.597812175750732,1.883798599243164
1702137614214747000,14.101746826171874,-0.01962292194366455,-5.943354606628418,0.4427013397216797
1702137614231730700,14.118730712890626,-0.9672589898109436,-5.699095249176025,-1.5608596801757812
1702137614248728300,14.135728271484375,-0.043511033058166504,-5.0440545082092285,-2.432248115539551
1702137614265713000,14.152712890625,1.3505253791809082,-5.0745134353637695,-1.2114505767822266
1702137614282707700,14.169707763671875,2.4196460247039795,-5.628017425537109,0.9182071685791016
1702137614299697000,14.18669677734375,3.547762393951416,-5.289561748504639,2.293389320373535
1702137614316687000,14.20368701171875,4.81771183013916,-4.744349479675293,1.732773780822754
1702137614333680000,14.22068017578125,6.222075462341309,-4.471094131469727,0.9779291152954102
1702137614350670600,14.237670654296876,7.745054244995117,-4.54831075668335,0.631312370300293
1702137614367664400,14.254664306640626,8.789209365844727,-4.711457252502441,0.6385879516601562
1702137614384654600,14.271654541015625,8.965486526489258,-4.759925842285156,0.9490528106689453
1702137614401644800,14.288644775390624,8.931421279907227,-4.664340972900391,0.8783073425292969
1702137614418638300,14.305638427734374,8.640857696533203,-4.361620903015137,0.7623519897460938
1702137614435637800,14.3226376953125,7.6788787841796875,-4.03398323059082,0.4871053695678711
1702137614452627700,14.339627685546875,6.552074432373047,-3.880141258239746,-0.10551834106445312
1702137614469617700,14.35661767578125,6.219491481781006,-3.738569736480713,-0.5439057350158691
1702137614486610000,14.37360986328125,6.2293548583984375,-3.454892635345459,-0.36074018478393555
1702137614503591200,14.390591064453124,6.43173885345459,-2.8123836517333984,0.5268745422363281
1702137614520592400,14.40759228515625,5.405249118804932,-2.3016726970672607,1.7757792472839355
1702137614537582600,14.42458251953125,3.2910587787628174,-1.5837719440460205,2.420722007751465
1702137614554572000,14.441572021484374,1.4306917190551758,-1.3827227354049683,1.6141223907470703
1702137614571566800,14.45856689453125,1.000478744506836,-0.837291955947876,0.013410568237304688
1702137614588557800,14.475557861328125,1.3328440189361572,0.08350276947021484,-0.7298521995544434
1702137614605547300,14.49254736328125,1.0327751636505127,0.7659909725189209,-0.3316226005554199
1702137614622525700,14.509525634765625,0.47032785415649414,1.3995234966278076,2.099257469177246
1702137614639529700,14.52652978515625,-1.4166254997253418,2.153743267059326,3.863724708557129
1702137614656512000,14.543511962890625,-3.2459192276000977,3.51707124710083,3.619431495666504
1702137614673512400,14.560512451171874,-4.351528644561768,5.574227333068848,2.1571173667907715
1702137614690503700,14.577503662109375,-4.519750118255615,7.688447952270508,1.2592883110046387
1702137614707488000,14.594488037109375,-4.151139259338379,8.974651336669922,2.0464391708374023
1702137614724487000,14.61148681640625,-3.1030311584472656,9.476814270019531,2.983029365539551
1702137614741466400,14.62846630859375,-1.3018407821655273,9.329216957092285,2.3227834701538086
1702137614758459100,14.645459228515625,-0.6538171768188477,8.789007186889648,0.2785019874572754
1702137614775457300,14.662457275390626,-0.9733386039733887,7.7200093269348145,-2.1258606910705566
1702137614792454000,14.679453857421874,-1.1840271949768066,6.507755279541016,-3.9806885719299316
1702137614809441800,14.69644189453125,-0.4941291809082031,4.522710800170898,-4.688961505889893
1702137614826435600,14.713435546875,0.7787537574768066,2.0473732948303223,-5.5691986083984375
1702137614843422700,14.730422607421875,2.178077459335327,-0.21911191940307617,-6.960260391235352
1702137614860416300,14.747416259765625,3.2456657886505127,-2.17545747756958,-8.419075012207031
1702137614877406700,14.76440673828125,4.043934345245361,-3.9088828563690186,-9.313114166259766
1702137614894402000,14.781402099609375,5.116594314575195,-5.590853691101074,-8.904098510742188
1702137614911375400,14.798375244140624,5.461077690124512,-7.6912150382995605,-7.6473493576049805
1702137614928377600,14.815377685546874,5.039623737335205,-9.694746017456055,-6.886902809143066
1702137614945374500,14.83237451171875,4.9101457595825195,-11.068767547607422,-7.600347518920898
1702137614962364700,14.84936474609375,5.307197093963623,-11.676435470581055,-9.312673568725586
1702137614979354400,14.866354248046875,5.610832214355469,-12.938423156738281,-10.02973747253418
1702137614996345900,14.883345947265624,5.182578086853027,-14.340826988220215,-8.474554061889648
1702137615013336000,14.900336181640625,2.3641350269317627,-16.16936683654785,-5.949462890625
1702137615030328600,14.91732861328125,3.296863317489624,-17.53693962097168,-4.196147918701172
1702137615047318500,14.934318603515624,5.27008056640625,-17.701608657836914,-1.5658483505249023
1702137615064311000,14.95131103515625,2.4133265018463135,-17.40962791442871,3.5875625610351562
1702137615081301200,14.96830126953125,-6.140342712402344,-18.4459285736084,9.274260520935059
1702137615098294000,14.9852939453125,-9.419214248657227,-18.634624481201172,13.732490539550781
1702137615115283500,15.002283447265626,-6.928358554840088,-17.854724884033203,17.573169708251953
1702137615132271400,15.019271240234374,-7.782993316650391,-15.175308227539062,20.54203987121582
1702137615149265700,15.036265625,-15.201889038085938,-14.096125602722168,23.737781524658203
1702137615166258200,15.053258056640624,-20.22630500793457,-14.078481674194336,25.6163330078125
1702137615183248100,15.070248046875,-18.52595329284668,-14.257888793945312,27.228477478027344
1702137615200230000,15.08722998046875,-12.621999740600586,-13.035429000854492,29.51981544494629
1702137615217230600,15.104230712890624,-8.78788948059082,-10.915506362915039,29.910110473632812
1702137615234223000,15.12122314453125,-6.438655853271484,-8.499213218688965,30.151866912841797
1702137615251227100,15.13822705078125,-6.782814025878906,-5.925408840179443,32.77240753173828
1702137615268202500,15.155202392578126,-9.634696960449219,-5.073307991027832,37.8138313293457
1702137615285195300,15.1721953125,-6.993270397186279,-5.9120378494262695,41.023162841796875
1702137615302187800,15.189187744140625,1.331695556640625,-7.293257236480713,41.434844970703125
1702137615319178000,15.206177978515624,9.058979034423828,-9.40344524383545,39.230445861816406
1702137615336161300,15.223161376953126,16.562862396240234,-9.32201862335205,34.899444580078125
1702137615353160200,15.24016015625,20.51863670349121,-9.158358573913574,34.323814392089844
1702137615370152200,15.257152099609375,18.232440948486328,-8.637980461120605,34.45408248901367
1702137615387130000,15.274130126953125,15.073336601257324,-7.197089195251465,31.104095458984375
1702137615404123000,15.291122802734375,17.212223052978516,-7.325915813446045,30.733854293823242
1702137615421125000,15.308125,21.128005981445312,-7.691664218902588,31.120838165283203
1702137615438119700,15.32511962890625,20.84136962890625,-5.7647905349731445,27.112051010131836
1702137615455107300,15.342107421875,16.308319091796875,-4.698376655578613,22.54408073425293
1702137615472099600,15.359099609375,15.905435562133789,-1.9716835021972656,17.016019821166992
1702137615489089800,15.37608984375,15.773843765258789,-1.7377538681030273,16.04363441467285
1702137615506073600,15.393073486328126,15.756038665771484,-3.0067977905273438,18.046165466308594
1702137615523072000,15.410072021484375,15.655808448791504,-6.050515651702881,21.255355834960938
1702137615540053800,15.4270537109375,16.257680892944336,-9.137080192565918,22.074722290039062
1702137615557056300,15.44405615234375,16.731897354125977,-11.02243709564209,21.725889205932617
1702137615574045200,15.461045166015625,15.261932373046875,-9.974498748779297,20.318758010864258
1702137615591037000,15.478036865234374,8.750494956970215,-8.313222885131836,20.649337768554688
1702137615608026600,15.495026611328125,0.9448965787887573,-6.498993873596191,22.980331420898438
1702137615625022000,15.51202197265625,-3.614316463470459,-7.803287982940674,26.154850006103516
1702137615642011600,15.52901171875,-2.3201401233673096,-10.475976943969727,24.34067153930664
1702137615658991400,15.545991455078125,1.62406587600708,-10.368097305297852,20.343416213989258
1702137615675994000,15.562994140625,3.972583055496216,-9.686567306518555,19.208702087402344
1702137615692984300,15.579984375,3.894245147705078,-8.804131507873535,19.92485237121582
1702137615709972500,15.596972412109375,2.0032408237457275,-8.530313491821289,19.823843002319336
1702137615726970400,15.613970458984374,-0.2806434631347656,-9.084712982177734,18.249431610107422
1702137615743959000,15.630958984375,-0.6281747817993164,-9.95280933380127,14.343084335327148
1702137615760948500,15.647948486328126,1.1903939247131348,-11.07705307006836,10.031160354614258
1702137615777941200,15.664941162109375,3.85575008392334,-11.55323600769043,6.2482733726501465
1702137615794920700,15.681920654296874,6.2915520668029785,-11.889399528503418,5.366123199462891
1702137615811921700,15.698921630859376,5.400904655456543,-10.61215591430664,6.1346516609191895
1702137615828915700,15.715915771484376,4.136099338531494,-10.713175773620605,8.882280349731445
1702137615845895700,15.732895751953125,2.6776747703552246,-12.709768295288086,12.685439109802246
1702137615862896000,15.749896240234374,2.997485637664795,-15.223291397094727,12.77359390258789
1702137615879888400,15.766888427734376,4.361074447631836,-17.70474624633789,8.600336074829102
1702137615896879900,15.7838798828125,7.895016670227051,-19.2546329498291,5.452868938446045
1702137615913870600,15.80087060546875,9.17357063293457,-18.46990966796875,7.842301845550537
1702137615930860800,15.81786083984375,5.770421981811523,-17.857101440429688,15.338495254516602
1702137615947853300,15.834853271484375,2.060490846633911,-18.46830940246582,23.16334342956543
1702137615964843300,15.85184326171875,3.217268943786621,-18.53269386291504,23.804187774658203
1702137615981834200,15.868834228515626,6.361752033233643,-17.919723510742188,24.06461524963379
1702137615998816000,15.88581591796875,3.9625585079193115,-17.84992218017578,28.14914894104004
1702137616015818500,15.902818603515625,-1.5229589939117432,-17.509342193603516,31.112884521484375
1702137616032820700,15.91982080078125,-1.5794799327850342,-19.848554611206055,36.77194595336914
1702137616049799700,15.936799560546875,2.7024238109588623,-21.966796875,42.54681396484375
1702137616066791000,15.953791015625,3.559352397918701,-23.62798309326172,46.21567153930664
1702137616083783000,15.970782958984374,2.9669504165649414,-25.469100952148438,45.921695709228516
1702137616100760000,15.987760009765625,6.436887741088867,-25.738727569580078,44.558258056640625
1702137616117756000,16.004755859375,11.562368392944336,-24.062606811523438,44.22343826293945
1702137616134754000,16.021754150390624,14.417543411254883,-21.128896713256836,45.50679397583008
1702137616151750400,16.03875048828125,13.249284744262695,-17.74350929260254,46.12272644042969
1702137616168737500,16.055737548828127,11.095499038696289,-18.284149169921875,47.81016540527344
1702137616185730000,16.07272998046875,12.219684600830078,-22.70584487915039,46.43756866455078
1702137616202720300,16.08972021484375,16.382566452026367,-28.563020706176758,40.63642883300781
1702137616219698200,16.1066982421875,20.441129684448242,-32.86501693725586,32.5141716003418
1702137616236702500,16.123702392578124,20.96991729736328,-34.59642791748047,25.18198013305664
1702137616253694700,16.14069482421875,17.223735809326172,-34.382320404052734,19.131084442138672
1702137616270685000,16.157684814453123,13.39292049407959,-32.41801452636719,13.026493072509766
1702137616287677200,16.17467724609375,9.659884452819824,-29.719188690185547,8.739900588989258
1702137616304667100,16.191667236328126,6.7117509841918945,-28.011425018310547,6.901601314544678
1702137616321657300,16.2086572265625,4.351350784301758,-27.289531707763672,5.963470458984375
1702137616338662400,16.225662353515624,4.301812171936035,-26.746448516845703,5.49112606048584
1702137616355642000,16.24264208984375,6.515941619873047,-23.959152221679688,5.361087799072266
1702137616372632300,16.25963232421875,7.037296295166016,-23.14436149597168,6.666032314300537
1702137616389624000,16.2766240234375,7.4385857582092285,-22.769962310791016,8.651586532592773
1702137616406614500,16.293614501953126,8.259162902832031,-22.587238311767578,12.89870834350586
1702137616423607000,16.31060693359375,9.654367446899414,-23.65557289123535,18.25090789794922
1702137616440596200,16.32759619140625,10.690073013305664,-25.0247745513916,22.653610229492188
1702137616457589000,16.344589111328126,10.538331985473633,-26.790225982666016,25.569652557373047
1702137616474577200,16.3615771484375,7.687627792358398,-29.33285903930664,29.783735275268555
1702137616491573200,16.3785732421875,4.284013271331787,-31.676265716552734,37.732887268066406
1702137616508561700,16.395561767578126,3.5754570960998535,-31.076763153076172,40.905540466308594
1702137616525554000,16.412553955078124,3.3984968662261963,-30.092214584350586,38.556190490722656
1702137616542546400,16.42954638671875,2.7410080432891846,-31.466604232788086,35.565303802490234
1702137616559536000,16.4465361328125,1.942530870437622,-32.924659729003906,30.29280662536621
1702137616576526300,16.4635263671875,-1.9670895338058472,-35.41376876831055,28.323501586914062
1702137616593518600,16.4805185546875,0.48109281063079834,-36.29203796386719,28.762248992919922
1702137616610508500,16.497508544921875,5.318948745727539,-37.09823989868164,30.848417282104492
1702137616627501300,16.514501220703124,8.670391082763672,-37.25953674316406,32.661109924316406
1702137616644491000,16.531490966796873,10.656927108764648,-37.31180191040039,33.324153900146484
1702137616661473500,16.5484736328125,9.607796669006348,-35.969390869140625,33.91831970214844
1702137616678474200,16.56547412109375,7.30918550491333,-33.42379379272461,33.951141357421875
1702137616695453200,16.582453125,5.4587249755859375,-30.35500717163086,37.4184455871582
1702137616712447700,16.59944775390625,3.8981356620788574,-26.120540618896484,40.18655776977539
1702137616729438700,16.616438720703126,4.558846473693848,-22.386457443237305,39.42407989501953
1702137616746432300,16.633432373046876,5.311341762542725,-17.314786911010742,34.742576599121094
1702137616763420000,16.650419921875,3.9409449100494385,-11.937257766723633,30.010251998901367
1702137616780412700,16.66741259765625,7.201357841491699,-9.512093544006348,31.07587432861328
1702137616797406000,16.684406005859376,7.136697292327881,-5.855949401855469,35.26158905029297
1702137616814418400,16.70141845703125,1.3374040126800537,-0.8249585628509521,33.96269607543945
1702137616831393300,16.718393310546876,-3.868960380554199,2.8625879287719727,25.089126586914062
1702137616848385800,16.7353857421875,2.0645930767059326,5.6407880783081055,20.032188415527344
1702137616865367300,16.7523671875,7.324214935302734,6.512167930603027,23.405792236328125
1702137616882365400,16.769365478515624,6.020861625671387,7.521883010864258,24.835716247558594
1702137616899362800,16.78636279296875,-0.08010482788085938,7.249521255493164,22.60944175720215
1702137616916340500,16.803340576171873,-3.2447359561920166,6.771698474884033,17.725234985351562
1702137616933342500,16.820342529296877,-1.4760509729385376,6.701468467712402,13.208019256591797
1702137616950333700,16.837333740234374,1.5376148223876953,6.021073341369629,11.54279613494873
1702137616967324200,16.85432421875,3.359632968902588,5.188063621520996,11.05629825592041
1702137616984315400,16.8713154296875,3.346240282058716,3.3489677906036377,10.701982498168945
1702137617001307600,16.8883076171875,1.711266040802002,1.7412326335906982,9.42330551147461
1702137617018297300,16.90529736328125,-0.007105112075805664,0.30614233016967773,7.495722770690918
1702137617035289600,16.92228955078125,0.0006034374237060547,-1.211245059967041,5.556666374206543
1702137617052280000,16.939280029296874,0.9830832481384277,-2.4842636585235596,4.8793792724609375
1702137617069272000,16.95627197265625,0.36570143699645996,-4.110869884490967,5.577773094177246
1702137617086262300,16.97326220703125,-0.18578994274139404,-5.380343437194824,5.112429618835449
1702137617103254500,16.990254638671875,-0.4491187334060669,-5.799578666687012,3.07977294921875
1702137617120244700,17.00724462890625,-0.4595785140991211,-6.222164154052734,0.9953441619873047
1702137617137237000,17.024237060546874,-0.34303104877471924,-7.041543006896973,0.7226953506469727
1702137617154225200,17.04122509765625,-0.45213979482650757,-7.711181640625,0.6138229370117188
1702137617171210800,17.058210693359374,-0.9068573117256165,-8.185664176940918,0.0017232894897460938
1702137617188207000,17.07520703125,1.0210282802581787,-9.1331205368042,-0.7752599716186523
1702137617205204200,17.092204345703124,5.1762003898620605,-8.879630088806152,-2.312605381011963
1702137617222181400,17.109181396484374,7.348243236541748,-8.5773286819458,-3.4904584884643555
1702137617239184100,17.12618408203125,7.075660705566406,-8.34853458404541,-3.702118396759033
1702137617256163800,17.143163818359376,5.414713382720947,-8.086074829101562,-2.9227519035339355
1702137617273166800,17.160166748046876,3.739752769470215,-7.289763450622559,-2.1775894165039062
1702137617290156800,17.17715673828125,3.272069215774536,-6.150167942047119,-2.4129843711853027
1702137617307148800,17.194148681640623,4.617683410644531,-5.1363091468811035,-3.1239547729492188
1702137617324140500,17.211140625,6.2325639724731445,-4.440837860107422,-3.1221790313720703
1702137617341132800,17.2281328125,5.366988658905029,-3.626281261444092,-1.2310552597045898
1702137617358120200,17.2451201171875,1.4754493236541748,-3.228973388671875,0.9416599273681641
1702137617375114000,17.262114013671876,-0.12592506408691406,-2.931307315826416,1.4889087677001953
1702137617392104000,17.27910400390625,0.1295177936553955,-2.225851058959961,-0.039725303649902344
1702137617409096000,17.296095947265623,1.1822681427001953,-1.2331209182739258,-1.8546204566955566
1702137617426086400,17.31308642578125,1.8055514097213745,-0.10474586486816406,-2.311537265777588
1702137617443078700,17.33007861328125,1.3122661113739014,0.5802493095397949,-1.2670722007751465
1702137617460068900,17.34706884765625,-0.27237701416015625,0.9485008716583252,1.5565595626831055
1702137617477060900,17.364060791015625,-1.7319307327270508,1.4047250747680664,4.6138200759887695
1702137617494051300,17.38105126953125,-2.415329933166504,1.8695440292358398,5.138503074645996
1702137617511043300,17.398043212890624,-0.4063692092895508,3.0895044803619385,2.9225616455078125
1702137617528028000,17.41502783203125,2.1488537788391113,5.253093719482422,1.0158352851867676
1702137617545024300,17.432024169921874,3.518282413482666,7.572249412536621,2.1462607383728027
1702137617562017500,17.449017578125,1.6919689178466797,7.778140544891357,4.859886646270752
1702137617578997500,17.46599755859375,-1.3784332275390625,7.837108135223389,4.81026029586792
1702137617595995100,17.4829951171875,-2.286339282989502,7.97045373916626,2.488339900970459
1702137617612998000,17.499997802734374,-0.7098507881164551,6.761351108551025,1.1397790908813477
1702137617629982700,17.516982666015625,2.6696081161499023,4.857934474945068,0.051573753356933594
1702137617646962700,17.533962646484376,5.420041084289551,2.6455764770507812,-1.6933073997497559
1702137617663946200,17.5509462890625,6.794377326965332,0.6374459266662598,-3.6531052589416504
1702137617680948500,17.567948486328124,7.044915199279785,-1.021432876586914,-5.229530334472656
1702137617697936400,17.584936279296876,6.1821489334106445,-2.453160285949707,-6.35768461227417
1702137617714927400,17.60192724609375,4.501188278198242,-3.9602811336517334,-6.916225433349609
1702137617731917300,17.618917236328127,3.2316277027130127,-5.469216346740723,-7.372171401977539
1702137617748911900,17.635911865234377,3.0956826210021973,-7.210930347442627,-7.564065933227539
1702137617765900800,17.65290087890625,3.6219964027404785,-8.876565933227539,-8.159568786621094
1702137617782897700,17.669897705078125,4.377374172210693,-10.1970853805542,-8.906665802001953
1702137617799883300,17.68688330078125,3.5937693119049072,-11.240073204040527,-9.690641403198242
1702137617816875000,17.703875,2.826775550842285,-12.826316833496094,-9.665517807006836
1702137617833868800,17.720868896484376,3.6242947578430176,-13.246192932128906,-9.6655912399292
1702137617850857200,17.737857177734377,3.022683620452881,-13.634448051452637,-8.524773597717285
1702137617867846700,17.7548466796875,-0.24473357200622559,-13.830151557922363,-6.1262993812561035
1702137617884841700,17.771841796875,-3.7115447521209717,-14.437231063842773,-3.0625882148742676
1702137617901832700,17.788832763671873,-4.771951198577881,-14.176807403564453,0.16959285736083984
1702137617918821600,17.805821533203126,-7.151544094085693,-14.51507568359375,2.209113121032715
1702137617935822600,17.822822509765626,-10.983062744140625,-15.07381820678711,4.408184051513672
1702137617952814600,17.839814697265624,-15.141862869262695,-16.48584747314453,8.103469848632812
1702137617969804500,17.856804443359376,-17.711881637573242,-17.1686954498291,12.710375785827637
1702137617986796800,17.873796875,-16.80921745300293,-17.341245651245117,16.35094451904297
1702137618003787000,17.890787109375,-13.099711418151855,-16.56207275390625,17.42620849609375
1702137618020766500,17.907766357421874,-10.200048446655273,-15.261221885681152,19.013896942138672
1702137618037772000,17.92477197265625,-9.919903755187988,-14.28864860534668,22.26485252380371
1702137618054762000,17.941761962890624,-11.165804862976074,-13.16355037689209,25.805286407470703
1702137618071751400,17.95875146484375,-10.620353698730469,-12.485849380493164,28.050399780273438
1702137618088744700,17.97574462890625,-5.47234582901001,-11.64162540435791,30.775653839111328
1702137618105734400,17.992734375,0.6058770418167114,-10.279839515686035,32.71936798095703
1702137618122723800,18.009723876953124,4.547275543212891,-9.201401710510254,32.42443084716797
1702137618139716900,18.026716796875,6.724912643432617,-9.096064567565918,31.30292320251465
1702137618156708900,18.043708984375,7.427324295043945,-9.337546348571777,30.817419052124023
1702137618173699000,18.060698974609377,7.875937461853027,-10.05306625366211,30.739089965820312
1702137618190691000,18.077691162109375,8.178363800048828,-11.838027954101562,30.564735412597656
1702137618207681500,18.094681640625,9.142622947692871,-13.117517471313477,29.482585906982422
1702137618224673500,18.111673583984373,13.469684600830078,-15.769556045532227,29.758705139160156
1702137618241663700,18.128663818359374,20.40192413330078,-16.547508239746094,27.11543083190918
1702137618258654500,18.145654541015624,24.203922271728516,-16.119503021240234,24.585927963256836
1702137618275647000,18.16264697265625,22.995174407958984,-15.32746696472168,23.877660751342773
1702137618292638700,18.179638671875,19.970247268676758,-14.351629257202148,23.285621643066406
1702137618309628700,18.196628662109376,16.448965072631836,-13.777128219604492,21.94230079650879
1702137618326620700,18.21362060546875,15.655488014221191,-12.356673240661621,19.80450439453125
1702137618343611100,18.230611083984375,16.184844970703125,-10.659815788269043,17.080814361572266
1702137618360603100,18.24760302734375,14.91408634185791,-9.933890342712402,14.20484733581543
1702137618377593300,18.26459326171875,11.746251106262207,-9.382305145263672,13.083525657653809
1702137618394590700,18.2815908203125,9.30010986328125,-10.248181343078613,13.945672035217285
1702137618411571000,18.298571044921875,7.239382743835449,-10.336806297302246,14.524087905883789
1702137618428566800,18.31556689453125,7.469806671142578,-9.955074310302734,15.532953262329102
1702137618445551400,18.33255126953125,6.254450798034668,-9.62907886505127,17.419294357299805
1702137618462531600,18.349531494140624,3.5251173973083496,-9.986540794372559,20.612234115600586
1702137618479543300,18.366543212890626,0.9932773113250732,-12.031173706054688,24.39832305908203
1702137618496528100,18.383528076171874,2.314483404159546,-14.706014633178711,25.732864379882812
1702137618513522400,18.4005224609375,5.152132987976074,-16.992298126220703,24.064701080322266
1702137618530515500,18.417515380859374,7.808347702026367,-16.944934844970703,20.919296264648438
1702137618547505400,18.43450537109375,9.190211296081543,-14.304993629455566,17.817949295043945
1702137618564497700,18.45149755859375,8.070707321166992,-12.104169845581055,17.605724334716797
1702137618581487900,18.46848779296875,4.563803672790527,-10.69211483001709,20.130809783935547
1702137618598480100,18.485480224609375,-0.30190515518188477,-9.794212341308594,20.883291244506836
1702137618615470000,18.502469970703125,-2.748781204223633,-9.64419174194336,17.543243408203125
1702137618632462300,18.51946240234375,-0.546013355255127,-10.436576843261719,13.355219841003418
1702137618649457400,18.53645751953125,3.254906177520752,-11.570462226867676,12.041189193725586
1702137618666442200,18.553442138671876,5.0014328956604,-13.75870132446289,16.988096237182617
1702137618683437300,18.570437255859375,3.4867682456970215,-13.947759628295898,18.997787475585938
1702137618700427300,18.58742724609375,-1.1159172058105469,-13.594318389892578,16.667312622070312
1702137618717417500,18.60441748046875,-6.070411682128906,-15.913442611694336,15.64217758178711
1702137618734399500,18.6213994140625,-1.7655134201049805,-18.28769302368164,16.17373275756836
1702137618751399000,18.63839892578125,1.2702655792236328,-19.505857467651367,13.265443801879883
1702137618768392200,18.65539208984375,3.5322251319885254,-18.488014221191406,9.138664245605469
1702137618785382100,18.672382080078126,2.5250937938690186,-20.111454010009766,11.994728088378906
1702137618802374400,18.68937451171875,1.962890863418579,-20.08087158203125,16.945022583007812
1702137618819364600,18.706364501953125,4.9102091789245605,-20.56004524230957,27.392942428588867
1702137618836354000,18.72335400390625,7.6501922607421875,-18.378679275512695,28.973730087280273
1702137618853349600,18.740349609375,6.192022323608398,-16.100276947021484,24.718368530273438
1702137618870339000,18.757339111328125,4.590034008026123,-16.216644287109375,29.83834457397461
1702137618887329300,18.774329345703126,2.103968858718872,-15.645024299621582,36.86941909790039
1702137618904321500,18.791321533203124,-0.9405341744422913,-17.181846618652344,42.707855224609375
1702137618921310200,18.808310302734377,0.5987618565559387,-19.992216110229492,43.94718933105469
1702137618938304000,18.825303955078127,4.351739406585693,-23.196077346801758,42.04493713378906
1702137618955294000,18.8422939453125,9.482011795043945,-25.59930992126465,44.42084503173828
1702137618972283600,18.85928369140625,9.830461502075195,-22.6884708404541,46.558170318603516
1702137618989279200,18.876279296875,5.785102844238281,-23.10818099975586,51.619041442871094
1702137619006268400,18.893268310546876,6.730435371398926,-24.82678985595703,50.08622741699219
1702137619023259000,18.9102587890625,11.810948371887207,-29.199893951416016,46.792179107666016
1702137619040251100,18.927251220703123,17.280277252197266,-32.3448371887207,43.483375549316406
1702137619057240800,18.94424072265625,19.4379940032959,-34.94327163696289,38.887596130371094
1702137619074233300,18.9612333984375,19.637592315673828,-36.97239685058594,31.947654724121094
1702137619091222300,18.97822216796875,17.5582218170166,-38.29899597167969,25.559938430786133
1702137619108217000,18.995217041015625,14.116732597351074,-38.21067810058594,18.68834686279297
1702137619125205800,19.012205810546874,10.443622589111328,-36.50783920288086,12.860892295837402
1702137619142198000,19.029197998046875,8.073492050170898,-33.936153411865234,10.298158645629883
1702137619159188500,19.0461884765625,7.223153114318848,-32.72933578491211,10.406487464904785
1702137619176170000,19.063169921875,9.006034851074219,-27.890026092529297,6.073825836181641
1702137619193171000,19.0801708984375,11.11837100982666,-23.400253295898438,5.166955471038818
1702137619210161000,19.097160888671876,9.740692138671875,-20.632360458374023,9.538795471191406
1702137619227155200,19.1141552734375,7.446654319763184,-17.9683895111084,13.41238021850586
1702137619244145200,19.131145263671876,4.130808353424072,-16.389938354492188,16.287397384643555
1702137619261135600,19.148135498046877,0.6938624382019043,-16.91217613220215,18.28190040588379
1702137619278127600,19.165127685546874,-0.6956052780151367,-17.521215438842773,16.931974411010742
1702137619295106800,19.18210693359375,2.4079580307006836,-20.830411911010742,16.337417602539062
1702137619312112600,19.199112548828126,7.954462051391602,-22.135765075683594,18.653167724609375
1702137619329100500,19.2161005859375,10.572608947753906,-22.37041664123535,25.215896606445312
1702137619346090000,19.233090087890623,8.856945991516113,-23.23513412475586,31.829994201660156
1702137619363085300,19.250085205078125,3.8897273540496826,-23.67217445373535,31.796239852905273
1702137619380063000,19.26706298828125,-0.49533194303512573,-25.71221160888672,29.23297119140625
1702137619397065200,19.284065185546876,-0.08227646350860596,-28.459640502929688,28.411407470703125
1702137619414057500,19.301057373046874,5.073256492614746,-30.715600967407227,30.371257781982422
1702137619431042800,19.318042724609374,7.765153884887695,-30.91153335571289,32.70419692993164
1702137619448039700,19.335039794921876,6.370450019836426,-30.127647399902344,32.502906799316406
1702137619465027000,19.352027099609376,1.8594601154327393,-31.79171371459961,31.931629180908203
1702137619482024700,19.369024658203124,2.875906467437744,-33.1225700378418,30.427274703979492
1702137619499001900,19.386001953125,7.060310363769531,-34.93018341064453,32.448978424072266
1702137619515999000,19.4029990234375,12.122151374816895,-34.99873352050781,36.77183532714844
1702137619532994600,19.41999462890625,15.873663902282715,-31.9064884185791,41.0598258972168
1702137619549986600,19.436986572265624,15.724906921386719,-27.76861572265625,42.12699890136719
1702137619566977000,19.45397705078125,11.760370254516602,-24.259862899780273,42.86426544189453
1702137619583958500,19.47095849609375,4.480271816253662,-21.73619270324707,38.04042434692383
1702137619600959500,19.48795947265625,7.95517110824585,-15.442401885986328,29.49095916748047
1702137619617951700,19.50495166015625,13.559172630310059,-14.420475959777832,34.614044189453125
1702137619634942000,19.52194189453125,14.326824188232422,-11.584449768066406,38.429481506347656
1702137619651933200,19.53893310546875,5.850429534912109,-5.555550575256348,31.351642608642578
1702137619668924700,19.555924560546874,-2.2216739654541016,-1.1011667251586914,22.74567222595215
1702137619685923000,19.572923095703125,4.109382629394531,2.2272186279296875,23.09597396850586
1702137619702906000,19.589906005859376,11.443666458129883,1.231648325920105,32.63787078857422
1702137619719899100,19.606899169921874,8.733885765075684,3.993954658508301,31.051498413085938
1702137619736888800,19.623888916015623,-0.3020808696746826,4.590717792510986,22.56785011291504
1702137619753881000,19.640881103515625,-2.4739086627960205,6.518309593200684,14.69148063659668
1702137619770877400,19.65787744140625,1.9044430255889893,7.40357780456543,15.960691452026367
1702137619787853000,19.67485302734375,5.108583450317383,7.129265785217285,18.44917869567871
1702137619804853500,19.691853515625,4.339554786682129,6.175806999206543,18.524662017822266
1702137619821840100,19.708840087890625,0.48646044731140137,4.757669448852539,15.473186492919922
1702137619838846500,19.725846435546874,-2.4049832820892334,3.0445175170898438,12.009037017822266
1702137619855828200,19.742828125,-2.5243144035339355,2.499293804168701,8.814587593078613
1702137619872818700,19.759818603515626,-1.558168649673462,1.427038550376892,7.279048919677734
1702137619889810700,19.776810791015624,-0.3361818790435791,0.36400580406188965,5.738750457763672
1702137619906792700,19.793792724609375,0.7010083198547363,-1.128053903579712,4.3362321853637695
1702137619923793200,19.810793212890626,1.4687442779541016,-2.5968165397644043,3.050471305847168
1702137619940783000,19.827783203125,1.850369930267334,-3.3824353218078613,1.8781299591064453
1702137619957775400,19.844775390625,1.811743140220642,-4.026882171630859,1.374354362487793
1702137619974765600,19.861765625,1.547162413597107,-4.253840923309326,0.526972770690918
1702137619991757800,19.8787578125,1.2110120058059692,-4.718938827514648,0.12228202819824219
1702137620008748300,19.895748291015625,1.291636347770691,-5.211911201477051,-0.04361534118652344
1702137620025740500,19.912740478515627,2.0075602531433105,-5.067157745361328,-0.5477943420410156
1702137620042719700,19.9297197265625,2.542731285095215,-4.76564884185791,-1.2478265762329102
1702137620059722800,19.94672265625,1.9801301956176758,-4.475816249847412,-1.5641241073608398
1702137620076712400,19.96371240234375,1.3247878551483154,-4.1945481300354,-1.3798742294311523
1702137620093705000,19.980705078125,1.499705195426941,-3.3627429008483887,-1.5110325813293457
1702137620110695200,19.997695068359373,1.8770090341567993,-2.5669450759887695,-1.1137609481811523
1702137620127687700,20.014687744140623,2.663264274597168,-1.5870640277862549,-0.5287199020385742
1702137620144677400,20.031677490234376,3.016404628753662,-1.2357548475265503,0.5539674758911133
1702137620161656600,20.048656494140626,2.6471877098083496,-1.1342862844467163,1.2254505157470703
1702137620178658300,20.065658203125,1.8970117568969727,-1.0501275062561035,0.7699766159057617
1702137620195643600,20.0826435546875,1.7164828777313232,-0.5610308647155762,0.25563812255859375
1702137620212632800,20.0996328125,1.9348063468933105,-0.10597031563520432,1.5968914031982422
1702137620229637400,20.116637451171876,1.6968379020690918,-0.44306737184524536,4.72266960144043
1702137620246613500,20.133613525390626,1.8805837631225586,-0.6967604160308838,6.584769248962402
1702137620263613400,20.150613525390625,2.3513424396514893,-0.23350608348846436,5.76418399810791
1702137620280603000,20.167602783203126,1.934286117553711,0.8562815189361572,4.011002540588379
1702137620297590500,20.184590576171875,0.003078460693359375,1.567180871963501,3.2333106994628906
1702137620314584300,20.201584228515625,-0.8509902954101562,1.5953006744384766,4.024080276489258
1702137620331573200,20.2185732421875,0.18603253364562988,1.6200306415557861,4.761740684509277
1702137620348572700,20.23557275390625,2.8811874389648438,1.7843894958496094,4.845619201660156
1702137620365561900,20.252561767578126,4.480684757232666,1.7218108177185059,3.031993865966797
1702137620382556700,20.269556640625,4.3289079666137695,0.9297051429748535,0.30369091033935547
1702137620399539700,20.286539794921875,3.4926252365112305,0.24680805206298828,-2.8536338806152344
1702137620416529700,20.30352978515625,2.094278335571289,-0.44922542572021484,-5.579580307006836
1702137620433531600,20.32053173828125,1.6921534538269043,-0.9195399284362793,-7.370665073394775
1702137620450519000,20.33751904296875,1.89127516746521,-1.583176612854004,-8.294853210449219
1702137620467511300,20.35451123046875,2.4763574600219727,-2.3510355949401855,-8.744672775268555
1702137620484501200,20.371501220703124,3.209221601486206,-3.2656688690185547,-8.949325561523438
1702137620501494000,20.388493896484373,3.860983371734619,-4.36164665222168,-8.703079223632812
1702137620518484000,20.40548388671875,4.0486741065979,-5.552931308746338,-8.263673782348633
1702137620535476200,20.422476318359376,4.212233066558838,-6.5639872550964355,-7.486477851867676
1702137620552468500,20.439468505859374,3.9418599605560303,-7.361292362213135,-7.161417007446289
1702137620569456400,20.456456298828126,3.203683853149414,-8.462623596191406,-6.828184127807617
1702137620586441500,20.47344140625,2.218045711517334,-9.653230667114258,-6.243343353271484
1702137620603438000,20.49043798828125,0.09671425819396973,-11.151155471801758,-4.851922988891602
1702137620620434200,20.50743408203125,-3.355792284011841,-12.29726505279541,-4.141737937927246
1702137620637423400,20.52442333984375,-5.410212993621826,-13.075753211975098,-3.319337844848633
1702137620654412800,20.541412841796873,-5.957457542419434,-14.235748291015625,-1.0476584434509277
1702137620671396000,20.55839599609375,-5.474480152130127,-15.114161491394043,2.8197402954101562
1702137620688396000,20.57539599609375,-5.89170503616333,-14.897037506103516,5.723237037658691
1702137620705388000,20.592387939453126,-5.8622589111328125,-13.581506729125977,7.999245643615723
1702137620722380000,20.609380126953123,-6.040563583374023,-12.13726806640625,10.246819496154785
1702137620739370500,20.62637060546875,-6.225851535797119,-10.403975486755371,13.627062797546387
1702137620756360700,20.643360595703125,-6.706291198730469,-8.436630249023438,18.069211959838867
1702137620773353000,20.66035302734375,-9.412163734436035,-7.193353176116943,20.723712921142578
1702137620790345200,20.67734521484375,-12.39516830444336,-6.848336219787598,20.465904235839844
1702137620807333000,20.6943330078125,-12.147050857543945,-8.537199020385742,21.953325271606445
1702137620824321800,20.71132177734375,-6.876537322998047,-9.318385124206543,25.155122756958008
1702137620841316400,20.72831640625,-1.825371503829956,-8.57357406616211,29.72254753112793
1702137620858298000,20.745298095703124,0.953559160232544,-6.930270195007324,34.18144989013672
1702137620875300000,20.762300048828124,2.2570905685424805,-5.421167373657227,34.41185760498047
1702137620892290300,20.779290283203125,3.3654277324676514,-6.259846210479736,32.695125579833984
1702137620909282300,20.7962822265625,6.427734851837158,-8.587385177612305,30.11250114440918
1702137620926272500,20.8132724609375,10.424215316772461,-10.225356101989746,27.82069206237793
1702137620943261400,20.830261474609376,13.522196769714355,-11.918299674987793,26.782899856567383
1702137620960255000,20.8472548828125,15.091991424560547,-13.559530258178711,25.682233810424805
1702137620977247200,20.864247314453124,15.03853702545166,-15.588147163391113,23.749618530273438
1702137620994237200,20.8812373046875,14.719460487365723,-17.265323638916016,19.78192710876465
1702137621011218700,20.89821875,17.528974533081055,-19.135398864746094,17.138362884521484
1702137621028220000,20.915219970703124,20.29494857788086,-20.228191375732422,16.057777404785156
1702137621045201200,20.932201171875,19.90544891357422,-19.638145446777344,15.764625549316406
1702137621062202400,20.949202392578126,15.659483909606934,-18.676666259765625,16.229265213012695
1702137621079194400,20.9661943359375,11.43755054473877,-17.25548553466797,16.07715606689453
1702137621096173800,20.983173828125,9.12111759185791,-16.285017013549805,16.556228637695312
1702137621113168600,21.000168701171877,9.695420265197754,-14.362312316894531,16.318519592285156
1702137621130154800,21.01715478515625,10.34544563293457,-11.888672828674316,14.947335243225098
1702137621147148500,21.0341484375,9.777142524719238,-9.340572357177734,11.600845336914062
1702137621164141600,21.0511416015625,9.209738731384277,-7.281168460845947,9.680225372314453
1702137621181133000,21.068133056640626,7.653337478637695,-7.526056289672852,10.003849029541016
1702137621198122000,21.0851220703125,6.126836776733398,-8.388591766357422,9.482627868652344
1702137621215117300,21.102117431640625,6.255073547363281,-9.186946868896484,10.295838356018066
1702137621232104000,21.11910400390625,5.8407769203186035,-8.605727195739746,11.147826194763184
1702137621249097000,21.136096923828124,4.502546310424805,-7.089705467224121,12.143933296203613
1702137621266087700,21.153087646484376,0.08031958341598511,-7.286837577819824,16.08559226989746
1702137621283080700,21.170080810546875,-5.694942474365234,-8.300677299499512,19.926036834716797
1702137621300067800,21.18706787109375,-8.49270248413086,-8.005387306213379,20.23698616027832
1702137621317060900,21.204060791015625,-7.4322004318237305,-9.69349479675293,18.89643096923828
1702137621334053400,21.221053466796874,-2.6637532711029053,-12.29751205444336,16.390094757080078
1702137621351044600,21.238044677734376,3.0050456523895264,-11.107880592346191,11.936017036437988
1702137621368033500,21.255033447265625,4.908480167388916,-9.041869163513184,9.134389877319336
1702137621385028000,21.272028076171875,3.1353564262390137,-8.147295951843262,8.761672019958496
1702137621402027800,21.28902783203125,1.339857578277588,-8.156676292419434,9.014768600463867
1702137621419018200,21.306018310546875,0.8011198043823242,-9.114662170410156,10.255459785461426
1702137621435999200,21.322999267578126,1.0556769371032715,-10.68630599975586,10.417863845825195
1702137621453000400,21.34000048828125,2.8063583374023438,-11.202775001525879,8.026900291442871
1702137621469986000,21.356986083984374,4.762714385986328,-11.742976188659668,7.4979567527771
1702137621486987500,21.373987548828126,4.807459831237793,-14.61539077758789,13.838119506835938
1702137621503972900,21.390972900390626,4.8533735275268555,-17.348846435546875,22.883495330810547
1702137621520965400,21.40796533203125,6.809864044189453,-16.8425350189209,20.790363311767578
1702137621537955600,21.42495556640625,9.013205528259277,-14.207633972167969,10.954456329345703
1702137621554947800,21.44194775390625,7.759893417358398,-15.60811996459961,11.680060386657715
1702137621571935500,21.458935546875,3.1877574920654297,-17.260847091674805,14.948226928710938
1702137621588925000,21.475925048828124,-1.1233186721801758,-16.072296142578125,18.144132614135742
1702137621605920300,21.492920166015626,-0.9860622882843018,-15.668569564819336,24.693370819091797
1702137621622912500,21.50991259765625,4.784398078918457,-15.562240600585938,32.50937271118164
1702137621639892200,21.526892333984375,9.354642868041992,-13.955541610717773,36.35955047607422
1702137621656894500,21.54389453125,6.729705333709717,-12.453913688659668,35.72372055053711
1702137621673885400,21.560885498046876,2.283379554748535,-12.767047882080078,34.28144836425781
1702137621690877200,21.577877197265625,2.7921862602233887,-12.700971603393555,37.76942825317383
1702137621707867400,21.594867431640626,5.877107620239258,-13.442221641540527,45.66984939575195
1702137621724859400,21.611859375,7.268555164337158,-16.181123733520508,49.992488861083984
1702137621741845800,21.628845703125,10.0709867477417,-18.266801834106445,48.16539001464844
1702137621758845400,21.645845458984375,12.516538619995117,-19.929914474487305,47.11444854736328
1702137621775832000,21.66283203125,12.356544494628906,-20.96575355529785,47.76128005981445
