time,seconds_elapsed,z,y,x
1702137734714944000,0.115944091796875,2.5477943420410156,1.8258428573608398,0.9617571830749512
1702137734731923200,0.132923095703125,1.0539531707763672,2.096665859222412,0.4919239282608032
1702137734748930300,0.149930419921875,-0.0022225379943847656,2.3470520973205566,0.1196364164352417
1702137734765914600,0.16691455078125,-0.35392236709594727,2.139486789703369,-0.07833659648895264
1702137734782914300,0.183914306640625,-0.0843653678894043,1.837850570678711,-0.39276814460754395
1702137734799902000,0.20090185546875,-0.8237552642822266,1.3716254234313965,-0.6243649125099182
1702137734816894500,0.21789453125,-1.8936281204223633,0.732536792755127,-0.5872690677642822
1702137734833885400,0.234885498046875,-2.906519889831543,0.18950700759887695,-0.5745460391044617
1702137734850862300,0.2518623046875,-3.588916778564453,-0.7644329071044922,-0.29962921142578125
1702137734867865300,0.268865234375,-4.167397499084473,-0.5426197052001953,-0.9635133743286133
1702137734884857600,0.285857666015625,-5.19597864151001,-1.0203776359558105,-1.5681214332580566
1702137734901848300,0.302848388671875,-6.010915756225586,-1.783491611480713,-1.967636227607727
1702137734918841300,0.31984130859375,-6.537725925445557,-2.439845561981201,-1.35550856590271
1702137734935828200,0.336828125,-7.029599666595459,-2.9859485626220703,-1.6425167322158813
1702137734952820000,0.353820068359375,-6.875699043273926,-3.594829559326172,-1.7667640447616577
1702137734969815600,0.370815673828125,-6.8160576820373535,-4.2422943115234375,-1.6316958665847778
1702137734986805800,0.3878056640625,-7.203910827636719,-4.956343650817871,-1.9468058347702026
1702137735003792400,0.40479248046875,-7.5230326652526855,-5.967694282531738,-2.936337471008301
1702137735020788000,0.4217880859375,-7.510230541229248,-6.950779914855957,-3.8221771717071533
1702137735037781500,0.438781494140625,-7.3061323165893555,-7.932509422302246,-3.938779830932617
1702137735054761700,0.45576171875,-6.97333288192749,-8.86793041229248,-3.1016199588775635
1702137735071750400,0.47275048828125,-6.591066837310791,-9.571160316467285,-1.7593594789505005
1702137735088752400,0.48975244140625,-6.067099571228027,-10.189481735229492,0.1547994613647461
1702137735105738800,0.50673876953125,-6.689879417419434,-10.525497436523438,2.035109043121338
1702137735122735900,0.52373583984375,-8.380678176879883,-10.824880599975586,3.795429229736328
1702137735139721500,0.540721435546875,-9.198659896850586,-11.464500427246094,7.007539749145508
1702137735156715800,0.5577158203125,-7.157502174377441,-11.704639434814453,11.669961929321289
1702137735173704000,0.574703857421875,-5.278128623962402,-11.191988945007324,14.373611450195312
1702137735190695400,0.5916953125,-4.537163257598877,-10.543059349060059,14.377385139465332
1702137735207684000,0.60868408203125,-3.994499683380127,-9.894599914550781,14.8134765625
1702137735224678100,0.62567822265625,-3.292172908782959,-9.206542015075684,19.496734619140625
1702137735241668400,0.64266845703125,-4.226043701171875,-7.2742180824279785,22.82061004638672
1702137735258665200,0.659665283203125,-6.344613075256348,-5.753262042999268,22.19843101501465
1702137735275650300,0.676650390625,-6.661960124969482,-5.809024333953857,21.428024291992188
1702137735292644600,0.69364453125,-4.232612609863281,-6.382884979248047,22.553892135620117
1702137735309635300,0.71063525390625,-1.449165940284729,-6.242978096008301,24.33917236328125
1702137735326621400,0.727621337890625,0.4864619970321655,-5.0394792556762695,26.15478515625
1702137735343620400,0.744620361328125,2.7797703742980957,-3.4484636783599854,27.997570037841797
1702137735360608300,0.761608154296875,4.669584274291992,-1.708566427230835,29.285709381103516
1702137735377601000,0.77860107421875,5.403230667114258,-1.240450382232666,30.03484344482422
1702137735394588000,0.795587890625,6.262381076812744,-1.7763125896453857,30.015396118164062
1702137735411580000,0.812579833984375,8.097731590270996,-3.5710954666137695,30.0888614654541
1702137735428574000,0.829573974609375,10.11211109161377,-5.452701568603516,29.480457305908203
1702137735445561600,0.8465615234375,11.334541320800781,-7.531274795532227,26.939767837524414
1702137735462536000,0.863535888671875,12.874800682067871,-9.320184707641602,23.348304748535156
1702137735479539500,0.88053955078125,13.670244216918945,-10.616750717163086,20.222217559814453
1702137735496528100,0.897528076171875,14.496901512145996,-11.44748592376709,19.041032791137695
1702137735513519400,0.914519287109375,14.96157455444336,-12.332369804382324,19.345457077026367
1702137735530512000,0.931511962890625,14.757314682006836,-13.244942665100098,18.60498046875
1702137735547503000,0.948503173828125,15.39258098602295,-13.38491439819336,16.12906265258789
1702137735564492000,0.965491943359375,16.062480926513672,-13.497426986694336,15.26908016204834
1702137735581482800,0.982482666015625,15.76242733001709,-12.920204162597656,16.224754333496094
1702137735598474800,0.999474853515625,13.479402542114258,-12.523335456848145,18.09376335144043
1702137735615468800,1.01646875,9.808917999267578,-12.225532531738281,18.944589614868164
1702137735632456200,1.033456298828125,7.583160400390625,-10.987548828125,17.504728317260742
1702137735649448700,1.05044873046875,8.411802291870117,-9.120512008666992,14.63022232055664
1702137735666438100,1.067438232421875,10.75776195526123,-8.588889122009277,13.755941390991211
1702137735683432400,1.084432373046875,11.829638481140137,-7.684839248657227,13.776479721069336
1702137735700418800,1.101418701171875,8.795858383178711,-5.181942939758301,13.293851852416992
1702137735717416700,1.118416748046875,6.377920627593994,-3.8452672958374023,12.539288520812988
1702137735734406100,1.13540625,7.654916763305664,-4.607526779174805,13.481332778930664
1702137735751396400,1.152396240234375,10.282779693603516,-5.4435272216796875,15.87826156616211
1702137735768396300,1.169396240234375,7.127375602722168,-5.189029216766357,18.027687072753906
1702137735785383200,1.186383056640625,0.587548017501831,-4.38287353515625,19.33180809020996
1702137735802376700,1.203376708984375,-3.991943359375,-4.0792999267578125,20.097633361816406
1702137735819369500,1.220369384765625,-4.975434303283691,-4.799599647521973,21.009790420532227
1702137735836356600,1.237356689453125,-3.718557119369507,-6.138226509094238,21.62021827697754
1702137735853337000,1.254337158203125,-0.9080255031585693,-7.721534729003906,20.031652450561523
1702137735870341400,1.27134130859375,1.9572968482971191,-6.768692970275879,16.75749969482422
1702137735887334100,1.288334228515625,1.6119072437286377,-4.9823455810546875,13.650699615478516
1702137735904310300,1.305310302734375,-1.5967683792114258,-3.7344064712524414,11.293089866638184
1702137735921314600,1.322314453125,-3.8447165489196777,-4.498178958892822,10.04853630065918
1702137735938307000,1.33930712890625,-1.6053175926208496,-6.626436233520508,8.130890846252441
1702137735955294500,1.35629443359375,2.275455951690674,-8.696447372436523,6.180829048156738
1702137735972277200,1.37327734375,4.237696647644043,-9.735466003417969,5.9267778396606445
1702137735989280500,1.390280517578125,3.468423366546631,-9.819766998291016,7.395408630371094
1702137736006267400,1.407267333984375,0.5712332725524902,-11.887168884277344,12.159290313720703
1702137736023260200,1.42426025390625,0.4031510353088379,-15.015485763549805,19.74234962463379
1702137736040254000,1.44125390625,4.227808952331543,-14.408580780029297,19.352821350097656
1702137736057245000,1.458244873046875,7.045716285705566,-13.529701232910156,15.05447006225586
1702137736074232300,1.475232421875,5.033993721008301,-14.217850685119629,13.328533172607422
1702137736091225600,1.4922255859375,1.3073241710662842,-16.853824615478516,15.568086624145508
1702137736108218400,1.50921826171875,-0.2860766351222992,-17.41733169555664,15.166736602783203
1702137736125205200,1.526205322265625,-0.158180832862854,-16.781137466430664,17.773466110229492
1702137736142197200,1.543197265625,-0.6643747091293335,-15.884868621826172,26.838802337646484
1702137736159193000,1.560193115234375,-1.762313723564148,-15.10108757019043,32.76305389404297
1702137736176178700,1.5771787109375,-0.7556424140930176,-13.84714126586914,34.307762145996094
1702137736193173000,1.594173095703125,0.07540345191955566,-11.770988464355469,35.380035400390625
1702137736210163500,1.61116357421875,-4.6443400382995605,-9.87384033203125,38.11365509033203
1702137736227156000,1.628156005859375,-11.245040893554688,-11.47164249420166,43.792545318603516
1702137736244143000,1.64514306640625,-15.371037483215332,-16.415800094604492,49.465576171875
1702137736261136600,1.66213671875,-9.400064468383789,-24.859224319458008,54.811580657958984
1702137736278129400,1.67912939453125,4.728935718536377,-31.819543838500977,59.3635139465332
1702137736295113700,1.69611376953125,15.582536697387695,-34.323604583740234,62.914886474609375
1702137736312102000,1.713101806640625,17.235471725463867,-31.665924072265625,58.494544982910156
1702137736329086000,1.7300859375,17.637258529663086,-30.110734939575195,50.478546142578125
1702137736346082300,1.747082275390625,19.256372451782227,-31.619617462158203,44.79468536376953
1702137736363073500,1.764073486328125,23.551258087158203,-32.937599182128906,38.9680061340332
1702137736380064000,1.78106396484375,24.69432830810547,-33.63862609863281,33.35147476196289
1702137736397067800,1.79806787109375,21.573410034179688,-33.758872985839844,28.04940414428711
1702137736414053400,1.815053466796875,17.706602096557617,-32.67488479614258,23.245586395263672
1702137736431047400,1.83204736328125,14.447504043579102,-29.179340362548828,18.623180389404297
1702137736448041200,1.849041259765625,11.28296947479248,-25.30168914794922,16.278236389160156
1702137736465035500,1.866035400390625,7.463927268981934,-23.74402618408203,15.445662498474121
1702137736482021000,1.883021240234375,5.545359134674072,-23.246498107910156,13.14688491821289
1702137736499012600,1.9000126953125,6.677103519439697,-22.0299072265625,11.665363311767578
1702137736516003800,1.91700390625,10.414457321166992,-20.237598419189453,11.892655372619629
1702137736533000200,1.934000244140625,11.419530868530273,-19.46823501586914,14.964542388916016
1702137736549986000,1.950986083984375,6.86153507232666,-19.908906936645508,16.977195739746094
1702137736566978300,1.967978271484375,4.198663711547852,-20.42959976196289,15.458808898925781
1702137736583965000,1.98496484375,5.953351020812988,-20.910104751586914,15.39333724975586
1702137736600958700,2.001958740234375,10.414202690124512,-21.873748779296875,19.530902862548828
1702137736617951200,2.018951171875,12.608070373535156,-22.182598114013672,24.92770004272461
1702137736634938600,2.035938720703125,12.32139778137207,-21.57056999206543,30.173816680908203
1702137736651921400,2.05292138671875,9.692597389221191,-21.357192993164062,32.381534576416016
1702137736668922000,2.069922119140625,6.6863884925842285,-22.558897018432617,33.66278076171875
1702137736685914400,2.086914306640625,6.290872573852539,-24.6776123046875,35.41396713256836
1702137736702906000,2.103906005859375,8.841249465942383,-26.74405288696289,36.76351547241211
1702137736719896600,2.120896484375,9.394082069396973,-26.95003318786621,39.29963684082031
1702137736736889600,2.1378896484375,4.831525802612305,-27.82091522216797,39.795066833496094
1702137736753877000,2.154876953125,4.478539943695068,-26.054824829101562,34.81477737426758
1702137736770857500,2.171857421875,3.9390387535095215,-28.337879180908203,34.55387496948242
1702137736787860500,2.188860595703125,2.460206985473633,-33.213104248046875,34.78584671020508
1702137736804853500,2.205853515625,6.551578998565674,-36.563621520996094,36.329498291015625
1702137736821832400,2.22283251953125,11.299906730651855,-34.05282211303711,40.39036560058594
1702137736838835500,2.23983544921875,5.813770294189453,-30.65324592590332,40.826236724853516
1702137736855822600,2.256822509765625,2.6173815727233887,-26.72747802734375,37.700435638427734
1702137736872817400,2.2738173828125,6.424555778503418,-24.278287887573242,36.671363830566406
1702137736889807400,2.290807373046875,11.791482925415039,-19.397232055664062,40.903724670410156
1702137736906800400,2.30780029296875,8.671335220336914,-13.413429260253906,47.40149688720703
1702137736923788800,2.324788818359375,0.27356696128845215,-7.215597629547119,44.317420959472656
1702137736940781300,2.34178125,-2.376985549926758,-0.469033420085907,37.157623291015625
1702137736957771000,2.35877099609375,-3.602074146270752,4.909037113189697,38.169925689697266
1702137736974762200,2.37576220703125,-7.624940395355225,8.541553497314453,39.02081298828125
1702137736991753500,2.39275341796875,-8.407188415527344,11.233750343322754,32.536476135253906
1702137737008748800,2.409748779296875,-1.1671439409255981,12.801177978515625,25.57321548461914
1702137737025727000,2.42672705078125,4.015085220336914,12.744917869567871,23.31123924255371
1702137737042725400,2.443725341796875,4.247289657592773,11.666062355041504,22.01000213623047
1702137737059716000,2.460716064453125,-0.1705951690673828,10.381033897399902,19.962940216064453
1702137737076710400,2.47771044921875,-4.996249198913574,8.444369316101074,17.194921493530273
1702137737093698800,2.49469873046875,-5.196608543395996,6.5009074211120605,13.171125411987305
1702137737110694400,2.5116943359375,-2.581676721572876,4.2338948249816895,9.961030006408691
1702137737127685600,2.528685546875,0.25165677070617676,2.1186132431030273,7.630339622497559
1702137737144672000,2.545672119140625,1.8659930229187012,0.07486844062805176,5.973950386047363
1702137737161665000,2.5626650390625,1.6119227409362793,-1.5368037223815918,4.371984481811523
1702137737178657800,2.57965771484375,0.07810282707214355,-3.1329495906829834,2.887192726135254
1702137737195645200,2.596645263671875,-2.5352487564086914,-4.01246452331543,1.8749933242797852
1702137737212639500,2.613639404296875,-3.3103792667388916,-4.510049343109131,0.8017120361328125
1702137737229629700,2.630629638671875,-2.4785351753234863,-4.62817907333374,-0.2484607696533203
1702137737246616000,2.647615966796875,-1.4425166845321655,-4.924496650695801,-0.84490966796875
1702137737263615200,2.664615234375,-0.5946846008300781,-5.317572593688965,-1.0272808074951172
1702137737280592400,2.68159228515625,0.00805443525314331,-5.4581122398376465,-1.1129255294799805
1702137737297595600,2.698595703125,0.2771167755126953,-5.060302257537842,-1.2522430419921875
1702137737314575400,2.715575439453125,0.9864563941955566,-4.346439838409424,-1.4592037200927734
1702137737331576300,2.732576416015625,1.3636289834976196,-4.375160217285156,-0.9014911651611328
1702137737348568800,2.74956884765625,1.9420753717422485,-4.782829761505127,-0.19927310943603516
1702137737365549000,2.766549072265625,1.957812786102295,-4.588693618774414,-0.18400859832763672
1702137737382550500,2.783550537109375,2.441863775253296,-3.327592134475708,-0.26384830474853516
1702137737399540700,2.800540771484375,2.733236789703369,-1.8365843296051025,0.0068874359130859375
1702137737416529700,2.81752978515625,1.3087286949157715,-1.2912147045135498,1.2593975067138672
1702137737433513200,2.83451318359375,0.20206665992736816,-1.2177443504333496,1.3902902603149414
1702137737450514000,2.851513916015625,0.9817318916320801,-1.2737574577331543,0.6672506332397461
1702137737467506700,2.868506591796875,2.573503255844116,-1.2002309560775757,0.7129383087158203
1702137737484493800,2.885493896484375,3.67012882232666,-1.052168846130371,2.2629623413085938
1702137737501487000,2.902487060546875,3.8700809478759766,-0.36482882499694824,3.3421077728271484
1702137737518469000,2.91946923828125,2.787322521209717,0.9128849506378174,3.285329818725586
1702137737535467000,2.936467041015625,0.5450558662414551,2.3118882179260254,3.5407590866088867
1702137737552462000,2.953462158203125,-2.264954090118408,3.7579071521759033,5.26725959777832
1702137737569452000,2.9704521484375,-3.834444046020508,5.291415214538574,6.879574775695801
1702137737586441700,2.987441650390625,-3.1402735710144043,6.503751277923584,6.171272277832031
1702137737603434500,3.0044345703125,-1.7885420322418213,8.572427749633789,2.4289112091064453
1702137737620427300,3.02142724609375,-2.6251747608184814,9.656557083129883,-0.47822046279907227
1702137737637414700,3.03841455078125,-3.5350401401519775,8.650646209716797,-1.3963932991027832
1702137737654403000,3.055403076171875,-2.57824969291687,6.473735809326172,-1.2291698455810547
1702137737671398100,3.072398193359375,-1.6302051544189453,3.801332950592041,-1.6963872909545898
1702137737688391200,3.08939111328125,-1.1631474494934082,0.46997785568237305,-3.45914888381958
1702137737705375500,3.10637548828125,-0.7832412719726562,-2.7214107513427734,-5.938154220581055
1702137737722374000,3.123373779296875,-0.8085801601409912,-5.256970405578613,-7.97483491897583
1702137737739364600,3.140364501953125,-1.1184635162353516,-6.771602630615234,-9.418149948120117
1702137737756354800,3.157354736328125,-1.1205224990844727,-7.689823150634766,-10.458019256591797
1702137737773343200,3.17434326171875,-0.7179365158081055,-8.536601066589355,-11.178511619567871
1702137737790339600,3.191339599609375,-0.2794783115386963,-9.669408798217773,-10.482223510742188
1702137737807328300,3.208328369140625,-0.18442153930664062,-11.44983196258545,-8.94074821472168
1702137737824319500,3.225319580078125,-0.12142157554626465,-12.769285202026367,-8.554810523986816
1702137737841310000,3.24231005859375,0.6552708148956299,-13.561220169067383,-8.849592208862305
1702137737858302000,3.259302001953125,1.804238200187683,-14.140520095825195,-8.999433517456055
1702137737875280100,3.276280029296875,2.6649036407470703,-14.499998092651367,-9.006383895874023
1702137737892286000,3.293285888671875,2.104323387145996,-15.666336059570312,-8.212433815002441
1702137737909275100,3.310275146484375,0.14141559600830078,-17.102811813354492,-6.562745094299316
1702137737926265900,3.327265869140625,-3.169977903366089,-18.089435577392578,-3.208425760269165
1702137737943257000,3.344257080078125,-6.901464939117432,-19.909915924072266,1.074413776397705
1702137737960248300,3.361248291015625,-3.8364455699920654,-20.984439849853516,5.316830635070801
1702137737977239300,3.3782392578125,-2.5909438133239746,-20.977149963378906,7.094388484954834
1702137737994230500,3.39523046875,-6.90145206451416,-21.967409133911133,9.977628707885742
1702137738011221500,3.412221435546875,-8.03852653503418,-23.13869285583496,15.967597007751465
1702137738028209400,3.42920947265625,-8.31265640258789,-21.316497802734375,23.890865325927734
1702137738045207000,3.44620703125,-13.144270896911621,-18.339630126953125,26.365575790405273
1702137738062194700,3.463194580078125,-16.071077346801758,-16.87096405029297,26.910472869873047
1702137738079196400,3.480196533203125,-14.312073707580566,-17.311166763305664,29.02324104309082
1702137738096177200,3.49717724609375,-9.38425350189209,-18.73260498046875,34.502410888671875
1702137738113168100,3.514168212890625,-3.3625705242156982,-17.733230590820312,39.645015716552734
1702137738130150000,3.53114990234375,-0.11119747161865234,-14.272320747375488,40.92371368408203
1702137738147150300,3.548150390625,-1.1935021877288818,-11.11156177520752,41.640804290771484
1702137738164141300,3.565141357421875,-2.0094215869903564,-9.562053680419922,42.51837158203125
1702137738181120500,3.58212060546875,1.626995325088501,-9.825891494750977,42.8787727355957
1702137738198115000,3.599114990234375,7.794859886169434,-10.700742721557617,43.22750473022461
1702137738215105500,3.61610546875,11.202617645263672,-12.490095138549805,41.53412628173828
1702137738232096500,3.633096435546875,13.242887496948242,-14.162287712097168,37.73213577270508
1702137738249087000,3.6500869140625,14.250972747802734,-17.400596618652344,32.21546173095703
1702137738266088000,3.667087890625,16.121810913085938,-19.64518928527832,25.364532470703125
1702137738283085600,3.68408544921875,19.602598190307617,-19.645551681518555,20.836627960205078
1702137738300083000,3.7010830078125,20.9863224029541,-18.64604377746582,20.17474365234375
1702137738317061400,3.718061279296875,18.727455139160156,-17.84590721130371,22.007463455200195
1702137738334052600,3.735052490234375,16.23246192932129,-18.150270462036133,22.016864776611328
1702137738351043600,3.752043701171875,16.925804138183594,-17.850849151611328,21.419233322143555
1702137738368034600,3.76903466796875,17.61203956604004,-17.07030487060547,18.860200881958008
1702137738385025800,3.78602587890625,19.773807525634766,-15.983048439025879,15.646958351135254
1702137738402014200,3.80301416015625,19.080713272094727,-14.472941398620605,14.580252647399902
1702137738419010600,3.820010498046875,14.171496391296387,-13.165849685668945,16.08782958984375
1702137738435999200,3.836999267578125,8.636713981628418,-13.095022201538086,17.54073715209961
1702137738452990500,3.853990478515625,7.83611536026001,-13.409524917602539,17.4672908782959
1702137738469980700,3.870980712890625,9.270174026489258,-13.771958351135254,18.38644790649414
1702137738486973400,3.887973388671875,7.5124311447143555,-13.79389762878418,20.673534393310547
1702137738503963400,3.90496337890625,3.4869558811187744,-12.26529312133789,20.816436767578125
1702137738520954600,3.92195458984375,-1.3821375370025635,-10.41498851776123,20.609149932861328
1702137738537945900,3.93894580078125,-5.8564558029174805,-9.18953800201416,20.92764663696289
1702137738554936800,3.955936767578125,-9.39858341217041,-8.86973762512207,21.450027465820312
1702137738571929900,3.972929931640625,-9.874395370483398,-9.4999418258667,21.12441062927246
1702137738588919300,3.989919189453125,-6.192216873168945,-9.601521492004395,18.21796226501465
1702137738605910300,4.00691015625,-2.115886688232422,-8.240279197692871,15.678058624267578
1702137738622891000,4.02389111328125,-0.31812381744384766,-7.011208534240723,14.621543884277344
1702137738639892700,4.040892822265625,-2.780613422393799,-6.586399078369141,13.302488327026367
1702137738656883500,4.057883544921875,-6.082213401794434,-7.520295143127441,11.694205284118652
1702137738673875000,4.074875,-5.064128875732422,-11.048944473266602,10.095786094665527
1702137738690847500,4.091847412109375,1.3605751991271973,-13.850129127502441,7.5830841064453125
1702137738707854300,4.108854248046875,5.815119743347168,-14.48650074005127,6.444108963012695
1702137738724850400,4.125850341796875,4.687463283538818,-15.367700576782227,8.92222785949707
1702137738741839000,4.142839111328125,0.08077478408813477,-17.702383041381836,12.213493347167969
1702137738758827800,4.159827880859375,-3.636695384979248,-18.904064178466797,14.623766899108887
1702137738775824000,4.176823974609375,-2.673098564147949,-19.654640197753906,13.385601043701172
1702137738792802000,4.193802001953125,0.07659578323364258,-21.45977020263672,11.84939193725586
1702137738809803500,4.210803466796875,2.568103790283203,-23.178279876708984,11.762399673461914
1702137738826795000,4.227794921875,3.7682113647460938,-23.728605270385742,14.856952667236328
1702137738843786000,4.244785888671875,3.4847898483276367,-22.227169036865234,21.121992111206055
1702137738860777000,4.26177685546875,2.744095802307129,-21.14767074584961,30.18035125732422
1702137738877768000,4.278767822265625,5.119966506958008,-18.04401206970215,33.6240234375
1702137738894759200,4.29575927734375,6.524169445037842,-13.832174301147461,35.26555252075195
1702137738911740000,4.312739990234375,1.175142526626587,-11.456302642822266,38.58205795288086
1702137738928741000,4.3297412109375,-4.153790473937988,-10.2936372756958,38.1250114440918
1702137738945732400,4.346732421875,-4.175943851470947,-10.543951034545898,40.517906188964844
1702137738962711000,4.3637109375,-0.7990947961807251,-13.95197868347168,49.40288543701172
1702137738979704300,4.380704345703125,5.399971961975098,-15.87508487701416,52.01138687133789
1702137738996701200,4.397701171875,10.418916702270508,-18.564380645751953,51.18442916870117
1702137739013690000,4.414690185546875,12.993232727050781,-19.15531349182129,50.533790588378906
1702137739030677200,4.43167724609375,13.49950122833252,-18.34257698059082,50.1655158996582
1702137739047668700,4.448668701171875,13.081889152526855,-21.196422576904297,49.94023132324219
1702137739064656600,4.46565673828125,15.850455284118652,-24.768512725830078,48.2828483581543
1702137739081654300,4.482654296875,19.400985717773438,-27.840160369873047,45.32876968383789
1702137739098644000,4.49964404296875,21.649961471557617,-31.42821502685547,39.13621520996094
1702137739115636200,4.51663623046875,21.389907836914062,-34.40555191040039,29.878154754638672
1702137739132624000,4.533623779296875,20.41646957397461,-34.25699996948242,20.555192947387695
1702137739149616400,4.550616455078125,19.058578491210938,-29.991052627563477,16.20886993408203
1702137739166609000,4.56760888671875,13.268621444702148,-26.204566955566406,18.069339752197266
1702137739183599400,4.584599365234375,6.003551006317139,-25.260650634765625,18.44797134399414
1702137739200589600,4.601589599609375,1.2370805740356445,-26.794395446777344,16.905319213867188
1702137739217582600,4.61858251953125,2.420114517211914,-27.395069122314453,11.927553176879883
1702137739234574000,4.635573974609375,6.8698883056640625,-25.72298812866211,7.702045440673828
1702137739251563500,4.6525634765625,9.19448471069336,-23.66849708557129,8.379816055297852
1702137739268562000,4.66956201171875,7.030923843383789,-22.169628143310547,10.110194206237793
1702137739285556200,4.68655615234375,2.876283645629883,-20.843711853027344,11.038253784179688
1702137739302545700,4.703545654296875,2.173859119415283,-20.83762550354004,13.895065307617188
1702137739319537000,4.720536865234375,2.182340621948242,-22.403921127319336,17.568157196044922
1702137739336528100,4.737528076171875,4.953017234802246,-23.92516326904297,19.527206420898438
1702137739353519000,4.75451904296875,9.164334297180176,-25.429269790649414,21.792293548583984
1702137739370515000,4.771514892578125,10.201784133911133,-26.644556045532227,23.971071243286133
1702137739387501300,4.788501220703125,9.39596939086914,-28.50790023803711,27.391294479370117
1702137739404490800,4.80549072265625,8.866974830627441,-30.39190673828125,34.614990234375
1702137739421485300,4.8224853515625,6.95938777923584,-30.80562400817871,38.63175964355469
1702137739438486500,4.839486572265625,3.7420907020568848,-30.18658447265625,38.86433410644531
1702137739455463700,4.856463623046875,-0.9500076174736023,-29.036617279052734,37.355995178222656
1702137739472458800,4.873458740234375,-6.338184356689453,-29.531267166137695,36.42892837524414
1702137739489448000,4.890447998046875,-3.445829391479492,-29.942602157592773,34.812889099121094
1702137739506439200,4.907439208984375,3.460463523864746,-29.87024688720703,34.79365539550781
1702137739523430100,4.92443017578125,8.122099876403809,-29.782123565673828,37.28886795043945
1702137739540421400,4.94142138671875,9.638238906860352,-28.964658737182617,41.91448974609375
1702137739557412400,4.958412353515625,5.69503116607666,-25.305374145507812,49.286434173583984
1702137739574403600,4.975403564453125,1.2744643688201904,-21.741275787353516,46.273746490478516
1702137739591394600,4.99239453125,6.091211318969727,-13.700855255126953,35.8536262512207
1702137739608374800,5.009374755859375,9.134313583374023,-11.188486099243164,37.03165054321289
1702137739625376800,5.026376708984375,4.701147079467773,-10.218883514404297,38.63332748413086
1702137739642367700,5.04336767578125,1.3939766883850098,-5.1116437911987305,35.1597900390625
1702137739659359000,5.06035888671875,3.6638221740722656,-0.02172112464904785,28.035215377807617
1702137739676350200,5.07735009765625,6.731586456298828,4.08457612991333,28.449983596801758
1702137739693341400,5.094341552734375,2.2318990230560303,4.875949382781982,31.15323257446289
1702137739710332200,5.111332275390625,-4.922524929046631,8.098919868469238,27.566055297851562
1702137739727313000,5.12831298828125,-4.6143903732299805,11.00860595703125,22.214509963989258
1702137739744314400,5.145314453125,1.1989796161651611,11.991632461547852,21.628704071044922
1702137739761305600,5.1623056640625,7.384243011474609,11.442643165588379,22.622102737426758
1702137739778296800,5.179296875,6.657340049743652,10.862936019897461,20.7381591796875
1702137739795288000,5.1962880859375,4.087871551513672,9.759303092956543,17.355899810791016
1702137739812267300,5.213267333984375,2.981623649597168,8.557258605957031,14.360851287841797
1702137739829271600,5.230271484375,3.927142381668091,7.211639404296875,12.88459587097168
1702137739846261000,5.247260986328125,4.383665084838867,5.432945251464844,12.801016807556152
1702137739863252500,5.26425244140625,3.62111234664917,3.2269999980926514,11.758118629455566
1702137739880243500,5.281243408203125,1.416353702545166,0.8889821767807007,9.084884643554688
1702137739897234400,5.298234375,0.1512901782989502,-0.8159992694854736,6.119330406188965
1702137739914225700,5.3152255859375,-0.9943878650665283,-2.846735715866089,4.278952598571777
1702137739931217000,5.332216796875,-0.43858814239501953,-4.68967342376709,3.1566200256347656
1702137739948205800,5.349205810546875,0.7471892833709717,-5.940305233001709,1.6462583541870117
1702137739965201200,5.366201171875,0.8052830696105957,-6.966573715209961,0.9379987716674805
1702137739982190000,5.383190185546875,0.06453418731689453,-7.535689353942871,0.639678955078125
1702137739999181300,5.400181396484375,-1.0398774147033691,-8.01453685760498,-0.14493560791015625
1702137740016172500,5.417172607421875,-1.9845112562179565,-8.031923294067383,-1.7361817359924316
1702137740033163500,5.43416357421875,-1.7470428943634033,-7.823162078857422,-3.270423412322998
1702137740050148900,5.45114892578125,-0.4255309998989105,-7.639142036437988,-4.121720314025879
1702137740067149000,5.468149169921875,1.9323188066482544,-7.8689799308776855,-3.7463955879211426
1702137740084133400,5.48513330078125,3.6888625621795654,-7.63582706451416,-2.815392017364502
1702137740101121800,5.502121826171875,3.9166436195373535,-7.224767684936523,-1.973466396331787
1702137740118119000,5.519118896484375,2.972466468811035,-6.507226943969727,-1.871701717376709
1702137740135110400,5.5361103515625,1.5904523134231567,-6.143044471740723,-2.1221370697021484
1702137740152090600,5.553090576171875,0.9334558248519897,-5.577496528625488,-2.1037282943725586
1702137740169090800,5.5700908203125,1.0534460544586182,-4.527860641479492,-2.0154900550842285
1702137740186084900,5.5870849609375,1.3920533657073975,-3.1642990112304688,-1.8911857604980469
1702137740203064600,5.604064697265625,1.2190525531768799,-2.6045327186584473,0.0036792755126953125
1702137740220062700,5.621062744140625,0.6340601444244385,-2.192728042602539,1.9793014526367188
1702137740237059300,5.638059326171875,-0.056230783462524414,-1.7164082527160645,2.1171140670776367
1702137740254037800,5.655037841796875,-0.5442793369293213,-1.0661044120788574,1.1548032760620117
1702137740271040500,5.67204052734375,-0.17545413970947266,-0.6875209808349609,1.1902341842651367
1702137740288028700,5.689028564453125,-0.16197848320007324,-0.3753316402435303,2.571653366088867
1702137740305021200,5.706021240234375,-0.3262050151824951,0.8750944137573242,4.640164375305176
1702137740322010600,5.7230107421875,-1.5502796173095703,3.3678219318389893,4.927221298217773
1702137740339005700,5.740005615234375,-4.183880805969238,5.361603736877441,5.284432411193848
1702137740355994400,5.756994384765625,-4.887084007263184,6.950342655181885,4.834908485412598
1702137740372985600,5.773985595703125,-2.3489487171173096,8.833366394042969,3.163898468017578
1702137740389976600,5.7909765625,-1.2750051021575928,10.262504577636719,1.9928197860717773
1702137740406968000,5.807968017578125,-2.458536148071289,11.156471252441406,0.019254207611083984
1702137740423958800,5.824958740234375,-4.633563041687012,11.525850296020508,-2.066892623901367
1702137740440959000,5.841958984375,-5.020593643188477,10.92311954498291,-2.7507500648498535
1702137740457941200,5.858941162109375,-3.798388957977295,8.97772216796875,-3.1786043643951416
1702137740474932500,5.875932373046875,-2.447179079055786,6.274384021759033,-4.259339809417725
1702137740491923000,5.8929228515625,-1.1286730766296387,3.081798553466797,-5.580483436584473
1702137740508904000,5.909904052734375,-0.047411203384399414,0.09970998764038086,-7.0559868812561035
1702137740525905700,5.92690576171875,0.9459148645401001,-2.4434189796447754,-8.225702285766602
1702137740542888400,5.943888427734375,1.6170103549957275,-4.378281116485596,-9.031609535217285
1702137740559888000,5.960887939453125,1.9040122032165527,-5.803652763366699,-9.427058219909668
1702137740576874200,5.977874267578125,1.888960599899292,-7.177175998687744,-8.85727310180664
1702137740593870600,5.99487060546875,1.5870941877365112,-8.501840591430664,-7.936127662658691
1702137740610850600,6.0118505859375,1.3579059839248657,-9.682596206665039,-7.437739372253418
1702137740627849500,6.028849365234375,0.9802727699279785,-10.642525672912598,-7.3753981590271
1702137740644846000,6.04584619140625,0.9354531764984131,-11.482283592224121,-7.6068115234375
1702137740661834800,6.062834716796875,1.3003804683685303,-12.2827787399292,-7.498433589935303
1702137740678825500,6.079825439453125,1.7752801179885864,-12.869340896606445,-8.04044246673584
1702137740695816700,6.096816650390625,1.4066698551177979,-13.51190185546875,-8.506637573242188
1702137740712803800,6.113803955078125,0.22756385803222656,-14.47497272491455,-7.590982437133789
1702137740729803000,6.130802978515625,-1.8267998695373535,-15.464761734008789,-5.187714099884033
1702137740746790000,6.147789794921875,-2.6055054664611816,-16.28341293334961,-2.491313934326172
1702137740763781000,6.164781005859375,-3.8367807865142822,-16.98587417602539,1.1183810234069824
1702137740780772000,6.181772216796875,-6.043636322021484,-17.639488220214844,4.368887424468994
1702137740797763600,6.198763671875,-7.255802631378174,-18.643230438232422,7.72300910949707
1702137740814754800,6.2157548828125,-7.323543071746826,-18.315885543823242,11.94384765625
1702137740831745500,6.23274560546875,-8.732312202453613,-16.590530395507812,17.975990295410156
1702137740848736500,6.249736572265625,-13.259133338928223,-13.940591812133789,22.863697052001953
1702137740865727700,6.266727783203125,-18.188343048095703,-12.423770904541016,25.999557495117188
1702137740882719000,6.283718994140625,-18.395965576171875,-12.273183822631836,27.998764038085938
1702137740899710000,6.3007099609375,-15.46465015411377,-12.215112686157227,28.797475814819336
1702137740916697300,6.317697265625,-12.278796195983887,-12.018712997436523,30.197179794311523
1702137740933696300,6.3346962890625,-7.128758430480957,-10.865872383117676,31.943016052246094
1702137740950664700,6.351664794921875,-2.1914751529693604,-8.594974517822266,33.089866638183594
1702137740967674400,6.36867431640625,0.7632993459701538,-5.945016860961914,34.715484619140625
1702137740984664300,6.385664306640625,2.4291398525238037,-4.216370582580566,38.53997802734375
1702137741001656600,6.402656494140625,5.247687816619873,-3.794830799102783,40.488685607910156
1702137741018657000,6.419656982421875,9.831195831298828,-4.253260612487793,39.492835998535156
1702137741035639000,6.43663916015625,14.59811019897461,-5.458028793334961,38.19639587402344
1702137741052617000,6.453616943359375,16.175878524780273,-7.110818386077881,36.42143630981445
1702137741069611000,6.470611083984375,17.162967681884766,-8.693838119506836,34.202667236328125
1702137741086612500,6.487612548828125,20.268516540527344,-10.919706344604492,32.3353271484375
1702137741103603200,6.504603271484375,22.87409019470215,-12.95480728149414,29.519432067871094
1702137741120597000,6.521596923828125,21.48368263244629,-13.189403533935547,25.192333221435547
1702137741137567000,6.53856689453125,20.389904022216797,-12.351957321166992,21.48476219177246
1702137741154574000,6.555573974609375,21.818052291870117,-12.421178817749023,22.712736129760742
1702137741171570400,6.5725703125,19.902530670166016,-12.689118385314941,24.200658798217773
1702137741188559000,6.58955908203125,15.885408401489258,-10.237934112548828,19.35602569580078
1702137741205550000,6.606550048828125,13.871946334838867,-7.804704666137695,11.19962215423584
1702137741222541300,6.623541259765625,14.541727066040039,-5.980420112609863,8.091979026794434
1702137741239532300,6.6405322265625,15.640119552612305,-6.8737616539001465,12.095489501953125
1702137741256523300,6.657523193359375,15.813507080078125,-8.678276062011719,14.915225982666016
1702137741273507800,6.6745078125,15.696547508239746,-9.291276931762695,17.672340393066406
1702137741290505700,6.691505615234375,14.23349380493164,-9.064558029174805,19.343021392822266
1702137741307494100,6.708494140625,9.025055885314941,-7.71280574798584,18.615882873535156
1702137741324490200,6.725490234375,2.081474781036377,-5.512118339538574,17.35550308227539
1702137741341473300,6.742473388671875,-3.7772624492645264,-4.0257768630981445,18.569313049316406
1702137741358468000,6.759468017578125,-5.547016143798828,-4.388660430908203,20.733394622802734
1702137741375459800,6.7764599609375,-5.008597373962402,-7.63748836517334,23.974449157714844
1702137741392445200,6.793445068359375,-3.0736446380615234,-10.907306671142578,24.477550506591797
1702137741409440800,6.810440673828125,-2.3268332481384277,-11.545333862304688,21.45157241821289
1702137741426436900,6.827436767578125,-3.148364543914795,-11.917581558227539,17.324859619140625
1702137741443425800,6.84442578125,-3.14314866065979,-12.497400283813477,13.93251895904541
1702137741460410400,6.861410400390625,-2.5504188537597656,-13.613390922546387,10.470601081848145
1702137741477392100,6.87839208984375,-1.5094037055969238,-16.388668060302734,8.060198783874512
1702137741494396400,6.895396484375,-0.2887148857116699,-19.92631721496582,6.168102264404297
1702137741511392800,6.912392822265625,2.0025668144226074,-21.018165588378906,4.448342323303223
1702137741528381000,6.929380859375,1.0559334754943848,-21.64476776123047,4.284463405609131
1702137741545365200,6.946365234375,-0.8236594200134277,-22.055463790893555,5.809251308441162
1702137741562366000,6.963365966796875,-4.0856404304504395,-22.449249267578125,5.702563285827637
1702137741579365400,6.980365478515625,-1.366112232208252,-21.11581802368164,4.150854587554932
1702137741596343000,6.997343017578125,4.807156085968018,-21.004573822021484,8.207420349121094
1702137741613336800,7.0143369140625,7.201480865478516,-17.903160095214844,13.954903602600098
1702137741630320000,7.031320068359375,2.760310173034668,-17.063207626342773,19.724828720092773
1702137741647320000,7.048320068359375,-1.2235404253005981,-15.144789695739746,21.51186752319336
1702137741664308700,7.065308837890625,-4.160223007202148,-13.562131881713867,20.42319679260254
1702137741681291500,7.08229150390625,-5.23922872543335,-14.086259841918945,23.866849899291992
1702137741698284300,7.0992841796875,-1.9611247777938843,-12.921562194824219,30.37755584716797
1702137741715275500,7.116275634765625,-1.039198637008667,-11.000874519348145,36.439842224121094
1702137741732263400,7.133263427734375,-3.427238702774048,-9.821369171142578,38.31305694580078
1702137741749255200,7.150255126953125,-6.655806541442871,-11.264836311340332,37.13270568847656
1702137741766248700,7.167248779296875,-7.0770978927612305,-16.463342666625977,39.00093078613281
1702137741783247600,7.18424755859375,-0.5842663049697876,-22.20624542236328,42.57591247558594
1702137741800238800,7.20123876953125,9.771198272705078,-24.676177978515625,49.23863220214844
1702137741817230000,7.21822998046875,14.823720932006836,-24.001720428466797,54.89146423339844
1702137741834223900,7.235223876953125,12.291264533996582,-21.756874084472656,53.97187042236328
1702137741851208000,7.2522080078125,2.586054801940918,-21.139892578125,52.028953552246094
1702137741868208400,7.26920849609375,0.9317004680633545,-30.00324058532715,50.745235443115234
1702137741885193700,7.28619384765625,13.069199562072754,-37.88727951049805,50.322208404541016
1702137741902185500,7.303185546875,20.234439849853516,-40.969635009765625,46.956153869628906
1702137741919176700,7.3201767578125,19.413368225097656,-42.577720642089844,37.55357360839844
1702137741936160300,7.33716015625,15.662221908569336,-42.89852523803711,26.74556541442871
1702137741953159000,7.354158935546875,12.690299034118652,-42.94352722167969,18.749385833740234
1702137741970150000,7.37114990234375,10.231372833251953,-40.74359130859375,12.306495666503906
1702137741987138300,7.38813818359375,7.4379706382751465,-36.505165100097656,8.417811393737793
1702137742004134700,7.405134765625,6.7631683349609375,-31.282337188720703,4.9910101890563965
1702137742021132800,7.4221328125,6.7054243087768555,-26.01681900024414,5.270829677581787
1702137742038114300,7.4391142578125,5.458184242248535,-23.25714874267578,7.890908718109131
1702137742055106000,7.45610595703125,3.6717004776000977,-20.85586929321289,9.606782913208008
1702137742072081200,7.4730810546875,2.3065547943115234,-19.18743896484375,9.942832946777344
1702137742089088000,7.490087890625,3.744439125061035,-18.17908477783203,12.596080780029297
1702137742106083300,7.507083251953125,4.617931365966797,-18.16727638244629,16.693655014038086
1702137742123069700,7.524069580078125,4.179129123687744,-17.607851028442383,18.29165267944336
1702137742140061200,7.541061279296875,4.9155988693237305,-19.077896118164062,20.863571166992188
1702137742157052400,7.558052490234375,5.7558417320251465,-20.53789520263672,21.236738204956055
1702137742174043100,7.575043212890625,5.960717678070068,-23.6824951171875,25.734859466552734
1702137742191023000,7.592023193359375,4.762463569641113,-25.45330238342285,34.21073913574219
1702137742208025300,7.609025390625,2.4257283210754395,-25.90099334716797,40.09198760986328
1702137742225016800,7.626016845703125,-0.6238707304000854,-27.339902877807617,40.45478820800781
1702137742242010000,7.643010009765625,-2.077784538269043,-30.664371490478516,36.09426498413086
1702137742258992000,7.6599921875,-0.09888827800750732,-33.34403991699219,32.358314514160156
1702137742275994400,7.676994384765625,0.1569359302520752,-37.1361083984375,40.41573715209961
1702137742292981000,7.69398095703125,-0.3007798194885254,-35.96126174926758,46.90050506591797
1702137742309983200,7.710983154296875,-3.72196102142334,-34.30426025390625,44.25584030151367
1702137742326963200,7.727963134765625,0.36008429527282715,-33.105934143066406,33.84589767456055
1702137742343954200,7.7449541015625,7.026899337768555,-33.77574157714844,33.92941665649414
1702137742360945700,7.761945556640625,9.586336135864258,-35.113372802734375,39.49361038208008
1702137742377937000,7.77893701171875,8.583330154418945,-32.82041931152344,47.018741607666016
1702137742394927600,7.795927734375,7.220310211181641,-24.186525344848633,48.865299224853516
1702137742411908000,7.812908203125,2.2419726848602295,-20.93983268737793,43.942535400390625
1702137742428909800,7.829909912109375,1.5883495807647705,-19.29931640625,35.03243637084961
1702137742445900800,7.84690087890625,3.4942431449890137,-16.1904296875,30.234615325927734
1702137742462889500,7.863889404296875,3.312176465988159,-16.12908935546875,33.875606536865234
1702137742479873500,7.88087353515625,2.6582820415496826,-12.444330215454102,36.947723388671875
1702137742496863700,7.89786376953125,1.5826139450073242,-9.099956512451172,34.38783645629883
1702137742513856000,7.91485595703125,-0.6764209270477295,-6.53325891494751,28.389244079589844
1702137742530846700,7.9318466796875,0.5014235973358154,-1.6256625652313232,21.992759704589844
1702137742547838200,7.948838134765625,4.594066619873047,-0.29170751571655273,26.27541732788086
1702137742564830500,7.96583056640625,8.408307075500488,1.5437443256378174,32.195247650146484
1702137742581820700,7.982820556640625,8.714913368225098,6.763115406036377,29.4046630859375
1702137742598814200,7.999814208984375,5.599722385406494,8.25576400756836,24.46918487548828
1702137742615805200,8.01680517578125,4.697177886962891,10.130294799804688,20.439952850341797
1702137742632793000,8.03379296875,5.955134391784668,10.958511352539062,20.187015533447266
1702137742649785900,8.050785888671875,6.075666427612305,12.079004287719727,19.70815658569336
1702137742666776800,8.06777685546875,3.838902473449707,11.210065841674805,18.779163360595703
1702137742683771400,8.084771484375,2.317528486251831,9.042734146118164,17.282424926757812
1702137742700757500,8.101757568359375,2.15824294090271,6.676948547363281,15.797557830810547
1702137742717753300,8.11875341796875,3.264143228530884,4.196229457855225,13.468599319458008
1702137742734732000,8.13573193359375,3.7110955715179443,2.365253448486328,10.458842277526855
1702137742751731500,8.1527314453125,3.041133403778076,0.48346805572509766,8.329991340637207
1702137742768723200,8.16972314453125,1.9788415431976318,-1.606865406036377,7.052207946777344
1702137742785732400,8.186732421875,0.9583044052124023,-3.455960988998413,5.65449333190918
1702137742802706200,8.2037060546875,0.6956787109375,-5.123723030090332,3.6201868057250977
1702137742819701200,8.220701171875,0.737926721572876,-6.412893295288086,1.60028076171875
1702137742836696300,8.2376962890625,0.6694295406341553,-7.222416877746582,0.8787679672241211
1702137742853685500,8.254685546875,-0.1808779239654541,-7.762988567352295,0.2524995803833008
1702137742870680600,8.2716806640625,-0.9519174098968506,-8.03561782836914,-0.7353363037109375
1702137742887669200,8.288669189453126,-0.904414176940918,-7.855320930480957,-1.9280247688293457
1702137742904658200,8.305658203125,-0.11146044731140137,-7.815215587615967,-2.6257834434509277
1702137742921653800,8.32265380859375,0.8483690023422241,-7.976003646850586,-2.7492337226867676
1702137742938643000,8.339642822265626,1.9890027046203613,-7.892548561096191,-2.4182233810424805
1702137742955634400,8.356634521484375,2.706740140914917,-7.517788887023926,-2.0912299156188965
1702137742972625200,8.373625244140625,2.77960205078125,-7.077481269836426,-1.9268083572387695
1702137742989616600,8.39061669921875,2.4491450786590576,-6.600086212158203,-1.6283087730407715
1702137743006605000,8.40760498046875,2.2345824241638184,-5.875669479370117,-1.4299726486206055
1702137743023590700,8.424590576171875,2.246690273284912,-4.869913101196289,-0.6948461532592773
1702137743040589800,8.44158984375,2.0358657836914062,-3.715477228164673,0.618342399597168
1702137743057581000,8.4585810546875,2.0466437339782715,-2.9581968784332275,1.2593412399291992
1702137743074571800,8.47557177734375,2.3090085983276367,-2.4949655532836914,1.0544252395629883
1702137743091563000,8.49256298828125,2.3759589195251465,-2.124605178833008,0.10797977447509766
1702137743108554200,8.50955419921875,2.464813709259033,-1.7593938112258911,-0.5487508773803711
1702137743125534200,8.5265341796875,2.940253496170044,-1.4026323556900024,-0.3327651023864746
1702137743142534000,8.543533935546876,3.398916244506836,-1.0948851108551025,1.5713024139404297
1702137743159530000,8.560530029296874,2.689760208129883,-0.9387264251708984,4.045384407043457
1702137743176518700,8.5775185546875,2.5618162155151367,0.10665607452392578,4.124228477478027
1702137743193510000,8.594510009765624,2.235269069671631,1.6004447937011719,2.6328864097595215
1702137743210490000,8.611489990234375,0.9358804225921631,3.081651210784912,2.077747344970703
1702137743227491800,8.628491943359375,-0.6038403511047363,4.18441915512085,3.2215328216552734
1702137743244483000,8.645483154296874,-0.15235352516174316,5.312526702880859,3.951932430267334
1702137743261474000,8.66247412109375,1.947327971458435,7.332658767700195,4.9885125160217285
1702137743278465500,8.679465576171875,1.7044568061828613,9.060159683227539,3.7551846504211426
1702137743295453700,8.69645361328125,-1.6852302551269531,10.388219833374023,0.8089723587036133
1702137743312457000,8.71345703125,-4.997919082641602,10.388898849487305,-0.6891961097717285
1702137743329438700,8.730438720703125,-4.495835304260254,9.64238166809082,-1.1499781608581543
1702137743346429700,8.7474296875,-2.405545473098755,7.85833215713501,-2.3792924880981445
1702137743363420700,8.764420654296876,-0.12747406959533691,5.310845375061035,-4.161829471588135
1702137743380412200,8.781412109375,0.9283878803253174,2.3272266387939453,-6.006228923797607
1702137743397403000,8.79840283203125,1.3296020030975342,-0.5583810806274414,-7.509893417358398
1702137743414391600,8.8153916015625,1.4280226230621338,-3.0112757682800293,-8.269360542297363
1702137743431388000,8.832387939453126,1.694310188293457,-4.937098503112793,-8.494293212890625
1702137743448368400,8.849368408203125,1.606809139251709,-6.369167804718018,-8.749555587768555
1702137743465367300,8.8663671875,1.883859395980835,-7.531186103820801,-8.480372428894043
1702137743482358800,8.88335888671875,2.021202325820923,-8.805585861206055,-7.853054523468018
1702137743499349800,8.900349853515625,1.970080852508545,-10.371768951416016,-7.549705982208252
1702137743516338400,8.91733837890625,1.7909388542175293,-11.838930130004883,-7.911555290222168
1702137743533334500,8.93433447265625,1.989519476890564,-12.966045379638672,-8.543087005615234
1702137743550313000,8.95131298828125,1.9802898168563843,-13.885623931884766,-9.236331939697266
1702137743567314200,8.968314208984374,1.725779414176941,-14.357864379882812,-10.221261024475098
1702137743584305400,8.985305419921875,1.5495163202285767,-14.82044792175293,-10.47138500213623
1702137743601296400,9.00229638671875,-0.5864791870117188,-16.1730899810791,-9.459257125854492
1702137743618287600,9.01928759765625,-2.408781051635742,-17.53653335571289,-7.553101539611816
1702137743635264000,9.036263916015624,-2.2027323246002197,-18.98586654663086,-2.3597700595855713
1702137743652269800,9.053269775390625,-2.9373884201049805,-19.80687713623047,3.656087875366211
1702137743669260800,9.0702607421875,-5.133384704589844,-20.506778717041016,7.237320423126221
1702137743686251800,9.087251708984375,-8.151982307434082,-20.929834365844727,8.562850952148438
1702137743703243300,9.1042431640625,-9.128990173339844,-21.72430419921875,12.794914245605469
1702137743720234000,9.12123388671875,-5.754488945007324,-19.963659286499023,20.648998260498047
1702137743737225500,9.1382255859375,-4.8309006690979,-15.989692687988281,26.133142471313477
1702137743754203100,9.155203125,-9.338855743408203,-12.50171184539795,27.67217445373535
1702137743771199700,9.17219970703125,-15.46072006225586,-11.227705001831055,27.747676849365234
1702137743788198400,9.189198486328126,-15.312163352966309,-12.646997451782227,30.7064151763916
1702137743805187600,9.2061875,-9.396350860595703,-13.769290924072266,33.831336975097656
1702137743822183000,9.223182861328125,-3.3078956604003906,-13.342957496643066,35.09829330444336
1702137743839172000,9.240172119140626,1.7841050624847412,-11.229716300964355,35.88041305541992
1702137743856163000,9.2571630859375,4.031358242034912,-8.991902351379395,38.116390228271484
1702137743873143800,9.274143798828124,4.22361946105957,-7.385196685791016,40.79029083251953
1702137743890142700,9.291142822265625,2.9454562664031982,-8.698251724243164,41.83928680419922
1702137743907139000,9.30813916015625,4.31190824508667,-11.703845977783203,41.34716033935547
1702137743924127700,9.325127685546875,7.399785041809082,-16.15142059326172,40.716880798339844
1702137743941118700,9.34211865234375,8.967183113098145,-23.617259979248047,36.683109283447266
1702137743958109700,9.359109619140625,14.52010726928711,-30.611007690429688,26.063634872436523
1702137743975090200,9.376090087890624,22.908065795898438,-32.02033996582031,17.179767608642578
1702137743992081400,9.393081298828125,24.913721084594727,-28.95901107788086,14.722597122192383
1702137744009073000,9.410072998046875,18.796186447143555,-26.203760147094727,16.63086700439453
1702137744026055700,9.4270556640625,11.472328186035156,-24.057415008544922,17.89444923400879
1702137744043065300,9.4440654296875,9.899765968322754,-23.615585327148438,17.22949981689453
1702137744060056000,9.46105615234375,16.19757080078125,-21.5181884765625,13.081082344055176
1702137744077045000,9.478044921875,19.16262435913086,-18.461326599121094,12.600135803222656
1702137744094041000,9.495041015625,19.007341384887695,-17.23346710205078,13.316364288330078
1702137744111029500,9.512029541015625,14.236896514892578,-18.45425796508789,14.454891204833984
1702137744128018000,9.529017822265626,7.424251556396484,-20.07473373413086,14.862077713012695
1702137744145014300,9.54601416015625,3.9968764781951904,-17.72230339050293,12.985309600830078
1702137744162003200,9.563003173828125,5.613304138183594,-17.524248123168945,15.086334228515625
1702137744178994200,9.579994140625,8.061391830444336,-16.772598266601562,18.48523712158203
1702137744195985200,9.596985107421874,4.3838419914245605,-15.073354721069336,20.685012817382812
1702137744212969000,9.613968994140626,-5.338217258453369,-12.977703094482422,21.0408992767334
1702137744229964300,9.63096435546875,-13.065423965454102,-11.34663200378418,19.53390884399414
1702137744246948400,9.6479482421875,-14.796585083007812,-9.842493057250977,18.380355834960938
1702137744263942100,9.664942138671876,-11.617329597473145,-10.179847717285156,17.762317657470703
1702137744280940800,9.68194091796875,-4.032620906829834,-8.786445617675781,15.259651184082031
1702137744297926100,9.698926025390625,0.9468502998352051,-7.10020112991333,14.273886680603027
1702137744314920400,9.71592041015625,0.0384519100189209,-6.333865165710449,13.721440315246582
1702137744331925800,9.73292578125,-4.079213619232178,-6.34151029586792,12.722311019897461
1702137744348905500,9.749905517578124,-6.061618804931641,-6.623429775238037,12.635173797607422
1702137744365896200,9.766896240234376,-5.283138275146484,-7.396388053894043,13.8358154296875
1702137744382887200,9.78388720703125,-3.728423595428467,-8.942170143127441,14.572673797607422
1702137744399878400,9.80087841796875,-2.100152015686035,-12.25656795501709,13.512041091918945
1702137744416869600,9.81786962890625,-0.49958133697509766,-14.103532791137695,10.939303398132324
1702137744433860600,9.834860595703125,-0.7049517631530762,-16.51559066772461,9.488758087158203
1702137744450841000,9.851841064453126,-2.7760162353515625,-18.55099868774414,13.137922286987305
1702137744467840000,9.868840087890625,-5.9943952560424805,-21.433822631835938,12.58631706237793
1702137744484826000,9.885826171875,-2.447096824645996,-19.15688705444336,5.0153093338012695
1702137744501825000,9.902824951171874,6.891732215881348,-18.458438873291016,3.339195728302002
1702137744518816000,9.91981591796875,8.606649398803711,-17.375076293945312,10.265504837036133
1702137744535796700,9.936796630859375,3.520925998687744,-16.290021896362305,18.041259765625
1702137744552798500,9.953798583984375,-3.249711513519287,-15.056315422058105,19.899911880493164
1702137744569789400,9.97078955078125,-5.763404846191406,-13.255573272705078,17.032106399536133
1702137744586780700,9.98778076171875,-3.3100028038024902,-14.383264541625977,23.276208877563477
1702137744603772000,10.00477197265625,0.9192674160003662,-13.71308708190918,30.713695526123047
1702137744620762600,10.0217626953125,2.9095935821533203,-9.579599380493164,31.26911163330078
1702137744637764400,10.038764404296876,-3.5681681632995605,-7.799986839294434,34.16999053955078
1702137744654745000,10.0557451171875,-12.199115753173828,-9.332765579223633,40.0233154296875
1702137744671736000,10.072736083984376,-10.36925983428955,-15.625142097473145,43.969810485839844
1702137744688727300,10.089727294921875,1.8222750425338745,-22.32870101928711,43.84449768066406
1702137744705718300,10.10671826171875,7.398109436035156,-25.845579147338867,44.725921630859375
1702137744722709500,10.12370947265625,7.753955841064453,-25.454450607299805,48.9222412109375
1702137744739699700,10.14069970703125,8.857085227966309,-23.820730209350586,54.582679748535156
1702137744756693000,10.15769287109375,8.361552238464355,-27.48674201965332,57.180824279785156
1702137744773682700,10.1746826171875,13.002384185791016,-33.990604400634766,51.29480743408203
1702137744790669000,10.1916689453125,20.51436424255371,-39.20066452026367,43.12769317626953
1702137744807671800,10.208671875,24.282394409179688,-40.495975494384766,35.85966491699219
1702137744824653800,10.22565380859375,20.883541107177734,-39.475433349609375,29.88658332824707
1702137744841647400,10.2426474609375,12.776955604553223,-40.34454345703125,23.98673439025879
1702137744858638300,10.259638427734375,9.295154571533203,-40.68033981323242,14.57052993774414
1702137744875629600,10.276629638671874,9.963638305664062,-38.552364349365234,10.342398643493652
1702137744892610000,10.293610107421875,9.86058521270752,-35.134132385253906,10.537277221679688
1702137744909611500,10.310611572265625,6.710786819458008,-29.71434211730957,11.264450073242188
1702137744926600000,10.327599853515625,2.166595458984375,-24.57089614868164,9.984707832336426
1702137744943596500,10.344596435546874,1.5738611221313477,-20.955181121826172,8.01364803314209
1702137744960588300,10.36158837890625,2.072657585144043,-19.030485153198242,10.903980255126953
1702137744977573600,10.37857373046875,2.202347755432129,-16.205223083496094,13.685749053955078
1702137744994569700,10.39556982421875,3.8490447998046875,-12.882549285888672,14.866842269897461
1702137745011558100,10.41255810546875,6.066876411437988,-13.699004173278809,13.689945220947266
1702137745028549400,10.42954931640625,6.668268203735352,-13.940987586975098,12.573894500732422
1702137745045540600,10.44654052734375,3.594285488128662,-16.456016540527344,14.575984954833984
1702137745062531600,10.463531494140625,2.0182137489318848,-17.262845993041992,17.40118408203125
1702137745079522800,10.480522705078124,4.525332450866699,-17.614038467407227,20.914783477783203
1702137745096513800,10.497513671875,6.031271934509277,-18.797426223754883,25.330886840820312
1702137745113494300,10.514494384765625,7.383784294128418,-19.822574615478516,33.31775665283203
1702137745130498300,10.531498291015625,4.884860038757324,-18.935657501220703,36.32005310058594
1702137745147484700,10.548484619140625,2.412543773651123,-20.99062728881836,32.93769836425781
1702137745164465200,10.565465087890624,4.87786865234375,-25.94337272644043,30.517314910888672
1702137745181460000,10.5824599609375,9.567449569702148,-30.818065643310547,40.95255661010742
1702137745198449700,10.59944970703125,9.965578079223633,-29.253999710083008,51.40736770629883
1702137745215441000,10.61644091796875,5.475826740264893,-23.729644775390625,46.087371826171875
1702137745232432400,10.633432373046874,-0.34023141860961914,-22.565855026245117,35.591552734375
1702137745249425700,10.65042578125,-0.5026785135269165,-24.787036895751953,29.967697143554688
1702137745266417000,10.6674169921875,5.74406623840332,-28.593547821044922,28.240835189819336
1702137745283416000,10.684416015625,12.892412185668945,-31.785343170166016,36.60780334472656
1702137745300406800,10.70140673828125,15.851309776306152,-29.03946304321289,41.9700813293457
1702137745317395700,10.718395751953125,13.397647857666016,-24.895339965820312,36.979759216308594
1702137745334376700,10.735376708984376,10.275005340576172,-23.500703811645508,29.257570266723633
1702137745351380500,10.75238037109375,10.489439010620117,-22.629013061523438,26.45671844482422
1702137745368371200,10.76937109375,10.311725616455078,-23.396408081054688,26.18358039855957
1702137745385352700,10.786352783203125,12.50448989868164,-21.21654510498047,27.786415100097656
1702137745402352600,10.8033525390625,14.18618392944336,-17.591859817504883,34.7535285949707
1702137745419345700,10.820345703125,10.405738830566406,-12.74090576171875,38.25153732299805
1702137745436335900,10.8373359375,6.946361541748047,-8.23954963684082,32.571144104003906
1702137745453327000,10.8543271484375,6.637211799621582,-5.63853645324707,27.927505493164062
1702137745470318000,10.871318115234375,8.469564437866211,-3.051791191101074,24.539953231811523
1702137745487309300,10.888309326171875,11.930502891540527,-0.17066407203674316,25.19637680053711
1702137745504296400,10.90529638671875,12.42590045928955,2.5749542713165283,27.220916748046875
1702137745521295400,10.92229541015625,6.579798698425293,4.076502323150635,26.62285614013672
1702137745538282500,10.939282470703125,1.6578693389892578,6.3043975830078125,21.73513412475586
1702137745555273500,10.9562734375,2.5733699798583984,7.838996887207031,18.61859703063965
1702137745572254000,10.97325390625,7.294168472290039,8.035331726074219,18.846717834472656
1702137745589245200,10.9902451171875,8.762687683105469,8.17833137512207,20.086349487304688
1702137745606247000,11.007246826171874,4.460026741027832,7.518890380859375,19.317325592041016
1702137745623238000,11.02423779296875,-0.26126813888549805,6.438876152038574,16.168373107910156
1702137745640229000,11.04122900390625,-3.021841287612915,4.713721752166748,12.478876113891602
1702137745657216800,11.058216796875,-2.6346242427825928,2.0486106872558594,9.463567733764648
1702137745674204700,11.07520458984375,0.7452163696289062,0.08181595802307129,6.756478309631348
1702137745691202600,11.09220263671875,3.648102283477783,-2.0445778369903564,4.996410846710205
1702137745708193500,11.109193603515624,5.147310733795166,-4.123189926147461,3.8354787826538086
1702137745725184800,11.126184814453126,4.409502029418945,-5.877524375915527,2.310418128967285
1702137745742175700,11.14317578125,2.3424251079559326,-6.851893424987793,0.5694160461425781
1702137745759166700,11.160166748046874,0.4942746162414551,-7.144335746765137,-0.851628303527832
1702137745776158000,11.177157958984376,-0.7028840780258179,-7.1734795570373535,-1.580174446105957
1702137745793149200,11.194149169921875,-1.1052238941192627,-7.242051124572754,-1.8710966110229492
1702137745810143500,11.2111435546875,-0.5710978507995605,-6.7713751792907715,-2.0296764373779297
1702137745827128000,11.228128173828125,0.671188235282898,-5.964778423309326,-1.7143135070800781
1702137745844122600,11.24512255859375,1.8308701515197754,-5.193761825561523,-1.1221790313720703
1702137745861113300,11.26211328125,2.4624531269073486,-4.381801605224609,-1.0405797958374023
1702137745878104600,11.2791044921875,2.7916855812072754,-4.098788738250732,-0.9740066528320312
1702137745895095800,11.296095703125,3.3544952869415283,-3.6840810775756836,-1.1656389236450195
1702137745912098600,11.3130986328125,3.9409713745117188,-3.2260279655456543,-1.2791852951049805
1702137745929077800,11.330077880859376,4.607639312744141,-2.745739459991455,0.6017885208129883
1702137745946069000,11.347069091796875,5.174860954284668,-2.403160333633423,2.8811817169189453
1702137745963053300,11.36405322265625,5.553305625915527,-2.2859318256378174,3.637277603149414
1702137745980038400,11.381038330078125,6.376664638519287,-1.9486581087112427,2.291867256164551
1702137745997034500,11.398034423828125,7.422197341918945,-1.7969321012496948,2.093425750732422
1702137746014024400,11.4150244140625,7.654839515686035,-1.4337453842163086,3.571584701538086
1702137746031014400,11.432014404296876,5.814600944519043,-1.5549116134643555,4.788511276245117
1702137746048007200,11.449007080078125,4.307588577270508,-1.1081972122192383,4.0110650062561035
1702137746064996600,11.46599658203125,4.767892360687256,0.16513490676879883,4.168259620666504
1702137746081988600,11.482988525390626,4.812868595123291,2.6257529258728027,5.187549114227295
1702137746098980400,11.49998046875,2.5946221351623535,5.075265407562256,4.730784893035889
1702137746115969500,11.516969482421874,-1.292780876159668,7.672677993774414,2.9456186294555664
1702137746132960500,11.53396044921875,-2.5991291999816895,9.15253734588623,3.301097869873047
1702137746149952800,11.550952880859375,-2.1486644744873047,9.290889739990234,3.524852752685547
1702137746166943000,11.56794287109375,-0.7914505004882812,8.242406845092773,1.2353878021240234
1702137746183934200,11.584934326171876,-0.07762813568115234,7.397880554199219,-2.544968366622925
1702137746200926500,11.601926513671875,-0.49820923805236816,5.096098899841309,-4.398802757263184
1702137746217917000,11.6189169921875,-0.417360782623291,1.8078432083129883,-5.933216094970703
1702137746234910700,11.63591064453125,-0.46305155754089355,-1.0103163719177246,-7.746825218200684
1702137746251899400,11.6528994140625,-1.0691709518432617,-3.8004379272460938,-8.830615997314453
1702137746268888300,11.669888427734374,-1.2825965881347656,-5.855131149291992,-9.46581745147705
1702137746285891000,11.68689111328125,-1.3136296272277832,-7.4516706466674805,-9.495590209960938
1702137746302884900,11.703884765625,-1.3937020301818848,-9.040790557861328,-8.947588920593262
1702137746319873300,11.720873291015625,-0.8228015899658203,-10.547773361206055,-8.210384368896484
1702137746336864300,11.7378642578125,-0.30940985679626465,-11.651206016540527,-8.116023063659668
1702137746353855500,11.75485546875,0.3197624683380127,-12.249236106872559,-8.494672775268555
1702137746370836000,11.7718359375,0.6970696449279785,-12.703571319580078,-8.877059936523438
1702137746387835400,11.78883544921875,0.40425896644592285,-13.408401489257812,-8.519556045532227
1702137746404831200,11.805831298828124,-0.1679236888885498,-14.302452087402344,-7.857545852661133
1702137746421809400,11.822809326171875,-0.6633083820343018,-15.084993362426758,-7.193675994873047
1702137746438811100,11.83981103515625,-0.6561341285705566,-15.674335479736328,-5.99877405166626
1702137746455802400,11.85680224609375,-0.6253365278244019,-16.2874755859375,-4.320030689239502
1702137746472782600,11.873782470703125,-0.4570225477218628,-16.63473892211914,-3.337963581085205
1702137746489780500,11.890780517578126,-1.0541985034942627,-17.2601375579834,-2.4706826210021973
1702137746506775600,11.907775634765626,-3.188406467437744,-18.76860237121582,-0.8975937366485596
1702137746523766500,11.9247666015625,-3.4326090812683105,-20.53502655029297,3.010878086090088
1702137746540757800,11.9417578125,-2.273993968963623,-21.223480224609375,7.122754096984863
1702137746557748700,11.958748779296876,-1.4582582712173462,-20.546958923339844,10.211458206176758
1702137746574740000,11.975739990234375,-3.3566431999206543,-18.967540740966797,10.776463508605957
1702137746591731000,11.99273095703125,-7.19431209564209,-19.27306365966797,15.42125129699707
1702137746608712000,12.0097119140625,-9.222837448120117,-19.80698585510254,24.302085876464844
1702137746625713000,12.026712890625,-7.032541275024414,-16.783355712890625,31.42788314819336
1702137746642707500,12.04370751953125,-7.412581920623779,-11.787675857543945,29.803770065307617
1702137746659689700,12.060689697265625,-7.527188301086426,-9.001654624938965,31.06686782836914
1702137746676690200,12.077690185546874,-7.839468002319336,-8.453841209411621,34.044429779052734
1702137746693675000,12.094675048828124,-7.690669059753418,-9.652801513671875,36.83619689941406
1702137746710671400,12.11167138671875,-5.640954494476318,-9.10449504852295,36.72952651977539
1702137746727657200,12.1286572265625,-2.467674732208252,-9.189092636108398,36.324134826660156
1702137746744642800,12.145642822265625,1.373559832572937,-9.012224197387695,37.16567611694336
1702137746761642000,12.16264208984375,5.690299034118652,-8.3304443359375,39.204925537109375
1702137746778633200,12.17963330078125,8.062389373779297,-7.18855094909668,40.332908630371094
1702137746795624200,12.196624267578125,9.265235900878906,-8.187736511230469,40.092063903808594
1702137746812615400,12.213615478515624,12.614187240600586,-11.516714096069336,38.132957458496094
1702137746829611500,12.230611572265625,15.357629776000977,-14.596853256225586,32.95588684082031
1702137746846597000,12.24759716796875,17.916547775268555,-17.14641571044922,28.52129364013672
1702137746863588900,12.2645888671875,21.969974517822266,-18.62406349182129,25.684206008911133
1702137746880579800,12.281579833984376,20.527362823486328,-19.265235900878906,25.299034118652344
1702137746897570800,12.29857080078125,17.027254104614258,-20.08468246459961,26.376792907714844
1702137746914551300,12.31555126953125,17.447189331054688,-20.445457458496094,26.177143096923828
1702137746931551000,12.332551025390625,21.172765731811523,-20.67646026611328,24.665088653564453
1702137746948546300,12.34954638671875,22.352123260498047,-19.72100067138672,21.411376953125
1702137746965535200,12.36653515625,18.025175094604492,-17.89466667175293,17.075925827026367
1702137746982526200,12.383526123046876,12.187347412109375,-15.37485122680664,15.040238380432129
1702137746999517200,12.40051708984375,8.766271591186523,-14.652009963989258,16.860023498535156
1702137747016508700,12.4175087890625,9.021129608154297,-13.647891998291016,16.821510314941406
1702137747033499600,12.434499755859376,12.192110061645508,-16.204933166503906,19.40203094482422
1702137747050488600,12.451488525390625,12.08128833770752,-16.610307693481445,20.21271324157715
1702137747067479600,12.4684794921875,7.511498928070068,-15.733688354492188,20.94827651977539
1702137747084475100,12.48547509765625,0.2798454761505127,-13.853231430053711,22.415103912353516
1702137747101463800,12.5024638671875,-6.484915256500244,-12.314157485961914,23.902109146118164
1702137747118455000,12.519455078125,-9.82139778137207,-11.13706111907959,24.281360626220703
1702137747135446500,12.536446533203126,-9.691247940063477,-12.651840209960938,24.35871124267578
1702137747152434400,12.553434326171875,-4.785211563110352,-12.776511192321777,21.945716857910156
1702137747169431600,12.570431640625,-0.044457435607910156,-11.766151428222656,19.920522689819336
1702137747186419500,12.58741943359375,0.8805110454559326,-10.170265197753906,19.22759246826172
1702137747203411000,12.604410888671875,-0.8194265365600586,-9.111278533935547,19.555049896240234
1702137747220402000,12.62140185546875,-2.6677050590515137,-8.365403175354004,18.37494659423828
1702137747237393000,12.638392822265626,-3.6950440406799316,-8.653200149536133,15.451065063476562
1702137747254383900,12.6553837890625,-1.938765048980713,-9.653836250305176,11.108465194702148
1702137747271375000,12.672375,1.2122902870178223,-10.834595680236816,6.74114990234375
1702137747288366000,12.689365966796874,4.963068008422852,-11.877289772033691,6.320158958435059
1702137747305344500,12.706344482421875,2.696007251739502,-13.935967445373535,13.25263500213623
1702137747322339600,12.723339599609375,-2.8215532302856445,-15.468060493469238,19.208526611328125
1702137747339340300,12.74034033203125,-4.040748596191406,-16.107059478759766,16.351591110229492
1702137747356330500,12.75733056640625,-1.1390461921691895,-17.824504852294922,11.512544631958008
1702137747373321700,12.77432177734375,3.320385217666626,-18.32147216796875,9.440071105957031
1702137747390299100,12.791299072265625,2.7938923835754395,-19.761362075805664,12.444622993469238
1702137747407304000,12.808303955078125,0.27431416511535645,-21.275367736816406,18.150644302368164
1702137747424282600,12.82528271484375,-3.067112445831299,-20.649423599243164,20.973772048950195
1702137747441277700,12.842277587890624,-2.250049114227295,-20.483367919921875,26.449676513671875
1702137747458277000,12.859277099609375,2.347026824951172,-21.355485916137695,33.91701889038086
1702137747475268600,12.8762685546875,8.082601547241211,-18.962282180786133,36.31983184814453
1702137747492246000,12.89324609375,8.070371627807617,-14.65414047241211,39.88738250732422
1702137747509250300,12.910250244140625,1.3749866485595703,-11.532735824584961,41.842735290527344
1702137747526241300,12.9272412109375,-3.2705156803131104,-12.060654640197754,45.56037521362305
1702137747543215600,12.944215576171874,0.9430629014968872,-15.93995475769043,51.2325439453125
1702137747560224000,12.96122412109375,9.521952629089355,-19.35574722290039,54.44355773925781
1702137747577214500,12.97821435546875,15.593884468078613,-19.994361877441406,56.27735900878906
1702137747594206200,12.995206298828125,17.870296478271484,-16.249452590942383,56.125179290771484
1702137747611197000,13.012197021484376,8.806718826293945,-18.281795501708984,53.8519287109375
1702137747628188000,13.02918798828125,2.8410942554473877,-26.000732421875,51.2597770690918
1702137747645179100,13.04617919921875,14.062392234802246,-35.8218879699707,48.5772705078125
1702137747662170400,13.06317041015625,26.362701416015625,-41.94463348388672,43.187381744384766
1702137747679153700,13.080153564453125,31.032447814941406,-42.88918685913086,31.693994522094727
1702137747696150300,13.097150390625,24.733299255371094,-39.45541763305664,21.94369125366211
1702137747713145900,13.114145751953124,14.428515434265137,-35.914756774902344,19.32020378112793
1702137747730122200,13.131122314453124,8.270051002502441,-33.38205337524414,14.026289939880371
1702137747747126000,13.1481259765625,10.202436447143555,-30.229217529296875,9.19516658782959
1702137747764116700,13.16511669921875,14.495915412902832,-25.675609588623047,9.315492630004883
1702137747781108000,13.18210791015625,9.69987678527832,-20.420150756835938,10.577609062194824
1702137747798097000,13.199096923828124,3.161985397338867,-18.227764129638672,9.678162574768066
1702137747815090000,13.21608984375,1.7985963821411133,-18.458600997924805,7.804891586303711
1702137747832071000,13.23307080078125,8.659151077270508,-19.1719970703125,9.835651397705078
1702137747849072600,13.25007275390625,16.838335037231445,-18.505901336669922,16.336254119873047
1702137747866052600,13.267052490234375,17.994192123413086,-16.261402130126953,20.904979705810547
1702137747883054600,13.2840546875,10.70895767211914,-15.258099555969238,22.605051040649414
1702137747900045600,13.301045654296875,3.9102697372436523,-18.602703094482422,22.893978118896484
1702137747917036800,13.318036865234374,4.280521392822266,-23.012500762939453,27.212528228759766
1702137747934027800,13.33502783203125,8.208036422729492,-26.173995971679688,36.26686096191406
1702137747951019000,13.35201904296875,9.477697372436523,-27.093759536743164,39.22357177734375
1702137747968007400,13.36900732421875,8.059213638305664,-30.33649444580078,35.548316955566406
1702137747985003800,13.386003662109376,4.255381107330322,-34.5010986328125,30.7576904296875
1702137748001992400,13.402992431640625,1.6179063320159912,-40.56110382080078,33.94207763671875
1702137748018983700,13.419983642578124,3.3353140354156494,-42.95701217651367,45.63982009887695
1702137748035974700,13.436974609375,1.7275495529174805,-41.3432502746582,53.19068145751953
1702137748052965600,13.453965576171875,-3.9611191749572754,-38.407405853271484,44.043819427490234
1702137748069956600,13.47095654296875,-2.8308444023132324,-39.213035583496094,32.01774215698242
1702137748086945500,13.487945556640625,5.923416614532471,-40.032569885253906,29.609907150268555
1702137748103944400,13.5049443359375,8.479321479797363,-43.99665832519531,36.837032318115234
1702137748120930000,13.521929931640624,7.241633415222168,-43.001976013183594,38.9929313659668
1702137748137919700,13.538919677734375,5.681621551513672,-39.02406692504883,42.084197998046875
1702137748154913500,13.55591357421875,3.5143465995788574,-33.63543701171875,42.254878997802734
1702137748171892700,13.572892822265626,2.770528554916382,-32.33942794799805,43.28329086303711
1702137748188894700,13.589894775390626,4.2983598709106445,-30.905345916748047,41.99843978881836
1702137748205885700,13.6068857421875,4.078321933746338,-26.091543197631836,37.8184700012207
1702137748222874600,13.62387451171875,1.7832163572311401,-20.110624313354492,36.746795654296875
1702137748239868000,13.640867919921876,-1.1529717445373535,-15.503547668457031,43.2888069152832
1702137748256858600,13.657858642578125,-6.763557434082031,-10.420147895812988,45.21795654296875
1702137748273849900,13.674849853515624,-8.148417472839355,-6.4600605964660645,38.2803955078125
1702137748290830800,13.691830810546875,-5.88055419921875,-1.4730517864227295,31.373804092407227
1702137748307829500,13.70882958984375,-4.78958797454834,0.7835206985473633,29.678852081298828
1702137748324825900,13.725825927734375,-6.605494499206543,2.5261502265930176,29.395801544189453
1702137748341814300,13.742814208984376,-10.89858341217041,5.041419506072998,27.643203735351562
1702137748358805200,13.75980517578125,-14.811811447143555,5.2652268409729,23.73720932006836
1702137748375786500,13.776786376953124,-13.532236099243164,5.041198253631592,17.941417694091797
1702137748392777700,13.79377783203125,-8.636636734008789,4.387688636779785,14.579824447631836
1702137748409778000,13.81077783203125,-4.989362716674805,3.4523682594299316,13.142080307006836
1702137748426770000,13.82777001953125,-4.143503665924072,2.3377764225006104,11.25750732421875
1702137748443761200,13.84476123046875,-5.462045669555664,1.2246065139770508,9.080930709838867
1702137748460743400,13.861743408203125,-7.28316593170166,0.19209599494934082,7.515783786773682
1702137748477743000,13.8787431640625,-8.232230186462402,-1.1360750198364258,6.107359886169434
1702137748494732500,13.895732666015626,-8.083507537841797,-2.0981862545013428,4.521095275878906
1702137748511722500,13.912722412109375,-6.0455217361450195,-3.0452070236206055,3.464522361755371
1702137748528721000,13.929720947265626,-3.0114216804504395,-3.878326654434204,2.2400903701782227
1702137748545707300,13.946707275390626,-1.1388083696365356,-4.5982160568237305,1.1496753692626953
1702137748562698500,13.963698486328125,-0.40121161937713623,-5.3258562088012695,0.614776611328125
1702137748579689700,13.980689697265625,1.8369942903518677,-5.128577709197998,-0.031119346618652344
1702137748596680700,13.9976806640625,3.671642303466797,-4.500985622406006,0.13937664031982422
1702137748613682200,14.01468212890625,4.29605770111084,-3.9108119010925293,0.5527315139770508
1702137748630660400,14.031660400390624,4.257150650024414,-3.347604274749756,0.3129425048828125
1702137748647654000,14.04865380859375,4.307600498199463,-2.8844964504241943,0.43683910369873047
1702137748664637400,14.065637451171876,4.724388599395752,-2.7817962169647217,1.2923927307128906
1702137748681625600,14.08262548828125,5.650276184082031,-2.4647507667541504,1.7896556854248047
1702137748698622000,14.0996220703125,6.173323631286621,-2.043160915374756,2.7939329147338867
1702137748715610400,14.1166103515625,5.775392532348633,-1.59305739402771,4.252946853637695
1702137748732599000,14.13359912109375,5.395038604736328,-1.3199257850646973,4.985252380371094
1702137748749590500,14.150590576171876,4.940113544464111,-0.9013766646385193,4.21690559387207
1702137748766592000,14.167592041015626,4.887689590454102,-0.8012348413467407,4.258954048156738
1702137748783585500,14.18458544921875,5.2432637214660645,-0.8873147964477539,5.577603340148926
1702137748800570000,14.201570068359375,5.200544834136963,-1.0741326808929443,6.996468544006348
1702137748817565000,14.21856494140625,4.258426189422607,-1.7206339836120605,7.32069206237793
1702137748834556200,14.23555615234375,3.216257095336914,-1.8849257230758667,6.060403823852539
1702137748851536600,14.25253662109375,3.3073434829711914,-2.066128730773926,5.085162162780762
1702137748868538400,14.269538330078126,4.698646068572998,-1.4314452409744263,4.098827362060547
1702137748885529300,14.286529296875,4.817570686340332,-0.5085892677307129,3.6340837478637695
1702137748902520800,14.303520751953124,4.700803756713867,0.8762331008911133,2.1309242248535156
1702137748919511600,14.320511474609376,5.070496559143066,3.079216957092285,-0.04914426803588867
1702137748936503000,14.3375029296875,5.028162479400635,5.166721820831299,-0.8881015777587891
1702137748953475800,14.354475830078124,4.786360740661621,5.65006160736084,-0.854283332824707
1702137748970485000,14.371485107421876,4.136946201324463,5.054110527038574,-1.043869972229004
1702137748987476000,14.38847607421875,2.7892699241638184,3.4394688606262207,-3.041065216064453
1702137749004457500,14.40545751953125,2.19777774810791,1.1183137893676758,-5.131385803222656
1702137749021458200,14.422458251953126,2.569566249847412,-1.5368232727050781,-6.537559509277344
1702137749038449400,14.439449462890625,3.3984036445617676,-3.780764579772949,-7.733089447021484
1702137749055437800,14.456437744140626,3.836298704147339,-5.181513786315918,-8.789243698120117
1702137749072434200,14.47343408203125,3.633683919906616,-6.3378448486328125,-9.043473243713379
1702137749089422800,14.4904228515625,3.363670825958252,-7.407688140869141,-8.672765731811523
1702137749106413800,14.507413818359375,3.1841557025909424,-8.721441268920898,-8.395866394042969
1702137749123405000,14.524405029296876,2.9749958515167236,-9.727516174316406,-9.316505432128906
1702137749140393500,14.5413935546875,2.5590732097625732,-10.501361846923828,-10.645759582519531
1702137749157389800,14.558389892578125,1.536905288696289,-11.224349021911621,-11.568737030029297
1702137749174378200,14.575378173828126,0.43706822395324707,-12.113236427307129,-11.632174491882324
1702137749191369200,14.592369140625,-0.4476490020751953,-13.816289901733398,-9.9058837890625
1702137749208360400,14.6093603515625,-0.36012351512908936,-15.084455490112305,-7.6414408683776855
1702137749225351700,14.6263515625,-0.45055854320526123,-15.840409278869629,-6.253601551055908
1702137749242342700,14.6433427734375,-1.8314136266708374,-16.593524932861328,-4.682908535003662
1702137749259334000,14.660333984375,-1.9827585220336914,-17.706010818481445,-1.1731724739074707
1702137749276324900,14.677324951171874,-2.2804360389709473,-17.69759750366211,3.418362617492676
1702137749293305600,14.6943056640625,-3.0015058517456055,-17.809825897216797,4.80641508102417
1702137749310307000,14.71130712890625,-1.8982923030853271,-17.207202911376953,4.905163764953613
1702137749327298000,14.728298095703124,-2.0628042221069336,-16.808616638183594,8.717016220092773
1702137749344289300,14.745289306640625,-4.801901817321777,-15.804914474487305,16.19529914855957
1702137749361280300,14.7622802734375,-8.544235229492188,-13.811159133911133,20.99421501159668
1702137749378271500,14.779271484375,-11.914483070373535,-12.138374328613281,21.460193634033203
1702137749395261200,14.79626123046875,-12.608063697814941,-11.497503280639648,22.399404525756836
1702137749412255200,14.813255126953125,-11.717304229736328,-11.647828102111816,25.644277572631836
1702137749429244700,14.83024462890625,-10.819581031799316,-12.230507850646973,30.369726181030273
1702137749446231600,14.8472314453125,-8.746298789978027,-11.766263008117676,32.204044342041016
1702137749463226600,14.8642265625,-6.732698917388916,-10.908801078796387,32.86745834350586
1702137749480217300,14.88121728515625,-4.618884086608887,-9.793713569641113,33.92400360107422
1702137749497198600,14.898198486328125,-2.14518404006958,-9.127942085266113,34.89596939086914
1702137749514195000,14.91519482421875,1.1913018226623535,-8.250055313110352,36.05170440673828
1702137749531180300,14.93218017578125,4.310477256774902,-8.765820503234863,35.49594497680664
1702137749548179000,14.949178955078125,8.28769588470459,-10.832870483398438,34.029258728027344
1702137749565168600,14.966168701171876,11.76575756072998,-13.145179748535156,30.807071685791016
1702137749582155500,14.983155517578124,14.625265121459961,-15.148412704467773,27.98345184326172
1702137749599145500,15.0001455078125,15.689956665039062,-17.745201110839844,26.45168685913086
1702137749616137000,15.017136962890625,15.169214248657227,-18.77133560180664,23.326251983642578
1702137749633128000,15.0341279296875,12.932988166809082,-18.54167938232422,20.47430992126465
1702137749650127400,15.05112744140625,11.83353042602539,-18.394006729125977,19.592464447021484
1702137749667115000,15.068114990234376,13.954517364501953,-17.16311264038086,18.718975067138672
1702137749684104200,15.085104248046875,14.96646499633789,-16.0739688873291,19.640932083129883
1702137749701097000,15.102096923828125,13.97186279296875,-15.458700180053711,19.97452163696289
1702137749718081800,15.119081787109375,13.18805980682373,-13.374345779418945,16.897968292236328
1702137749735082800,15.136082763671874,12.274896621704102,-11.629534721374512,15.068380355834961
1702137749752065800,15.153065673828126,11.414730072021484,-11.239425659179688,13.802321434020996
1702137749769066000,15.17006591796875,10.691561698913574,-11.714223861694336,13.783361434936523
1702137749786054100,15.18705419921875,10.301627159118652,-11.13685131072998,13.713968276977539
1702137749803047200,15.204047119140625,9.028486251831055,-10.643123626708984,16.006162643432617
1702137749820036000,15.2210361328125,8.931296348571777,-10.642817497253418,19.06873321533203
1702137749837032700,15.23803271484375,9.830013275146484,-9.900647163391113,22.718154907226562
1702137749854022700,15.255022705078124,4.572038650512695,-9.945499420166016,27.797626495361328
1702137749871013400,15.272013427734375,-3.3227767944335938,-9.574691772460938,29.653995513916016
1702137749888004000,15.289004150390625,-6.194700717926025,-9.798989295959473,29.843408584594727
1702137749904995800,15.305995849609374,-2.8620707988739014,-12.683147430419922,28.866870880126953
1702137749921986600,15.322986572265625,4.581575870513916,-14.532800674438477,28.41015625
1702137749938977800,15.339977783203125,7.565156936645508,-13.622100830078125,28.615718841552734
1702137749955968800,15.35696875,3.2361340522766113,-12.091497421264648,28.576942443847656
1702137749972960000,15.3739599609375,-3.4773969650268555,-10.466970443725586,26.373920440673828
1702137749989940200,15.390940185546874,-8.848960876464844,-9.945112228393555,21.77454376220703
1702137750006942000,15.40794189453125,-8.52202033996582,-10.340688705444336,15.599702835083008
1702137750023933200,15.42493310546875,-2.1812491416931152,-12.276214599609375,11.127492904663086
1702137750040924400,15.44192431640625,4.703830718994141,-13.533580780029297,11.175382614135742
1702137750057915400,15.458915283203124,5.732214450836182,-15.028799057006836,17.132665634155273
1702137750074906600,15.47590673828125,1.3101706504821777,-14.71175479888916,19.553857803344727
1702137750091886800,15.492886962890625,-3.556288719177246,-13.975515365600586,15.874135971069336
1702137750108894000,15.50989404296875,-4.611649513244629,-11.865793228149414,11.314126968383789
1702137750125879600,15.526879638671875,-3.465872287750244,-13.846508979797363,15.804540634155273
1702137750142870800,15.543870849609375,-3.861107349395752,-16.606239318847656,20.481952667236328
1702137750159857700,15.560857666015625,-1.8867683410644531,-18.57858657836914,20.27237892150879
1702137750176853000,15.57785302734375,-0.04058051109313965,-19.525440216064453,18.02904510498047
1702137750193844200,15.59484423828125,-0.9013674259185791,-19.23535919189453,20.631874084472656
1702137750210829000,15.6118291015625,-1.7333041429519653,-18.748573303222656,28.25298500061035
1702137750227813000,15.628813232421875,-2.2418386936187744,-17.131500244140625,33.6180419921875
1702137750244819700,15.64581982421875,-2.621811628341675,-15.266124725341797,32.568599700927734
1702137750261808600,15.66280859375,-3.837146282196045,-14.015098571777344,33.583580017089844
1702137750278799600,15.679799560546876,-7.4803667068481445,-14.362773895263672,39.47673797607422
1702137750295790800,15.696790771484375,-9.341486930847168,-17.063631057739258,46.53134536743164
1702137750312785700,15.71378564453125,-6.833990097045898,-19.342914581298828,49.66252136230469
1702137750329764900,15.730764892578126,-4.020627975463867,-22.93465232849121,51.63957214355469
1702137750346766800,15.747766845703126,-2.657014846801758,-26.69754981994629,55.38972473144531
1702137750363753200,15.764753173828124,2.5395350456237793,-29.989805221557617,57.4920539855957
1702137750380747800,15.781747802734374,7.749000549316406,-32.4029655456543,55.24414825439453
1702137750397746700,15.79874658203125,11.197495460510254,-36.41387939453125,50.64096450805664
1702137750414728400,15.815728515625,17.440753936767578,-38.99928283691406,44.906883239746094
1702137750431719700,15.8327197265625,24.44093894958496,-39.5605583190918,37.60774612426758
1702137750448710000,15.8497099609375,25.738351821899414,-35.85332489013672,28.043289184570312
1702137750465701600,15.86670166015625,18.458284378051758,-31.71945571899414,21.91228485107422
1702137750482692600,15.883692626953126,11.045257568359375,-29.43619155883789,20.561830520629883
1702137750499683600,15.90068359375,6.011845588684082,-30.19680404663086,18.27731704711914
1702137750516674800,15.9176748046875,7.015202045440674,-30.962265014648438,11.019268989562988
1702137750533655600,15.934655517578125,12.186511993408203,-28.05708122253418,4.552873611450195
1702137750550670600,15.951670654296874,14.533782005310059,-24.059595108032227,5.779916286468506
1702137750567645700,15.968645751953124,12.18642807006836,-21.180248260498047,8.153545379638672
1702137750584640300,15.98564013671875,9.740150451660156,-19.446287155151367,7.951137542724609
1702137750601629700,16.002629638671873,9.48938274383545,-18.57916831970215,10.265544891357422
1702137750618620200,16.0196201171875,11.490530967712402,-18.251182556152344,15.68546199798584
1702137750635612400,16.0366123046875,11.973129272460938,-18.01661491394043,20.690324783325195
1702137750652603600,16.053603759765625,12.015338897705078,-18.819040298461914,23.450471878051758
1702137750669595000,16.070594970703127,12.601296424865723,-22.034334182739258,28.419511795043945
1702137750686584300,16.087584228515624,12.004424095153809,-25.809106826782227,32.707611083984375
1702137750703578000,16.104578125,12.55843734741211,-24.02659797668457,31.095870971679688
1702137750720567800,16.12156787109375,9.848772048950195,-24.095367431640625,32.68366241455078
1702137750737559000,16.13855908203125,5.445287704467773,-24.475412368774414,36.1649169921875
1702137750754550000,16.155550048828125,5.304612159729004,-26.587846755981445,40.98215866088867
1702137750771530800,16.17253076171875,11.65545654296875,-25.844141006469727,45.09470748901367
1702137750788532200,16.1895322265625,13.69231128692627,-26.604219436645508,49.571414947509766
1702137750805533200,16.206533203125,8.758622169494629,-26.78340721130371,46.93128967285156
1702137750822514700,16.2235146484375,2.3189516067504883,-26.305816650390625,38.576438903808594
1702137750839502800,16.2405029296875,5.50523567199707,-26.78487777709961,35.13298797607422
1702137750856499200,16.257499267578126,10.779542922973633,-30.443252563476562,40.1116943359375
1702137750873488000,16.27448779296875,17.940853118896484,-30.03409194946289,43.28258514404297
1702137750890476000,16.29147607421875,19.320688247680664,-26.78374481201172,44.941280364990234
1702137750907473000,16.308472900390626,11.942728042602539,-24.453123092651367,47.14521789550781
1702137750924460800,16.325460693359375,5.623658657073975,-22.821754455566406,42.540122985839844
1702137750941452300,16.342452392578124,10.727682113647461,-18.84680938720703,38.11286926269531
1702137750958443300,16.359443359375,11.433711051940918,-15.269367218017578,41.148406982421875
1702137750975434200,16.376434326171875,3.572310447692871,-12.601978302001953,41.6769905090332
1702137750992425500,16.393425537109376,-0.8524562120437622,-8.875411033630371,34.051143646240234
1702137751009416400,16.41041650390625,3.4075231552124023,-4.450455665588379,30.293621063232422
1702137751026407400,16.427407470703123,5.290058612823486,-2.3380484580993652,34.78215026855469
1702137751043388700,16.444388671875,1.4178123474121094,1.2078909873962402,35.38201141357422
1702137751060390100,16.46139013671875,-2.0080924034118652,5.972901344299316,28.285770416259766
1702137751077380900,16.478380859375,-2.725504159927368,7.377316951751709,25.891902923583984
1702137751094371800,16.495371826171876,-3.0895254611968994,7.55918025970459,25.762025833129883
1702137751111352600,16.5123525390625,-4.445874214172363,7.954371452331543,23.53287124633789
1702137751128354000,16.52935400390625,-5.537227630615234,8.899219512939453,19.967605590820312
1702137751145345500,16.546345458984376,-5.41256046295166,9.261232376098633,16.470129013061523
1702137751162336300,16.563336181640626,-4.659582614898682,8.486492156982422,14.56417465209961
1702137751179327500,16.580327392578123,-5.2040534019470215,6.521267890930176,13.875316619873047
1702137751196318500,16.597318359375,-7.173208236694336,3.3526360988616943,13.496545791625977
1702137751213304300,16.61430419921875,-7.83211612701416,0.4991992712020874,11.141098022460938
1702137751230302500,16.631302490234376,-5.262630939483643,-1.0710406303405762,7.134443283081055
1702137751247291600,16.648291748046876,-3.0727710723876953,-2.292072057723999,4.451386451721191
1702137751264283000,16.665282958984374,-3.206784725189209,-3.609781265258789,2.63468074798584
1702137751281273900,16.68227392578125,-2.5473995208740234,-4.0303497314453125,0.7904891967773438
1702137751298265300,16.699265380859377,-2.4019718170166016,-4.677950382232666,-0.23455810546875
1702137751315256300,16.71625634765625,-1.867916226387024,-5.205198287963867,-0.7034015655517578
1702137751332247300,16.733247314453124,-0.43538832664489746,-5.401618957519531,-0.42234134674072266
1702137751349238000,16.750238037109376,0.6914258003234863,-5.638463497161865,0.7729320526123047
1702137751366230300,16.767230224609374,1.2623653411865234,-5.324223041534424,1.0949583053588867
1702137751383220700,16.784220703125,0.9059813022613525,-5.033102035522461,-0.6064395904541016
1702137751400212000,16.8012119140625,0.5710378885269165,-4.838873863220215,-2.14320707321167
1702137751417202700,16.81820263671875,1.4334959983825684,-4.6849517822265625,-3.1589622497558594
1702137751434194000,16.83519384765625,3.3782949447631836,-4.517298221588135,-2.7896785736083984
1702137751451185200,16.85218505859375,4.7413434982299805,-4.567110538482666,-1.5986013412475586
1702137751468176400,16.86917626953125,5.220567226409912,-4.283945083618164,-0.0665130615234375
1702137751485156600,16.886156494140625,4.421934127807617,-3.5927116870880127,0.14125537872314453
1702137751502158600,16.90315869140625,2.565342664718628,-2.8122739791870117,-0.8154630661010742
1702137751519149300,16.9201494140625,1.6798313856124878,-2.178642511367798,-1.2856245040893555
1702137751536140300,16.937140380859375,2.2042603492736816,-1.7188529968261719,-0.5917806625366211
1702137751553131500,16.954131591796877,3.9528565406799316,-1.3056637048721313,0.9954614639282227
1702137751570120200,16.9711201171875,4.974508285522461,-0.9788007736206055,3.1605606079101562
1702137751587116300,16.9881162109375,4.6537322998046875,-0.2793070077896118,3.8035879135131836
1702137751604105200,17.005105224609373,3.01552677154541,0.14629191160202026,2.364424705505371
1702137751621096000,17.022095947265626,1.5312187671661377,0.10599809885025024,0.9658041000366211
1702137751638087200,17.039087158203124,1.9329643249511719,0.06497049331665039,0.5237703323364258
1702137751655075600,17.05607568359375,3.8301234245300293,0.14679020643234253,1.675619125366211
1702137751672061400,17.0730615234375,5.3005876541137695,0.263277530670166,4.180901527404785
1702137751689053200,17.09005322265625,4.956547737121582,0.922532320022583,5.5679168701171875
1702137751706051600,17.107051513671873,2.4737954139709473,1.575020670890808,4.527068138122559
1702137751723038500,17.12403857421875,-0.17627906799316406,2.063838005065918,2.87703800201416
1702137751740036400,17.141036376953124,-0.0394895076751709,2.5956361293792725,2.982457160949707
1702137751757015600,17.158015625,3.070429801940918,2.6695032119750977,4.809634208679199
1702137751774016000,17.17501611328125,6.80819034576416,3.0347201824188232,6.424134254455566
1702137751791007000,17.192007080078124,6.920207977294922,4.004255771636963,6.443759918212891
1702137751807998000,17.208998046875,2.5314033031463623,5.170292377471924,3.5938148498535156
1702137751824989200,17.2259892578125,-2.1591506004333496,5.685967922210693,1.5568957328796387
1702137751841980200,17.242980224609376,-1.5846185684204102,4.996499061584473,1.6766462326049805
1702137751858967000,17.259967041015624,2.0358381271362305,3.380793571472168,1.3361539840698242
1702137751875962000,17.276962158203126,4.181204795837402,1.4784727096557617,-0.4317936897277832
1702137751892958200,17.293958251953125,4.2871575355529785,-0.2899618148803711,-2.860812187194824
1702137751909944800,17.31094482421875,3.293508291244507,-1.5249676704406738,-5.076158046722412
1702137751926935800,17.327935791015626,1.9659433364868164,-2.416999340057373,-6.550253868103027
1702137751943924200,17.34492431640625,1.069457769393921,-3.3531594276428223,-7.535128593444824
1702137751960920300,17.36192041015625,1.240318775177002,-4.097506046295166,-8.078112602233887
1702137751977905000,17.37890478515625,1.6445133686065674,-4.830087661743164,-8.093255996704102
1702137751994903800,17.39590380859375,2.228984832763672,-5.708178520202637,-7.617387771606445
1702137752011880400,17.41288037109375,2.654510259628296,-6.497790336608887,-6.85014009475708
1702137752028882400,17.42988232421875,2.45521879196167,-7.45546293258667,-6.686288833618164
1702137752045873200,17.446873046875,2.1164114475250244,-8.43816089630127,-7.208085060119629
1702137752062864400,17.463864501953125,1.74012291431427,-9.475446701049805,-8.068788528442383
1702137752079855600,17.480855712890627,1.568037986755371,-10.331252098083496,-8.679694175720215
1702137752096846600,17.4978466796875,0.471677303314209,-11.716730117797852,-8.244401931762695
1702137752113837800,17.514837890625,-0.4264805316925049,-12.592037200927734,-7.400178909301758
1702137752130828300,17.531828369140626,-0.3448295593261719,-12.723758697509766,-7.236689567565918
1702137752147808300,17.548808349609374,-1.4023809432983398,-12.574308395385742,-6.51336145401001
1702137752164808000,17.565807861328125,-3.9805493354797363,-13.278324127197266,-3.3824541568756104
1702137752181796900,17.582796875,-6.710385799407959,-14.122035026550293,1.0091214179992676
1702137752198781700,17.59978173828125,-8.422082901000977,-15.047968864440918,5.7981157302856445
1702137752215775000,17.61677490234375,-8.045559883117676,-14.597491264343262,9.511075019836426
1702137752232765200,17.63376513671875,-8.186851501464844,-13.93841552734375,11.43963623046875
1702137752249759200,17.65075927734375,-9.338823318481445,-13.633731842041016,13.899348258972168
1702137752266757600,17.667757568359374,-9.770589828491211,-12.980743408203125,18.91299819946289
1702137752283745000,17.6847451171875,-8.823366165161133,-11.543905258178711,23.849872589111328
1702137752300743000,17.701742919921877,-8.401130676269531,-8.932270050048828,25.842546463012695
1702137752317730600,17.71873046875,-10.342008590698242,-7.2491021156311035,27.34149169921875
1702137752334720000,17.735719970703126,-10.504325866699219,-7.049365997314453,30.088825225830078
1702137752351715000,17.752715087890625,-6.814655780792236,-7.255816459655762,32.01063537597656
1702137752368704300,17.769704345703126,-1.8081881999969482,-6.859805107116699,32.08089065551758
1702137752385695200,17.7866953125,2.036705255508423,-6.244256973266602,31.824344635009766
1702137752402686200,17.803686279296876,4.678259372711182,-5.5340681076049805,32.12089538574219
1702137752419677400,17.820677490234374,6.527561187744141,-5.894640922546387,33.151676177978516
1702137752436668400,17.83766845703125,7.999403953552246,-7.244359970092773,32.597042083740234
1702137752453661000,17.854660888671877,9.707901954650879,-9.44643783569336,30.65605926513672
1702137752470649000,17.871649169921874,12.54510498046875,-11.911164283752441,28.411941528320312
1702137752487639000,17.88863916015625,14.094061851501465,-14.119122505187988,26.274375915527344
1702137752504635400,17.905635498046873,13.435916900634766,-16.10322380065918,23.326934814453125
1702137752521625000,17.922625,11.859089851379395,-17.474349975585938,20.931119918823242
1702137752538613800,17.93961376953125,11.123285293579102,-18.48468017578125,20.36865997314453
1702137752555606300,17.956606201171876,10.897834777832031,-20.412586212158203,21.8056640625
1702137752572597200,17.97359716796875,13.205720901489258,-20.649917602539062,20.22072982788086
1702137752589588200,17.990588134765623,17.617238998413086,-17.4775447845459,16.107566833496094
1702137752606579500,18.007579345703125,17.795480728149414,-13.569232940673828,12.928445816040039
1702137752623570400,18.0245703125,12.597885131835938,-10.645068168640137,11.956114768981934
1702137752640561700,18.041561767578123,7.535533905029297,-9.113590240478516,12.098546981811523
1702137752657552600,18.058552734375,7.108035087585449,-8.741536140441895,10.789722442626953
1702137752674543600,18.075543701171874,9.88400650024414,-9.049663543701172,9.456167221069336
1702137752691534800,18.092534912109375,11.375189781188965,-9.194826126098633,9.108169555664062
1702137752708525800,18.10952587890625,12.052738189697266,-9.248199462890625,11.331323623657227
1702137752725517000,18.12651708984375,8.780742645263672,-8.86994743347168,16.503814697265625
1702137752742508000,18.143508056640623,4.005701065063477,-8.761035919189453,21.654766082763672
1702137752759499300,18.160499267578125,1.0686193704605103,-9.108871459960938,23.264575958251953
1702137752776490500,18.177490478515626,-3.382960796356201,-7.187512397766113,21.854705810546875
1702137752793474600,18.194474609375,-11.793689727783203,-5.360198497772217,21.725860595703125
1702137752810472700,18.21147265625,-12.207898139953613,-6.850464344024658,22.373992919921875
1702137752827463400,18.22846337890625,-5.097515106201172,-7.533425331115723,21.980342864990234
1702137752844454400,18.245454345703124,-0.7644897699356079,-6.62111759185791,21.55948829650879
1702137752861445600,18.262445556640625,-2.417787790298462,-5.82974100112915,21.96548080444336
1702137752878436900,18.279436767578126,-5.113879680633545,-6.044353485107422,22.23627471923828
1702137752895428000,18.296427978515624,-7.93914794921875,-6.852587699890137,22.93851089477539
1702137752912419000,18.313419189453125,-11.314708709716797,-8.094210624694824,20.789627075195312
1702137752929410300,18.330410400390626,-9.379047393798828,-9.289872169494629,15.014713287353516
1702137752946404400,18.347404296875,-3.5165700912475586,-11.330893516540527,11.010643005371094
1702137752963381800,18.3643818359375,1.766603946685791,-12.818819046020508,9.429472923278809
1702137752980377600,18.381377685546877,1.9801487922668457,-14.842880249023438,13.26045036315918
1702137752997361700,18.398361572265625,-0.6861190795898438,-15.956357955932617,19.222572326660156
1702137753014357000,18.41535693359375,-2.603999137878418,-14.51432991027832,19.104829788208008
1702137753031342300,18.43234228515625,-2.298243522644043,-16.212570190429688,15.949490547180176
1702137753048339700,18.449339599609374,1.1854114532470703,-20.78624725341797,12.948777198791504
1702137753065331000,18.4663310546875,6.889841079711914,-21.463165283203125,9.184098243713379
1702137753082321200,18.483321044921876,10.619585037231445,-19.44903564453125,13.686868667602539
1702137753099313200,18.500313232421874,3.6999077796936035,-15.944990158081055,22.181678771972656
1702137753116301300,18.51730126953125,-8.924817085266113,-14.508869171142578,26.186582565307617
1702137753133295600,18.534295654296876,-9.337763786315918,-15.489599227905273,27.692184448242188
1702137753150286300,18.551286376953126,1.8325281143188477,-16.334388732910156,34.212833404541016
1702137753167275000,18.56827490234375,5.6112284660339355,-14.568357467651367,43.03270721435547
1702137753184270600,18.5852705078125,2.1235578060150146,-10.96061897277832,41.42962646484375
1702137753201266400,18.602266357421875,-1.3278855085372925,-7.840728759765625,43.60808563232422
1702137753218252500,18.61925244140625,-9.334522247314453,-9.906815528869629,52.3539924621582
1702137753235240000,18.636239990234376,-8.311227798461914,-14.889969825744629,54.31645965576172
1702137753252232700,18.653232666015626,2.2697372436523438,-20.705768585205078,52.072505950927734
1702137753269229600,18.6702294921875,9.457029342651367,-23.078588485717773,51.7629508972168
1702137753286215400,18.68721533203125,10.333398818969727,-22.12409782409668,52.401939392089844
1702137753303206000,18.704205810546874,4.715150356292725,-22.30282974243164,51.97334289550781
1702137753320205300,18.721205322265625,4.594094276428223,-30.53688621520996,52.93274688720703
1702137753337196000,18.738196044921875,15.887136459350586,-38.36576843261719,43.65434646606445
1702137753354179000,18.755178955078126,26.927427291870117,-38.296241760253906,29.149295806884766
1702137753371178500,18.772178466796873,29.208341598510742,-34.433921813964844,21.837194442749023
1702137753388158000,18.789157958984376,24.2344913482666,-31.274890899658203,20.730758666992188
1702137753405160200,18.80616015625,15.720447540283203,-26.927724838256836,19.512691497802734
1702137753422151700,18.823151611328125,8.377140045166016,-26.15015411376953,15.790781021118164
1702137753439142700,18.840142578125,6.977403163909912,-24.709491729736328,8.973810195922852
1702137753456134000,18.8571337890625,8.07632064819336,-23.547069549560547,7.938433647155762
1702137753473124900,18.874124755859373,9.55506706237793,-21.60392951965332,9.946575164794922
1702137753490105300,18.891105224609376,9.025696754455566,-19.283103942871094,11.57876968383789
1702137753507104800,18.908104736328124,7.243885040283203,-19.032527923583984,12.752767562866211
1702137753524100900,18.925100830078126,7.189474105834961,-18.95832633972168,13.013350486755371
1702137753541089300,18.94208935546875,6.272097587585449,-18.123912811279297,13.66116714477539
1702137753558080500,18.95908056640625,3.98952579498291,-19.235570907592773,16.683610916137695
1702137753575071500,18.976071533203125,4.270798683166504,-21.26296043395996,19.76268768310547
1702137753592052200,18.99305224609375,6.890318393707275,-22.527454376220703,23.1447696685791
1702137753609050600,19.010050537109375,6.726792812347412,-24.193904876708984,27.21794319152832
1702137753626047700,19.0270478515625,2.6923203468322754,-25.831575393676758,30.372983932495117
1702137753643036000,19.044035888671875,-0.4851686954498291,-26.906171798706055,30.72418785095215
1702137753660016400,19.061016357421874,-0.8591381311416626,-29.771644592285156,30.896381378173828
1702137753677007400,19.07800732421875,2.03867769241333,-33.679466247558594,32.63367462158203
1702137753694006300,19.09500634765625,7.483982563018799,-37.87342834472656,40.896671295166016
1702137753711002600,19.112002685546877,9.2395658493042,-37.29592514038086,47.714412689208984
1702137753727991000,19.128990966796874,2.5444493293762207,-34.731693267822266,44.58641052246094
1702137753744982000,19.14598193359375,-2.7213704586029053,-33.05577087402344,37.507179260253906
1702137753761973200,19.16297314453125,-3.7886505126953125,-32.61216354370117,36.27153778076172
1702137753778964500,19.179964599609374,-3.875608205795288,-35.095703125,38.767757415771484
1702137753795943200,19.196943115234376,0.1763283610343933,-34.41100311279297,39.476253509521484
1702137753812935400,19.213935302734374,2.6795873641967773,-30.279754638671875,39.91279220581055
1702137753829939200,19.230939208984374,-0.2025216966867447,-28.80171775817871,36.93568420410156
1702137753846930000,19.247929931640623,1.2628635168075562,-25.853919982910156,32.85224914550781
1702137753863909000,19.2649091796875,1.529140591621399,-24.907264709472656,36.57853317260742
1702137753880908300,19.281908203125,0.6862149238586426,-22.297870635986328,38.43520736694336
1702137753897904600,19.298904541015624,0.2607957124710083,-16.062538146972656,36.52459716796875
1702137753914893300,19.315893310546876,-3.5399327278137207,-11.791679382324219,36.85863494873047
1702137753931873500,19.33287353515625,-5.0699639320373535,-7.910536766052246,34.08444595336914
1702137753948872700,19.349872802734374,0.07899367809295654,-4.397668838500977,30.08793067932129
1702137753965869000,19.366869140625,0.36942732334136963,-0.7494763135910034,30.652297973632812
1702137753982857500,19.383857421875,-3.9154052734375,1.387562870979309,28.834728240966797
1702137753999848400,19.400848388671875,-1.2418551445007324,3.887293815612793,22.333263397216797
1702137754016829700,19.41782958984375,3.269230842590332,6.328426361083984,20.191795349121094
1702137754033830700,19.43483056640625,0.620242714881897,6.891509056091309,21.771772384643555
1702137754050811400,19.451811279296876,-3.1109414100646973,7.735758304595947,19.696949005126953
1702137754067810000,19.46881005859375,-3.020221471786499,7.4412150382995605,17.407222747802734
1702137754084796700,19.485796630859376,-0.001229405403137207,7.350036144256592,14.920384407043457
1702137754101798100,19.502798095703124,0.3744443655014038,7.250162124633789,12.555615425109863
1702137754118783500,19.519783447265624,-1.7310394048690796,6.167101860046387,10.3401460647583
1702137754135779800,19.53677978515625,-3.3888752460479736,5.0687031745910645,8.531119346618652
1702137754152768300,19.553768310546875,-3.5285282135009766,3.648940324783325,7.616487503051758
1702137754169749000,19.5707490234375,-2.1602344512939453,2.277796745300293,6.735234260559082
1702137754186750700,19.587750732421874,-1.3769159317016602,0.96163010597229,6.0440216064453125
1702137754203741700,19.60474169921875,-1.7501848936080933,-0.42830824851989746,4.896909713745117
1702137754220732700,19.621732666015625,-1.2579933404922485,-1.6256370544433594,3.392867088317871
1702137754237723600,19.6387236328125,0.08005249500274658,-2.330613136291504,1.8152647018432617
1702137754254715000,19.65571484375,0.27917397022247314,-2.698716878890991,0.9081592559814453
1702137754271702000,19.672701904296876,-0.14386558532714844,-3.4451544284820557,1.253870964050293
1702137754288701200,19.689701171875,-0.0035825371742248535,-4.138471603393555,2.6069202423095703
1702137754305688300,19.706688232421875,0.0418214350938797,-4.885976791381836,3.0439414978027344
1702137754322679000,19.723678955078125,0.10602378845214844,-5.342061996459961,2.0793628692626953
1702137754339657500,19.740657470703123,0.3052126169204712,-5.597078800201416,0.4440584182739258
1702137754356661800,19.757661865234375,1.103175163269043,-5.598989963531494,-1.0402250289916992
1702137754373655000,19.774655029296873,3.084104061126709,-5.450133323669434,-1.74456787109375
1702137754390643500,19.7916435546875,4.563509941101074,-5.965057849884033,-0.26149463653564453
1702137754407633400,19.80863330078125,3.483313798904419,-7.639873027801514,2.551542282104492
1702137754424627000,19.825626953125,1.4734294414520264,-7.91290283203125,1.9172706604003906
1702137754441625300,19.842625244140624,0.5850009918212891,-8.134774208068848,-0.5363216400146484
1702137754458608000,19.859608154296875,1.6220262050628662,-7.378536224365234,-3.5047354698181152
1702137754475599000,19.87659912109375,3.3979218006134033,-6.736733436584473,-4.5020527839660645
1702137754492590000,19.893590087890626,4.028509140014648,-6.397353649139404,-3.1416683197021484
1702137754509581000,19.9105810546875,4.05136251449585,-6.361897945404053,-0.4802818298339844
1702137754526569200,19.9275693359375,3.7170369625091553,-6.484953880310059,0.6871671676635742
1702137754543566600,19.944566650390627,4.0082879066467285,-6.53794002532959,0.011979103088378906
1702137754560554200,19.96155419921875,5.7706499099731445,-6.289899826049805,-0.4508056640625
1702137754577542700,19.978542724609376,7.494389533996582,-5.395752429962158,-0.049086570739746094
1702137754594541300,19.995541259765623,8.41034984588623,-4.414808750152588,0.47294139862060547
1702137754611526000,20.01252587890625,8.25723648071289,-2.848830223083496,1.204977035522461
1702137754628519000,20.029518798828125,6.304240703582764,-1.6212329864501953,1.769108772277832
1702137754645510000,20.046510009765626,4.353918075561523,-0.04005289077758789,1.9235296249389648
1702137754662490400,20.063490478515625,3.1953210830688477,1.0026800632476807,2.088092803955078
1702137754679488500,20.080488525390624,3.6478378772735596,1.8244099617004395,2.356381416320801
1702137754696486700,20.097486572265623,5.303951263427734,3.359104633331299,2.832402229309082
1702137754713474300,20.114474365234376,6.947874069213867,5.507997512817383,3.3008689880371094
1702137754730463000,20.131462890625,7.115236282348633,7.153420448303223,5.22867488861084
1702137754747458800,20.148458740234375,5.0621490478515625,8.979087829589844,5.649843215942383
1702137754764451000,20.165451171875,2.4909653663635254,10.891629219055176,4.903055667877197
1702137754781437200,20.182437255859377,3.704514980316162,12.362747192382812,6.4509735107421875
1702137754798421000,20.1994208984375,5.805103302001953,12.268059730529785,10.126779556274414
1702137754815417600,20.21641748046875,5.052340507507324,11.886871337890625,9.877914428710938
1702137754832415000,20.2334150390625,-0.8710296154022217,9.340522766113281,6.001282215118408
1702137754849403000,20.25040283203125,-4.113824844360352,6.284471035003662,2.8413405418395996
1702137754866394000,20.26739404296875,-3.0422492027282715,4.039504528045654,0.8853044509887695
1702137754883385300,20.28438525390625,-0.5513463020324707,1.3098206520080566,-0.36414432525634766
1702137754900376000,20.3013759765625,1.5059020519256592,-1.2636923789978027,-2.1875743865966797
1702137754917367000,20.318366943359376,2.5061702728271484,-3.260496139526367,-4.1962480545043945
1702137754934358300,20.335358154296873,2.45212984085083,-4.876906394958496,-5.732958793640137
1702137754951349200,20.352349365234375,2.0374908447265625,-6.0816168785095215,-6.626750946044922
1702137754968339200,20.369339111328124,1.207111120223999,-6.934510707855225,-7.167813777923584
1702137754985333000,20.3863330078125,1.000272274017334,-7.772974014282227,-7.34824275970459
1702137755002322700,20.40332275390625,2.1569747924804688,-8.630902290344238,-7.314249038696289
1702137755019314000,20.42031396484375,3.4578397274017334,-9.612312316894531,-7.177271842956543
1702137755036304600,20.4373046875,3.5412886142730713,-10.719428062438965,-7.290220260620117
1702137755053293600,20.45429345703125,3.1843698024749756,-11.339417457580566,-7.6871490478515625
1702137755070286600,20.47128662109375,1.8007125854492188,-11.937189102172852,-8.130500793457031
1702137755087281000,20.488281005859374,0.5150976181030273,-12.691061019897461,-8.329634666442871
1702137755104269300,20.505269287109375,0.10179996490478516,-13.661852836608887,-7.561651229858398
1702137755121260300,20.52226025390625,-0.2320566177368164,-14.65752124786377,-6.644118309020996
1702137755138251500,20.53925146484375,-0.5710422992706299,-15.969995498657227,-5.02383279800415
1702137755155242500,20.556242431640626,-1.2425390481948853,-16.553184509277344,-3.3051891326904297
1702137755172233500,20.5732333984375,-5.787242889404297,-16.84040069580078,-0.9819951057434082
1702137755189220600,20.590220703125,-10.943456649780273,-18.674678802490234,3.688880443572998
1702137755206215000,20.60721484375,-12.525510787963867,-20.156627655029297,9.979744911193848
1702137755223207700,20.624207763671876,-11.704429626464844,-19.98796844482422,12.745794296264648
1702137755240190200,20.641190185546876,-10.024576187133789,-20.145673751831055,12.927871704101562
1702137755257192200,20.658192138671875,-5.545530319213867,-18.730344772338867,13.962602615356445
1702137755274177000,20.675177001953124,-1.9151873588562012,-16.762243270874023,21.118732452392578
1702137755291171000,20.692171142578125,-3.711362600326538,-14.748238563537598,29.179866790771484
1702137755308159500,20.709159423828126,-8.863407135009766,-12.202249526977539,31.35102081298828
1702137755325137200,20.72613720703125,-10.291604042053223,-12.684122085571289,33.4303092956543
1702137755342144500,20.74314453125,-5.025323867797852,-13.586604118347168,37.15092086791992
1702137755359135700,20.7601357421875,1.3271994590759277,-13.75251579284668,37.676109313964844
1702137755376116000,20.777115966796874,5.79691743850708,-12.613194465637207,35.36869812011719
1702137755393117700,20.79411767578125,7.897237300872803,-10.774384498596191,34.24296188354492
1702137755410108700,20.811108642578127,9.240704536437988,-9.17965316772461,32.872562408447266
1702137755427083500,20.82808349609375,8.963235855102539,-8.68112564086914,31.06640625
1702137755444088300,20.84508837890625,9.772381782531738,-9.948577880859375,30.19417381286621
1702137755461084400,20.86208447265625,12.405345916748047,-12.357760429382324,29.12689208984375
1702137755478073000,20.879072998046876,14.148749351501465,-14.851758003234863,25.89508819580078
1702137755495064300,20.896064208984374,14.832767486572266,-17.574935913085938,21.780200958251953
1702137755512044800,20.913044921875,15.300519943237305,-20.583702087402344,20.209684371948242
1702137755529046500,20.930046630859376,15.392117500305176,-22.06502914428711,19.435224533081055
1702137755546037200,20.947037353515626,15.786142349243164,-22.314048767089844,19.056089401245117
1702137755563028700,20.96402880859375,16.714860916137695,-21.231931686401367,17.839574813842773
1702137755580019700,20.981019775390624,16.81708335876465,-19.916561126708984,15.921874046325684
1702137755597010700,20.9980107421875,18.059703826904297,-17.5936279296875,13.67150592803955
1702137755613991200,21.0149912109375,16.50836944580078,-15.646303176879883,12.243121147155762
1702137755630989800,21.03198974609375,14.767115592956543,-12.652862548828125,10.609536170959473
1702137755647973000,21.04897314453125,13.729327201843262,-12.099092483520508,11.611069679260254
1702137755664966000,21.0659658203125,13.548759460449219,-12.664078712463379,11.933599472045898
1702137755681957400,21.082957275390626,12.986780166625977,-13.907649040222168,11.482942581176758
1702137755698946800,21.09994677734375,12.272936820983887,-14.41462516784668,11.757789611816406
1702137755715940900,21.11694091796875,11.213578224182129,-14.345544815063477,13.546981811523438
1702137755732929500,21.133929443359374,5.0899200439453125,-13.941319465637207,15.626861572265625
1702137755749930000,21.150929931640626,-0.5415022373199463,-13.867382049560547,16.703689575195312
1702137755766918400,21.16791845703125,-4.5974040031433105,-13.75504207611084,18.484031677246094
1702137755783915800,21.184915771484373,-6.697371482849121,-15.309205055236816,19.727035522460938
1702137755800903700,21.201903564453126,-2.2385730743408203,-18.31398582458496,19.447586059570312
1702137755817895000,21.21889501953125,5.036581993103027,-18.37022590637207,18.177066802978516
1702137755834886000,21.235885986328125,8.134413719177246,-15.782790184020996,17.710586547851562
1702137755851873300,21.252873291015625,4.541034698486328,-12.888442993164062,17.762248992919922
1702137755868868000,21.2698681640625,-1.644944667816162,-10.63669204711914,18.32040023803711
1702137755885851600,21.2868515625,-7.875105381011963,-9.804418563842773,16.952640533447266
1702137755902833000,21.3038330078125,-6.663944244384766,-10.959420204162598,14.346596717834473
1702137755919840300,21.32084033203125,-0.18736505508422852,-13.738614082336426,12.292119979858398
1702137755936833300,21.337833251953125,5.9468841552734375,-14.338347434997559,11.490310668945312
1702137755953823200,21.3548232421875,6.890632629394531,-15.146825790405273,14.347235679626465
1702137755970809300,21.371809326171874,1.6304736137390137,-16.176626205444336,17.468965530395508
1702137755987803000,21.388802978515624,-2.922231674194336,-16.29993438720703,15.420232772827148
1702137756004799500,21.405799560546875,-3.4205574989318848,-16.59877586364746,12.442085266113281
1702137756021788000,21.422787841796875,0.41971302032470703,-18.190370559692383,13.622599601745605
1702137756038778600,21.439778564453125,4.968937397003174,-18.09185028076172,16.63069725036621
1702137756055767300,21.456767333984374,3.5907154083251953,-19.160459518432617,19.711179733276367
1702137756072763100,21.47376318359375,-0.09393012523651123,-20.10797691345215,19.568784713745117
1702137756089752600,21.490752685546877,-3.9291021823883057,-20.737668991088867,20.203155517578125
1702137756106742500,21.507742431640626,-1.7523505687713623,-20.757047653198242,27.908504486083984
1702137756123734800,21.52473486328125,2.912010669708252,-17.376708984375,37.382408142089844
1702137756140712700,21.541712646484374,0.8359328508377075,-12.144407272338867,40.59624481201172
1702137756157716000,21.558716064453126,-6.821872711181641,-9.77608871459961,37.58110809326172
1702137756174708200,21.575708251953124,-10.516454696655273,-11.591170310974121,38.152774810791016
1702137756191698700,21.59269873046875,-8.543191909790039,-14.046760559082031,42.93277359008789
1702137756208689700,21.609689697265626,-4.072439193725586,-16.56889533996582,50.89447784423828
1702137756225671400,21.62667138671875,0.20579683780670166,-17.7291259765625,52.37496566772461
1702137756242671900,21.643671875,0.11921614408493042,-20.731416702270508,50.50553894042969
1702137756259662800,21.660662841796874,2.075251579284668,-22.441387176513672,49.319461822509766
1702137756276653800,21.67765380859375,4.744470119476318,-25.6260986328125,49.87152862548828
