time,seconds_elapsed,z,y,x
1702132511370080300,0.099080322265625,-1.6471576690673828,-0.6312358379364014,-0.31961798667907715
1702132511387059700,0.116059814453125,-2.0580673217773438,-0.7273645401000977,-0.36455416679382324
1702132511404053200,0.13305322265625,-1.989837646484375,-0.8402669429779053,-0.5674006938934326
1702132511421051600,0.1500517578125,-1.2679119110107422,-0.8372132778167725,0.14698290824890137
1702132511438038500,0.16703857421875,-0.6016902923583984,-0.998837947845459,-0.21680903434753418
1702132511455022000,0.18402197265625,-0.7316923141479492,-0.9325234889984131,-0.8038992881774902
1702132511472022300,0.201022216796875,-0.8089828491210938,-0.8792259693145752,-0.9551188945770264
1702132511489014000,0.218013916015625,-0.46778106689453125,-1.0364491939544678,-1.0607759952545166
1702132511506001400,0.23500146484375,-0.924746036529541,-1.3700191974639893,-1.4266648292541504
1702132511522993700,0.25199365234375,-1.6610798835754395,-2.077507972717285,-1.4897210597991943
1702132511539984600,0.268984619140625,-2.475034236907959,-2.7268800735473633,-2.0828287601470947
1702132511556962600,0.285962646484375,-4.040889739990234,-3.5625133514404297,-2.977648973464966
1702132511573964500,0.302964599609375,-4.767764091491699,-4.1058855056762695,-3.1242809295654297
1702132511590955500,0.31995556640625,-5.241430759429932,-5.047866344451904,-2.628854513168335
1702132511607948000,0.336947998046875,-5.887538433074951,-5.707179069519043,-2.004244804382324
1702132511624928300,0.35392822265625,-5.194767951965332,-6.318394660949707,-0.09127616882324219
1702132511641925600,0.370925537109375,-3.7290356159210205,-5.906146049499512,1.4377822875976562
1702132511658924000,0.387924072265625,-4.726029396057129,-5.9308342933654785,2.578584671020508
1702132511675900700,0.404900634765625,-6.086252212524414,-6.044435501098633,3.761662483215332
1702132511692899600,0.421899658203125,-5.5050578117370605,-6.264325141906738,5.456936836242676
1702132511709894100,0.43889404296875,-3.5243332386016846,-5.995120048522949,6.75830078125
1702132511726879200,0.455879150390625,-3.130317449569702,-5.498933792114258,7.745334625244141
1702132511743872800,0.472872802734375,-3.7665767669677734,-5.212403297424316,8.661149978637695
1702132511760864500,0.489864501953125,-2.7436392307281494,-4.737245082855225,9.47126579284668
1702132511777852000,0.506851806640625,-1.4410717487335205,-3.7448489665985107,9.487967491149902
1702132511794838300,0.52383837890625,-0.6605157852172852,-2.6518659591674805,9.845108985900879
1702132511811833600,0.54083349609375,-1.0409590005874634,-1.640053153038025,10.952749252319336
1702132511828829000,0.557828857421875,-1.9645254611968994,-0.7884492874145508,11.877618789672852
1702132511845807400,0.574807373046875,-2.269129991531372,0.05653095245361328,12.584162712097168
1702132511862805800,0.5918056640625,-2.6700730323791504,1.0060821771621704,12.939163208007812
1702132511879800600,0.608800537109375,-3.9054179191589355,1.7421362400054932,12.792119026184082
1702132511896792300,0.625792236328125,-4.779202938079834,1.6988195180892944,12.78797435760498
1702132511913777700,0.642777587890625,-4.133213043212891,1.716517448425293,12.978960990905762
1702132511930770400,0.6597705078125,-4.2718586921691895,1.6077826023101807,13.479849815368652
1702132511947756800,0.6767568359375,-3.633385181427002,1.230818510055542,13.92032527923584
1702132511964758500,0.693758544921875,-1.6692981719970703,1.3779003620147705,13.0322904586792
1702132511981742800,0.710742919921875,0.5941343307495117,1.033008098602295,12.099851608276367
1702132511998733000,0.727733154296875,2.1375339031219482,0.655853271484375,10.93992805480957
1702132512015716600,0.744716552734375,2.798490524291992,0.2991969585418701,10.639659881591797
1702132512032718800,0.76171875,3.120655059814453,0.5084531307220459,10.973335266113281
1702132512049707000,0.77870703125,3.233921527862549,1.252181053161621,11.18817138671875
1702132512066692600,0.795692626953125,4.986732482910156,2.438066005706787,12.181852340698242
1702132512083684000,0.81268408203125,7.642228603363037,2.9520263671875,12.956991195678711
1702132512100676600,0.829676513671875,10.96745491027832,3.5734119415283203,12.33255672454834
1702132512117667300,0.846667236328125,13.049585342407227,3.49200439453125,11.972102165222168
1702132512134647600,0.8636474609375,15.1242036819458,2.9339842796325684,11.610353469848633
1702132512151646700,0.880646728515625,17.33029556274414,1.9385137557983398,11.56057071685791
1702132512168642000,0.89764208984375,18.683456420898438,1.1336638927459717,10.050069808959961
1702132512185629200,0.914629150390625,18.051631927490234,0.09464554488658905,7.59028434753418
1702132512202620000,0.931619873046875,17.05961036682129,-0.5573253631591797,6.084125518798828
1702132512219612700,0.94861279296875,15.83679485321045,-1.3038945198059082,7.9895219802856445
1702132512236599000,0.96559912109375,14.100597381591797,-2.2386646270751953,11.111786842346191
1702132512253582300,0.982582275390625,11.84691047668457,-3.3792121410369873,12.650882720947266
1702132512270581500,0.99958154296875,10.28207778930664,-4.2981343269348145,11.945113182067871
1702132512287571500,1.016571533203125,9.241458892822266,-5.7520751953125,12.234393119812012
1702132512304567000,1.033567138671875,6.404148101806641,-7.324362754821777,9.844005584716797
1702132512321553200,1.05055322265625,4.998516082763672,-6.676949977874756,5.192396640777588
1702132512338546000,1.0675458984375,4.550650119781494,-5.854700088500977,4.372528553009033
1702132512355536400,1.084536376953125,0.3799476623535156,-6.061344623565674,4.677113056182861
1702132512372524500,1.101524658203125,-4.8330535888671875,-6.368775844573975,2.869149923324585
1702132512389520600,1.118520751953125,-8.1542387008667,-7.171544075012207,0.9075733423233032
1702132512406505700,1.135505615234375,-10.347868919372559,-6.93135929107666,-2.5377917289733887
1702132512423500500,1.15250048828125,-9.440832138061523,-6.395951271057129,-3.268315315246582
1702132512440487000,1.16948681640625,-7.002660751342773,-6.417987823486328,-3.3377974033355713
1702132512457479200,1.186479248046875,-4.52152156829834,-5.871232986450195,-4.857183933258057
1702132512474472000,1.203471923828125,-2.502253532409668,-5.282742500305176,-4.880584716796875
1702132512491462700,1.220462646484375,-1.5420112609863281,-4.160950183868408,-5.0358476638793945
1702132512508448300,1.2374482421875,-0.8875598907470703,-2.851921319961548,-5.466819763183594
1702132512525442300,1.2544423828125,0.12194347381591797,-1.268744707107544,-5.518837928771973
1702132512542430700,1.2714306640625,2.8637876510620117,0.2877345085144043,-5.66235876083374
1702132512559423200,1.28842333984375,6.230693817138672,1.3637850284576416,-4.893823146820068
1702132512576413000,1.305412841796875,8.227113723754883,1.8707330226898193,-2.7418837547302246
1702132512593408500,1.322408447265625,7.3404388427734375,2.498365640640259,-1.5950828790664673
1702132512610395000,1.339394775390625,4.920194625854492,2.376412868499756,-1.841038703918457
1702132512627390200,1.35639013671875,3.6962685585021973,0.2265627384185791,-0.7004702687263489
1702132512644377300,1.37337744140625,7.061121940612793,-2.1143007278442383,-0.9586800932884216
1702132512661368300,1.390368408203125,11.781787872314453,-3.4888954162597656,-1.5362272262573242
1702132512678356000,1.40735595703125,13.573074340820312,-3.9774694442749023,-2.300934314727783
1702132512695349800,1.424349853515625,11.129984855651855,-5.1902971267700195,-2.200441360473633
1702132512712339500,1.44133935546875,8.15660572052002,-7.20957612991333,-2.641829013824463
1702132512729329400,1.458329345703125,8.393601417541504,-8.733440399169922,-2.7535877227783203
1702132512746321000,1.47532080078125,10.283647537231445,-10.356252670288086,-0.008570194244384766
1702132512763311600,1.4923115234375,9.963884353637695,-11.793108940124512,-1.0371222496032715
1702132512780300800,1.50930078125,9.07226276397705,-13.561171531677246,-2.2104263305664062
1702132512797287200,1.526287109375,8.298070907592773,-14.756187438964844,-0.8711357116699219
1702132512814284000,1.543283935546875,9.373022079467773,-14.00489330291748,2.6920266151428223
1702132512831274200,1.560274169921875,8.306013107299805,-13.790264129638672,6.506028175354004
1702132512848262700,1.5772626953125,5.217313289642334,-14.29052734375,8.067005157470703
1702132512865256400,1.59425634765625,2.0947389602661133,-15.20026683807373,6.718085289001465
1702132512882245600,1.61124560546875,1.35980224609375,-16.736148834228516,4.072934150695801
1702132512899235800,1.62823583984375,2.6329548358917236,-16.89375114440918,2.4140663146972656
1702132512916220000,1.645219970703125,2.89882493019104,-16.000070571899414,4.9502668380737305
1702132512933218300,1.66221826171875,0.9648914337158203,-13.836390495300293,10.038769721984863
1702132512950207200,1.679207275390625,-3.402383327484131,-12.85302734375,15.884360313415527
1702132512967199700,1.69619970703125,-4.906705379486084,-14.877382278442383,19.794509887695312
1702132512984190000,1.71318994140625,-0.7580056190490723,-19.812545776367188,21.686748504638672
1702132513001181400,1.730181396484375,4.749011993408203,-23.564556121826172,22.851669311523438
1702132513018168300,1.747168212890625,8.475690841674805,-26.152427673339844,24.58172607421875
1702132513035163100,1.7641630859375,11.092660903930664,-29.205608367919922,27.887531280517578
1702132513052153000,1.781153076171875,14.39558219909668,-31.209339141845703,29.668983459472656
1702132513069144600,1.79814453125,18.72772979736328,-30.81328010559082,30.11231231689453
1702132513086131200,1.815131103515625,21.099605560302734,-27.5692081451416,29.402116775512695
1702132513103124500,1.83212451171875,19.866371154785156,-24.663227081298828,29.841053009033203
1702132513120116200,1.8491162109375,17.197906494140625,-26.158695220947266,28.821691513061523
1702132513137103600,1.866103515625,21.900936126708984,-29.33112335205078,23.383670806884766
1702132513154095900,1.883095947265625,32.2546272277832,-30.555009841918945,19.60198211669922
1702132513171086300,1.90008642578125,33.84054183959961,-27.29188346862793,18.159324645996094
1702132513188070100,1.917070068359375,24.735836029052734,-25.741783142089844,16.659271240234375
1702132513205069300,1.9340693359375,19.367490768432617,-25.279470443725586,13.017075538635254
1702132513222058500,1.95105859375,18.038320541381836,-24.047161102294922,10.1175537109375
1702132513239040800,1.968040771484375,13.520984649658203,-23.875864028930664,8.542282104492188
1702132513256037600,1.98503759765625,9.720937728881836,-23.522281646728516,5.276534557342529
1702132513273031200,2.00203125,9.12132740020752,-23.135787963867188,5.542852401733398
1702132513290022400,2.0190224609375,9.38753604888916,-21.579757690429688,7.023850440979004
1702132513307010000,2.036010009765625,7.31181526184082,-20.228979110717773,8.867742538452148
1702132513324003300,2.05300341796875,3.7052807807922363,-19.849315643310547,9.901504516601562
1702132513340983800,2.06998388671875,0.5733752250671387,-19.458940505981445,9.340909004211426
1702132513357981200,2.086981201171875,-0.5984854698181152,-18.340139389038086,8.456887245178223
1702132513374964500,2.103964599609375,0.12740230560302734,-16.991289138793945,6.493438243865967
1702132513391966200,2.12096630859375,2.562058448791504,-16.24271011352539,5.538203239440918
1702132513408949500,2.137949462890625,4.74398136138916,-15.567103385925293,8.282692909240723
1702132513425944000,2.154944091796875,3.883596420288086,-16.277454376220703,11.630701065063477
1702132513442937900,2.171937744140625,3.0823962688446045,-15.806295394897461,10.82004165649414
1702132513459928300,2.18892822265625,4.188478469848633,-14.567667961120605,8.692134857177734
1702132513476909300,2.205909423828125,5.418885231018066,-14.312948226928711,9.887564659118652
1702132513493907000,2.222906982421875,6.486623287200928,-15.134861946105957,14.89767074584961
1702132513510903300,2.2399033203125,6.666370391845703,-15.358907699584961,18.40170669555664
1702132513527887600,2.2568876953125,5.303393840789795,-15.658929824829102,18.429527282714844
1702132513544882000,2.2738818359375,3.3568992614746094,-16.93130111694336,17.409561157226562
1702132513561860900,2.29086083984375,1.982709288597107,-19.092060089111328,15.801983833312988
1702132513578861600,2.307861572265625,4.134459495544434,-21.905399322509766,16.08333396911621
1702132513595850000,2.32485009765625,8.341695785522461,-21.718997955322266,19.62232780456543
1702132513612843500,2.341843505859375,6.800703525543213,-21.527015686035156,22.215740203857422
1702132513629835500,2.35883544921875,4.376104354858398,-21.338911056518555,22.04989242553711
1702132513646822700,2.37582275390625,2.662297248840332,-23.09469985961914,22.241456985473633
1702132513663815200,2.392815185546875,3.815230369567871,-24.42983627319336,22.18404197692871
1702132513680808000,2.409807861328125,7.773904800415039,-24.29466438293457,22.707210540771484
1702132513697794000,2.4267939453125,11.21024227142334,-24.0922794342041,25.504581451416016
1702132513714788400,2.443788330078125,11.468425750732422,-20.810741424560547,25.384408950805664
1702132513731777500,2.460777587890625,9.856313705444336,-18.778732299804688,26.135393142700195
1702132513748770600,2.4777705078125,10.424009323120117,-15.692378997802734,25.083097457885742
1702132513765758000,2.494758056640625,11.240579605102539,-13.280357360839844,25.38745880126953
1702132513782756000,2.511756103515625,10.184957504272461,-11.302939414978027,25.29054069519043
1702132513799734800,2.52873486328125,8.360678672790527,-9.292234420776367,22.526212692260742
1702132513816734000,2.54573388671875,8.48924446105957,-5.80282735824585,20.768245697021484
1702132513833731800,2.56273193359375,9.664794921875,-4.551034450531006,22.481172561645508
1702132513850717000,2.579717041015625,7.832979202270508,-4.13519287109375,23.522693634033203
1702132513867703600,2.59670361328125,5.064828872680664,-2.7400994300842285,21.076183319091797
1702132513884694800,2.61369482421875,6.673729419708252,0.02577662467956543,17.207244873046875
1702132513901684000,2.63068408203125,11.100281715393066,1.680553674697876,17.336597442626953
1702132513918677000,2.647677001953125,12.178119659423828,2.294879913330078,18.664688110351562
1702132513935663000,2.6646630859375,9.005964279174805,1.9358807802200317,17.237140655517578
1702132513952656600,2.68165673828125,6.165301322937012,2.112961769104004,13.320436477661133
1702132513969648400,2.6986484375,5.630706310272217,2.859159469604492,9.870853424072266
1702132513986635300,2.71563525390625,6.057422637939453,2.405008316040039,10.246627807617188
1702132514003627800,2.732627685546875,5.770694255828857,1.99266517162323,9.532241821289062
1702132514020620500,2.74962060546875,6.027436256408691,1.1133617162704468,6.568306922912598
1702132514037610000,2.76660986328125,4.782289981842041,-0.021494269371032715,3.3658761978149414
1702132514054598000,2.783597900390625,1.2601673603057861,-0.81565260887146,2.2580814361572266
1702132514071580000,2.800579833984375,-0.6011853218078613,-1.4733238220214844,2.1167144775390625
1702132514088581400,2.817581298828125,0.32370686531066895,-1.4314162731170654,1.9466314315795898
1702132514105571300,2.8345712890625,3.402912139892578,-1.7529520988464355,2.287668228149414
1702132514122562800,2.851562744140625,6.027595520019531,-2.400022029876709,2.729969024658203
1702132514139554600,2.868554443359375,6.005424976348877,-2.8431408405303955,1.8975887298583984
1702132514156539100,2.8855390625,3.537273406982422,-3.100903272628784,0.24527549743652344
1702132514173536800,2.902536865234375,0.1553668975830078,-2.338949203491211,-0.37309837341308594
1702132514190526700,2.919526611328125,-2.8833892345428467,-1.7141627073287964,0.27593135833740234
1702132514207513300,2.936513427734375,-3.627945899963379,-0.9515479803085327,0.5961189270019531
1702132514224520400,2.9535205078125,-1.2670141458511353,-0.17401787638664246,0.3496713638305664
1702132514241498400,2.970498291015625,1.2243059873580933,0.15150216221809387,0.08823204040527344
1702132514258491100,2.9874912109375,2.6699585914611816,0.14096015691757202,-0.00656890869140625
1702132514275480300,3.004480224609375,2.598438262939453,0.2609189748764038,-0.3143939971923828
1702132514292470000,3.021469970703125,1.5690903663635254,0.3849986791610718,-0.5256099700927734
1702132514309460500,3.03846044921875,0.940153181552887,0.6220532655715942,0.1560955047607422
1702132514326450400,3.055450439453125,0.582451581954956,1.246140956878662,0.7615785598754883
1702132514343438000,3.07243798828125,0.20102588832378387,2.2339792251586914,1.0005674362182617
1702132514360431000,3.08943115234375,-0.30860233306884766,2.958876609802246,2.196451187133789
1702132514377412400,3.106412353515625,-0.25473612546920776,3.111307144165039,3.286196708679199
1702132514394414300,3.123414306640625,-0.7051173448562622,2.834563732147217,3.461573600769043
1702132514411401200,3.140401123046875,-2.175309658050537,3.548574686050415,2.5730409622192383
1702132514428398000,3.157398193359375,-4.506156921386719,4.626084327697754,3.5676259994506836
1702132514445385200,3.17438525390625,-6.532299041748047,5.463671684265137,7.818770408630371
1702132514462374000,3.191373779296875,-7.877613067626953,6.947039604187012,10.096428871154785
1702132514479369200,3.208369140625,-8.336332321166992,7.257503032684326,10.355740547180176
1702132514496357600,3.225357666015625,-5.805764198303223,5.994272232055664,9.619975090026855
1702132514513347800,3.242347900390625,-2.648338556289673,4.234308242797852,7.883238792419434
1702132514530326300,3.259326171875,-1.7427482604980469,2.1524648666381836,5.29610538482666
1702132514547331600,3.27633154296875,-2.3212637901306152,0.06591796875,2.5428833961486816
1702132514564320500,3.293320556640625,-3.247537612915039,-2.0839550495147705,-0.3921623229980469
1702132514581313300,3.310313232421875,-3.0748543739318848,-3.8877618312835693,-3.0676627159118652
1702132514598298600,3.327298583984375,-1.5625996589660645,-5.524355888366699,-4.873791694641113
1702132514615281200,3.34428125,0.5616726875305176,-6.802482604980469,-6.6950273513793945
1702132514632283100,3.361283203125,1.8839964866638184,-7.692141056060791,-9.244540214538574
1702132514649270500,3.3782705078125,3.2236363887786865,-9.661211967468262,-12.509502410888672
1702132514666266600,3.3952666015625,1.654416561126709,-10.186416625976562,-11.825575828552246
1702132514683254300,3.412254150390625,0.7372736930847168,-10.073366165161133,-10.823867797851562
1702132514700245500,3.42924560546875,0.91766357421875,-9.706478118896484,-10.604364395141602
1702132514717235500,3.4462353515625,1.733910322189331,-9.69359302520752,-10.657247543334961
1702132514734226700,3.463226806640625,1.1954209804534912,-9.977606773376465,-10.674263954162598
1702132514751206100,3.4802060546875,0.42783212661743164,-10.321708679199219,-10.354270935058594
1702132514768205600,3.49720556640625,2.0741634368896484,-10.751627922058105,-8.243319511413574
1702132514785200600,3.51420068359375,3.941338539123535,-10.758739471435547,-7.795127868652344
1702132514802189300,3.531189208984375,4.459137916564941,-11.923843383789062,-7.220736026763916
1702132514819179300,3.54817919921875,4.394950866699219,-12.860884666442871,-7.285307884216309
1702132514836170800,3.565170654296875,3.231905460357666,-13.690857887268066,-6.639522552490234
1702132514853160400,3.582160400390625,2.2562265396118164,-14.787609100341797,-2.9644052982330322
1702132514870148900,3.59914892578125,3.0971527099609375,-15.83362102508545,3.11785888671875
1702132514887144700,3.616144775390625,2.8810033798217773,-15.744125366210938,6.449414253234863
1702132514904127700,3.633127685546875,-0.8971805572509766,-15.083680152893066,5.34745979309082
1702132514921121000,3.65012109375,-3.8899948596954346,-15.840858459472656,5.884390830993652
1702132514938116600,3.66711669921875,-1.5456123352050781,-17.352632522583008,10.64177417755127
1702132514955104300,3.684104248046875,1.369837760925293,-16.444297790527344,18.320913314819336
1702132514972094700,3.7010947265625,-4.4704060554504395,-13.410627365112305,21.569522857666016
1702132514989086200,3.718086181640625,-12.070075988769531,-12.243484497070312,23.866962432861328
1702132515006076700,3.73507666015625,-12.689902305603027,-12.590448379516602,26.927715301513672
1702132515023067100,3.752067138671875,-9.184110641479492,-13.830181121826172,27.548240661621094
1702132515040058000,3.76905810546875,-3.264650344848633,-14.13576889038086,29.093231201171875
1702132515057048300,3.78604833984375,0.60423743724823,-11.504048347473145,31.19952392578125
1702132515074039300,3.803039306640625,0.09617642313241959,-8.134988784790039,32.92056655883789
1702132515091029200,3.820029296875,0.7373346090316772,-6.361590385437012,36.53361511230469
1702132515108020200,3.837020263671875,3.738698959350586,-5.605632781982422,38.75115966796875
1702132515125010400,3.854010498046875,9.501253128051758,-5.868757724761963,38.0084228515625
1702132515142002000,3.871001953125,16.428396224975586,-5.67690896987915,36.93229675292969
1702132515158992000,3.887991943359375,18.97430992126465,-6.170400142669678,35.505985260009766
1702132515175983000,3.904983154296875,17.038131713867188,-8.149474143981934,33.41074752807617
1702132515192973000,3.92197314453125,14.910415649414062,-10.952138900756836,31.927778244018555
1702132515209964800,3.93896484375,16.427631378173828,-13.000932693481445,29.210813522338867
1702132515226954200,3.955954345703125,22.072751998901367,-15.289054870605469,26.889114379882812
1702132515243945500,3.972945556640625,26.17276382446289,-16.00056266784668,22.363447189331055
1702132515260935700,3.989935791015625,26.173795700073242,-13.906423568725586,15.624326705932617
1702132515277924000,4.006924072265625,22.787708282470703,-11.984256744384766,12.272881507873535
1702132515294922800,4.0239228515625,19.570533752441406,-11.08786392211914,10.506184577941895
1702132515311904800,4.04090478515625,18.825759887695312,-10.155282020568848,9.611468315124512
1702132515328898000,4.05789794921875,19.48800277709961,-9.778730392456055,8.121302604675293
1702132515345889300,4.07488916015625,20.197040557861328,-9.311662673950195,7.936474800109863
1702132515362879200,4.091879150390625,18.908039093017578,-10.041336059570312,9.592214584350586
1702132515379868200,4.1088681640625,15.942621231079102,-9.480325698852539,10.235347747802734
1702132515396860400,4.1258603515625,13.007107734680176,-9.48221206665039,12.591466903686523
1702132515413854500,4.1428544921875,10.298996925354004,-8.712329864501953,15.16672420501709
1702132515430842000,4.159842041015625,6.371180534362793,-9.257364273071289,17.579893112182617
1702132515447833000,4.1768330078125,3.127305507659912,-11.158333778381348,19.299631118774414
1702132515464812800,4.193812744140625,3.7427163124084473,-12.7294282913208,18.273712158203125
1702132515481814300,4.210814208984375,6.569511413574219,-13.303390502929688,15.508111000061035
1702132515498801700,4.2278017578125,8.841475486755371,-12.667135238647461,13.415221214294434
1702132515515798000,4.244798095703125,8.119549751281738,-11.2903413772583,12.22418212890625
1702132515532785700,4.26178564453125,5.375032901763916,-10.683266639709473,11.986659049987793
1702132515549767000,4.278766845703125,3.648859977722168,-11.103322982788086,10.757838249206543
1702132515566756400,4.29575634765625,4.2057929039001465,-11.260965347290039,8.115816116333008
1702132515583750100,4.312750244140625,4.636650085449219,-12.186857223510742,5.862160682678223
1702132515600748300,4.329748291015625,4.858223915100098,-12.135705947875977,3.110382080078125
1702132515617739500,4.346739501953125,4.720963478088379,-12.85316276550293,3.298849105834961
1702132515634729500,4.3637294921875,6.721085071563721,-12.21612548828125,5.014156818389893
1702132515651726300,4.380726318359375,6.084465026855469,-12.619775772094727,8.046281814575195
1702132515668707800,4.397707763671875,3.16007661819458,-13.456565856933594,9.330351829528809
1702132515685704400,4.414704345703125,0.44196128845214844,-14.099510192871094,6.754385948181152
1702132515702691800,4.43169189453125,4.060729026794434,-14.496121406555176,3.9437594413757324
1702132515719672600,4.448672607421875,7.651511192321777,-15.05307674407959,4.897488594055176
1702132515736673300,4.46567333984375,8.018816947937012,-15.543550491333008,8.418830871582031
1702132515753664300,4.482664306640625,6.334375381469727,-15.227405548095703,11.726829528808594
1702132515770654200,4.499654296875,4.983240604400635,-14.32996940612793,14.543180465698242
1702132515787645400,4.5166455078125,4.624641418457031,-14.351919174194336,17.80215072631836
1702132515804625400,4.53362548828125,3.830831289291382,-15.192117691040039,19.700523376464844
1702132515821625000,4.550625,5.224018096923828,-16.016830444335938,19.775775909423828
1702132515838614800,4.56761474609375,6.14171838760376,-16.56926727294922,21.36020851135254
1702132515855601200,4.58460107421875,5.913360118865967,-15.367996215820312,24.61016845703125
1702132515872598000,4.601597900390625,2.332858085632324,-14.089893341064453,29.579782485961914
1702132515889589500,4.618589599609375,-1.675997257232666,-15.053239822387695,34.35728454589844
1702132515906585900,4.6355859375,0.07167816162109375,-18.981321334838867,35.479698181152344
1702132515923570700,4.65257080078125,9.673952102661133,-23.789974212646484,35.426246643066406
1702132515940560400,4.669560302734375,18.186338424682617,-26.105850219726562,35.978111267089844
1702132515957551600,4.686551513671875,20.087953567504883,-25.10917854309082,37.47971725463867
1702132515974539300,4.703539306640625,20.03883934020996,-22.480073928833008,38.97226333618164
1702132515991535600,4.72053564453125,20.58230972290039,-23.24053382873535,38.32634735107422
1702132516008512500,4.737512451171875,23.954179763793945,-25.485525131225586,34.46913146972656
1702132516025511400,4.754511474609375,27.033727645874023,-27.13035774230957,29.622455596923828
1702132516042506800,4.7715068359375,26.520872116088867,-27.46686553955078,23.982248306274414
1702132516059495700,4.78849560546875,23.469106674194336,-28.0224666595459,18.61005210876465
1702132516076485600,4.805485595703125,22.392963409423828,-28.19603157043457,15.381587982177734
1702132516093466000,4.822466064453125,21.119583129882812,-28.081850051879883,14.358358383178711
1702132516110466800,4.839466796875,17.630584716796875,-26.987356185913086,13.126030921936035
1702132516127458000,4.8564580078125,13.347444534301758,-26.26453399658203,11.328747749328613
1702132516144448000,4.873447998046875,10.83336067199707,-24.163673400878906,8.63010311126709
1702132516161439000,4.89043896484375,9.618776321411133,-22.023778915405273,7.3249688148498535
1702132516178428000,4.907427978515625,7.788430213928223,-19.896657943725586,6.448639869689941
1702132516195421700,4.924421630859375,6.065567493438721,-18.207073211669922,5.6588850021362305
1702132516212410400,4.941410400390625,4.513345241546631,-17.96498680114746,7.0512166023254395
1702132516229401600,4.958401611328125,2.8877391815185547,-17.3298282623291,7.776869297027588
1702132516246381000,4.975381103515625,0.928825855255127,-15.628530502319336,7.81572961807251
1702132516263383000,4.992383056640625,0.18405580520629883,-15.413934707641602,7.3944830894470215
1702132516280373000,5.009373046875,1.309746265411377,-15.330764770507812,6.4821977615356445
1702132516297364000,5.026364013671875,3.9193572998046875,-15.046283721923828,7.322107315063477
1702132516314354200,5.043354248046875,6.265458106994629,-15.092095375061035,9.66987419128418
1702132516331345200,5.06034521484375,7.297101974487305,-15.061820983886719,11.597661972045898
1702132516348335600,5.077335693359375,7.287466049194336,-16.33637237548828,13.495796203613281
1702132516365326600,5.09432666015625,8.403982162475586,-17.23516845703125,15.239364624023438
1702132516382316500,5.111316650390625,8.98387622833252,-17.795621871948242,16.455718994140625
1702132516399297300,5.12829736328125,8.322287559509277,-18.654220581054688,16.838762283325195
1702132516416298000,5.145298095703125,7.056356430053711,-19.52861785888672,16.748788833618164
1702132516433285400,5.162285400390625,6.1211442947387695,-20.8199462890625,16.726964950561523
1702132516450268400,5.179268310546875,5.9056854248046875,-22.577939987182617,18.3355770111084
1702132516467272000,5.19627197265625,5.549546718597412,-24.657033920288086,20.360841751098633
1702132516484249900,5.213249755859375,4.673999786376953,-26.28512191772461,20.718482971191406
1702132516501233200,5.230233154296875,5.064743995666504,-26.08548355102539,19.00971221923828
1702132516518241500,5.247241455078125,4.9290266036987305,-27.606687545776367,21.590511322021484
1702132516535232800,5.264232666015625,3.9368467330932617,-28.62215805053711,24.995107650756836
1702132516552222700,5.28122265625,3.4110095500946045,-28.63700294494629,26.14518165588379
1702132516569214000,5.2982138671875,4.195586204528809,-27.985767364501953,24.990556716918945
1702132516586204000,5.315203857421875,7.237768650054932,-26.332963943481445,22.683883666992188
1702132516603195400,5.3321953125,11.532236099243164,-25.550527572631836,23.653188705444336
1702132516620185300,5.349185302734375,14.021751403808594,-22.277774810791016,27.863367080688477
1702132516637161200,5.3661611328125,11.00602912902832,-18.487028121948242,34.07090759277344
1702132516654166500,5.38316650390625,6.625926494598389,-13.708192825317383,34.430809020996094
1702132516671157500,5.400157470703125,4.612876892089844,-9.208175659179688,28.57267951965332
1702132516688148000,5.41714794921875,6.768073081970215,-7.813326835632324,27.87040901184082
1702132516705138700,5.434138671875,8.835058212280273,-7.218716144561768,28.00286865234375
1702132516722129000,5.45112890625,9.926267623901367,-4.051628112792969,24.418750762939453
1702132516739120000,5.4681201171875,10.651541709899902,-1.0487171411514282,22.204586029052734
1702132516756110300,5.4851103515625,11.027313232421875,1.2997313737869263,23.01224136352539
1702132516773101300,5.502101318359375,8.916643142700195,3.6403744220733643,22.99136734008789
1702132516790091500,5.519091552734375,4.190079212188721,5.569441795349121,20.882633209228516
1702132516807082500,5.53608251953125,3.486307144165039,6.655841827392578,15.131647109985352
1702132516824073000,5.553072998046875,8.593217849731445,7.507961273193359,12.042607307434082
1702132516841064000,5.57006396484375,11.741549491882324,7.467803955078125,13.223465919494629
1702132516858053600,5.5870537109375,10.51099681854248,7.0652875900268555,13.11547565460205
1702132516875045000,5.604045166015625,5.490828514099121,6.450882911682129,11.538345336914062
1702132516892035300,5.621035400390625,2.4268391132354736,5.054581642150879,9.328325271606445
1702132516909026300,5.6380263671875,3.410468816757202,3.776609182357788,6.504395484924316
1702132516926016000,5.65501611328125,5.474831581115723,2.245168447494507,4.019985198974609
1702132516943007700,5.6720078125,6.585522651672363,0.9279965162277222,1.8660125732421875
1702132516959997700,5.688997802734375,6.131377220153809,-0.21811175346374512,0.31899166107177734
1702132516976988700,5.70598876953125,3.8346669673919678,-1.094057321548462,-0.00431060791015625
1702132516993979100,5.722979248046875,1.3680789470672607,-1.6962096691131592,0.30121707916259766
1702132517010967600,5.739967529296875,0.16275429725646973,-2.025322914123535,0.34012508392333984
1702132517027962400,5.75696240234375,0.8936583995819092,-2.4803924560546875,0.2208709716796875
1702132517044948500,5.773948486328125,3.1773719787597656,-2.9702253341674805,-0.26035213470458984
1702132517061943800,5.79094384765625,3.4857993125915527,-3.2887260913848877,-0.49149227142333984
1702132517078932200,5.80793212890625,1.3039307594299316,-3.647721290588379,-0.6537322998046875
1702132517095922700,5.824922607421875,0.15807890892028809,-3.7134714126586914,-0.3597383499145508
1702132517112913700,5.84191357421875,0.6093099117279053,-3.8039608001708984,0.34883785247802734
1702132517129903900,5.85890380859375,2.0349535942077637,-3.801410675048828,0.4624814987182617
1702132517146895000,5.87589501953125,2.817885398864746,-4.095633029937744,0.23359107971191406
1702132517163885000,5.892885009765625,2.9635982513427734,-4.196216583251953,-0.373443603515625
1702132517180876300,5.909876220703125,2.781472682952881,-4.360384941101074,-0.9887294769287109
1702132517197866000,5.926865966796875,2.9865291118621826,-4.231559753417969,-1.6616172790527344
1702132517214857500,5.943857421875,3.3895742893218994,-4.208468437194824,-1.565262794494629
1702132517231836700,5.960836669921875,3.928635358810425,-4.053042888641357,-1.3458671569824219
1702132517248852200,5.977852294921875,3.6489574909210205,-3.7851200103759766,-1.3059911727905273
1702132517265828400,5.994828369140625,3.071974992752075,-3.4825401306152344,-1.109745979309082
1702132517282819600,6.011819580078125,2.5020594596862793,-3.2230308055877686,-0.5385541915893555
1702132517299805700,6.0288056640625,2.4656004905700684,-3.19269061088562,0.33649539947509766
1702132517316805000,6.04580517578125,2.96555495262146,-2.827285051345825,0.7206325531005859
1702132517333791000,6.062791015625,3.1076929569244385,-2.380910873413086,0.8877973556518555
1702132517350772000,6.07977197265625,1.3239555358886719,-1.7647435665130615,1.6056833267211914
1702132517367772200,6.096772216796875,-1.4952633380889893,-1.5437564849853516,3.1525869369506836
1702132517384763400,6.113763427734375,-1.6195327043533325,-1.136176586151123,4.891584396362305
1702132517401753600,6.130753662109375,0.41404345631599426,-0.7893986701965332,4.567445755004883
1702132517418744800,6.147744873046875,1.1946921348571777,-0.7609467506408691,2.7357282638549805
1702132517435734500,6.164734619140625,-0.6269732117652893,-0.7308869361877441,1.3242645263671875
1702132517452726000,6.18172607421875,-2.7939822673797607,-0.29752492904663086,1.1346683502197266
1702132517469705200,6.198705322265625,-3.0502395629882812,0.08590173721313477,2.0093841552734375
1702132517486696400,6.215696533203125,-2.943228244781494,0.37282514572143555,2.2975358963012695
1702132517503697200,6.232697265625,-2.993455410003662,1.003736972808838,2.197507858276367
1702132517520688000,6.249688232421875,-4.600636005401611,1.6477832794189453,0.7508816719055176
1702132517537678000,6.266677978515625,-5.53173828125,1.8601469993591309,-0.23167848587036133
1702132517554660900,6.283660888671875,-4.094677925109863,2.0964722633361816,-0.5791225433349609
1702132517571659300,6.3006591796875,-1.9242757558822632,2.2213449478149414,-0.5143423080444336
1702132517588650800,6.317650634765625,-0.5293469429016113,2.4833168983459473,-0.19533491134643555
1702132517605641000,6.334640869140625,-0.9537404775619507,2.2932772636413574,-0.1455855369567871
1702132517622631700,6.351631591796875,-2.9755845069885254,1.761667251586914,-0.9709901809692383
1702132517639622100,6.3686220703125,-4.708673000335693,0.989403247833252,-2.0489773750305176
1702132517656612900,6.38561279296875,-4.237853050231934,-0.009137630462646484,-3.040205955505371
1702132517673603300,6.402603271484375,-2.537431478500366,-0.9037923812866211,-3.878326177597046
1702132517690594000,6.419593994140625,-1.2489089965820312,-2.1292495727539062,-4.487364292144775
1702132517707572000,6.436572021484375,-1.3289008140563965,-3.0814924240112305,-5.864748001098633
1702132517724568600,6.453568603515625,-1.7818963527679443,-3.9434335231781006,-6.34891939163208
1702132517741563100,6.470563232421875,-2.2507123947143555,-4.633770942687988,-6.526377201080322
1702132517758559200,6.487559326171875,-2.648224115371704,-5.737412929534912,-5.368839263916016
1702132517775536000,6.5045361328125,-1.7459652423858643,-5.521445274353027,-4.521482467651367
1702132517792535300,6.521535400390625,-0.8047816753387451,-5.502664089202881,-5.533199310302734
1702132517809528300,6.5385283203125,0.629264235496521,-6.023285865783691,-6.718730449676514
1702132517826521600,6.555521484375,1.48116135597229,-6.345236301422119,-7.830354690551758
1702132517843509000,6.572509033203125,0.6345632076263428,-7.133129119873047,-8.308544158935547
1702132517860497700,6.58949755859375,-0.014487981796264648,-8.057334899902344,-7.623988628387451
1702132517877493200,6.6064931640625,0.20659983158111572,-8.969810485839844,-6.038321495056152
1702132517894479000,6.62347900390625,0.3176194429397583,-9.479634284973145,-4.531887054443359
1702132517911476000,6.64047607421875,-0.869510293006897,-10.877049446105957,-5.123443603515625
1702132517928461300,6.65746142578125,-1.6849489212036133,-12.314008712768555,-6.307075500488281
1702132517945452800,6.674452880859375,-0.9034219980239868,-13.861467361450195,-4.71933126449585
1702132517962443800,6.69144384765625,0.6715383529663086,-15.27557373046875,0.42917680740356445
1702132517979438000,6.70843798828125,1.038071632385254,-15.347881317138672,5.325061798095703
1702132517996425200,6.72542529296875,-1.4880506992340088,-15.082700729370117,7.421960830688477
1702132518013415200,6.742415283203125,-4.764412879943848,-14.779516220092773,8.310352325439453
1702132518030404900,6.75940478515625,-4.668961524963379,-15.496883392333984,12.7095365524292
1702132518047398100,6.776398193359375,-2.4968745708465576,-14.730743408203125,17.916919708251953
1702132518064370700,6.79337060546875,-4.211329460144043,-12.995548248291016,19.576446533203125
1702132518081377500,6.81037744140625,-7.8107709884643555,-11.433076858520508,19.88010597229004
1702132518098368800,6.82736865234375,-8.428064346313477,-11.107544898986816,22.146709442138672
1702132518115348500,6.844348388671875,-5.055920600891113,-10.737854957580566,26.33794593811035
1702132518132350000,6.861349853515625,-3.290238380432129,-8.328134536743164,28.825366973876953
1702132518149332700,6.878332763671875,-4.104660511016846,-6.067710876464844,29.830284118652344
1702132518166331400,6.895331298828125,-2.357529878616333,-3.593611001968384,31.058116912841797
1702132518183321000,6.912321044921875,0.11252641677856445,-2.363363027572632,32.684078216552734
1702132518200312300,6.929312255859375,1.7982399463653564,-2.3943867683410645,33.1049919128418
1702132518217302300,6.94630224609375,4.902070999145508,-2.62270450592041,32.349853515625
1702132518234290700,6.963290771484375,9.641989707946777,-2.3282604217529297,30.55511474609375
1702132518251275500,6.980275634765625,14.02723503112793,-2.417062282562256,27.690637588500977
1702132518268275000,6.99727490234375,16.984081268310547,-2.9276156425476074,26.2587947845459
1702132518285265000,7.014264892578125,16.95549964904785,-3.073317527770996,25.028179168701172
1702132518302256000,7.031256103515625,14.355621337890625,-4.111555099487305,23.840251922607422
1702132518319246000,7.04824609375,13.060697555541992,-5.667548179626465,22.27704429626465
1702132518336234800,7.06523486328125,15.444107055664062,-7.8971452713012695,22.9039306640625
1702132518353229600,7.0822294921875,17.882099151611328,-8.652305603027344,24.625032424926758
1702132518370218200,7.09921826171875,15.04356575012207,-8.029084205627441,23.826045989990234
1702132518387201500,7.116201416015625,12.495677947998047,-5.887526035308838,18.745441436767578
1702132518404202000,7.133201904296875,16.229534149169922,-4.696317672729492,13.42945671081543
1702132518421189600,7.150189697265625,20.626399993896484,-3.9114134311676025,9.52761173248291
1702132518438172400,7.16717236328125,21.219467163085938,-2.9559435844421387,10.081395149230957
1702132518455171000,7.184171142578125,17.652481079101562,-2.6599459648132324,10.599559783935547
1702132518472161800,7.201161865234375,16.639650344848633,-2.8335068225860596,10.85342025756836
1702132518489152300,7.21815234375,17.39791488647461,-4.7310566902160645,12.047447204589844
1702132518506143000,7.23514306640625,18.05864906311035,-5.590161323547363,11.637248992919922
1702132518523133200,7.25213330078125,16.521846771240234,-6.010627269744873,12.624303817749023
1702132518540124400,7.26912451171875,12.777953147888184,-6.829253196716309,15.146814346313477
1702132518557108200,7.286108154296875,8.453812599182129,-8.03161334991455,17.087566375732422
1702132518574102500,7.3031025390625,5.675297260284424,-9.52596664428711,17.738861083984375
1702132518591096000,7.320095947265625,6.362349987030029,-10.356348991394043,16.017778396606445
1702132518608089000,7.337089111328125,8.428450584411621,-10.444178581237793,13.101842880249023
1702132518625066500,7.35406640625,9.639253616333008,-9.512898445129395,11.519072532653809
1702132518642068000,7.37106787109375,9.419739723205566,-7.479168891906738,10.138652801513672
1702132518659055400,7.388055419921875,7.857041358947754,-5.218418121337891,10.066621780395508
1702132518676051500,7.405051513671875,4.346198558807373,-4.621194839477539,10.941141128540039
1702132518693039000,7.4220390625,1.5170340538024902,-5.943513870239258,10.32700252532959
1702132518710030600,7.439030517578125,2.575324058532715,-7.739645004272461,7.241755962371826
1702132518727020500,7.4560205078125,6.988401412963867,-9.85129451751709,5.630998611450195
1702132518744011500,7.473011474609375,10.120359420776367,-10.500531196594238,6.819550514221191
1702132518761001500,7.49000146484375,8.707181930541992,-10.569439888000488,7.958344459533691
1702132518777993000,7.506992919921875,5.769857883453369,-10.80615234375,7.118651390075684
1702132518794978000,7.52397802734375,5.457284927368164,-12.110048294067383,7.981590270996094
1702132518811976200,7.54097607421875,8.304469108581543,-12.828754425048828,8.413094520568848
1702132518828961500,7.55796142578125,8.291252136230469,-13.285787582397461,9.035324096679688
1702132518845947100,7.574947021484375,6.530580520629883,-13.47142219543457,9.410036087036133
1702132518862945000,7.591945068359375,1.9144585132598877,-14.00158405303955,8.967891693115234
1702132518879936300,7.608936279296875,0.3306773900985718,-14.684804916381836,8.567776679992676
1702132518896924000,7.625923828125,2.077141284942627,-15.160064697265625,10.459283828735352
1702132518913920300,7.642920166015625,3.216254234313965,-15.176116943359375,13.648858070373535
1702132518930907400,7.659907470703125,3.3576273918151855,-16.590280532836914,16.77227020263672
1702132518947898600,7.676898681640625,4.29142951965332,-18.91562271118164,19.6943359375
1702132518964888800,7.693888916015625,5.037746429443359,-20.108810424804688,21.540855407714844
1702132518981868500,7.71086865234375,5.3826375007629395,-20.113035202026367,25.62000274658203
1702132518998871300,7.727871337890625,3.5134973526000977,-20.900625228881836,31.898740768432617
1702132519015861000,7.744861083984375,2.0858163833618164,-24.950927734375,35.89342498779297
1702132519032851000,7.761850830078125,7.5627241134643555,-31.26602554321289,37.805381774902344
1702132519049831400,7.77883154296875,19.508819580078125,-32.55990982055664,37.013885498046875
1702132519066832400,7.795832275390625,28.45652198791504,-27.280548095703125,34.27156448364258
1702132519083820300,7.8128203125,28.785686492919922,-21.772438049316406,33.779903411865234
1702132519100816600,7.829816650390625,24.296709060668945,-20.64987564086914,34.12506866455078
1702132519117793800,7.846793701171875,21.97722816467285,-23.549226760864258,34.20100021362305
1702132519134794500,7.86379443359375,23.252382278442383,-28.07708168029785,32.37771987915039
1702132519151785700,7.88078564453125,26.089994430541992,-33.250431060791016,27.835041046142578
1702132519168775700,7.897775634765625,25.660429000854492,-36.11199188232422,21.21586036682129
1702132519185767000,7.914766845703125,20.527406692504883,-36.15657043457031,14.979276657104492
1702132519202756900,7.9317568359375,14.88597297668457,-34.85738754272461,10.387929916381836
1702132519219738000,7.948738037109375,9.644624710083008,-32.68796157836914,7.211657524108887
1702132519236746200,7.965746337890625,7.222145080566406,-28.204357147216797,3.934208869934082
1702132519253729300,7.982729248046875,4.80986213684082,-23.941425323486328,1.9626617431640625
1702132519270719200,7.99971923828125,4.050968170166016,-21.259763717651367,2.7154476642608643
1702132519287700000,8.016699951171875,3.444185256958008,-19.304323196411133,3.750730276107788
1702132519304700200,8.0337001953125,1.4350190162658691,-17.313838958740234,4.482329368591309
1702132519321689900,8.05068994140625,-1.2296710014343262,-16.1792049407959,5.049421310424805
1702132519338681600,8.067681640625,-2.5122907161712646,-15.930625915527344,3.3138465881347656
1702132519355672600,8.084672607421876,-1.109084129333496,-14.544713973999023,0.7586765289306641
1702132519372663000,8.1016630859375,1.2639646530151367,-14.806983947753906,2.8546457290649414
1702132519389643300,8.118643310546876,3.2061715126037598,-14.509062767028809,5.20439338684082
1702132519406644000,8.13564404296875,4.473234176635742,-14.714033126831055,7.351766586303711
1702132519423635000,8.152635009765625,6.735285758972168,-15.435880661010742,8.995468139648438
1702132519440625200,8.169625244140626,9.233282089233398,-16.389678955078125,11.157891273498535
1702132519457616400,8.186616455078125,10.501774787902832,-17.580097198486328,13.724525451660156
1702132519474606000,8.203606201171874,10.00648307800293,-18.631139755249023,16.329090118408203
1702132519491597300,8.220597412109376,8.585983276367188,-19.757776260375977,18.386796951293945
1702132519508587500,8.23758740234375,6.092552185058594,-21.169248580932617,19.476749420166016
1702132519525576000,8.254575927734376,3.8088667392730713,-23.131649017333984,20.793994903564453
1702132519542571300,8.2715712890625,3.455446243286133,-24.365774154663086,23.031200408935547
1702132519559559700,8.2885595703125,3.52850079536438,-25.1021728515625,24.367643356323242
1702132519576550000,8.3055498046875,2.8144350051879883,-25.54233169555664,24.632678985595703
1702132519593541000,8.322541015625,0.5190092325210571,-27.939476013183594,24.100374221801758
1702132519610528300,8.3395283203125,0.08853861689567566,-30.164548873901367,22.921632766723633
1702132519627524900,8.35652490234375,0.7967779636383057,-34.25389862060547,25.80771827697754
1702132519644513500,8.373513427734375,4.354748725891113,-35.67167663574219,27.418628692626953
1702132519661501400,8.39050146484375,7.808627128601074,-34.955322265625,28.23360252380371
1702132519678493200,8.4074931640625,9.858110427856445,-32.47950744628906,28.37603759765625
1702132519695484400,8.424484375,10.923347473144531,-29.067283630371094,30.170040130615234
1702132519712474400,8.441474365234376,10.716043472290039,-26.803102493286133,34.856163024902344
1702132519729463000,8.458463134765625,10.314199447631836,-22.788436889648438,34.377655029296875
1702132519746456300,8.475456298828124,9.446605682373047,-17.243892669677734,31.805419921875
1702132519763449000,8.492448974609376,8.898353576660156,-13.653738975524902,30.593652725219727
1702132519780428000,8.509427978515625,10.196322441101074,-12.01850414276123,29.232982635498047
1702132519797427700,8.526427734375,11.597271919250488,-9.710676193237305,27.895652770996094
1702132519814418000,8.54341796875,8.459386825561523,-7.132218837738037,27.789670944213867
1702132519831409200,8.5604091796875,5.2151780128479,-4.453990936279297,25.100399017333984
1702132519848398300,8.5773984375,7.990776538848877,-2.1871941089630127,22.645740509033203
1702132519865390600,8.594390625,12.709890365600586,0.768643856048584,22.730358123779297
1702132519882380000,8.611380126953126,12.496618270874023,2.515151023864746,22.88418197631836
1702132519899361300,8.628361328125,7.897465229034424,3.496081829071045,20.00251007080078
1702132519916364000,8.645364013671875,6.017700672149658,5.075977325439453,15.361748695373535
1702132519933352400,8.6623525390625,7.710867881774902,6.254672050476074,14.10899543762207
1702132519950342400,8.67934228515625,8.854108810424805,6.21876859664917,14.992225646972656
1702132519967334100,8.696334228515624,8.063949584960938,6.005468368530273,13.705328941345215
1702132519984327000,8.713326904296874,5.563808441162109,5.189395427703857,11.080835342407227
1702132520001304300,8.73030419921875,3.5087661743164062,3.837069034576416,8.512436866760254
1702132520018304800,8.7473046875,2.5065393447875977,2.3302276134490967,6.103714942932129
1702132520035295700,8.764295654296875,2.3422083854675293,1.3173251152038574,4.375910758972168
1702132520052286000,8.781285888671874,2.2495670318603516,0.4290962219238281,3.803450584411621
1702132520069266400,8.798266357421875,2.2916743755340576,-0.25269556045532227,3.461484909057617
1702132520086267100,8.81526708984375,2.726498603820801,-0.6759128570556641,3.0992298126220703
1702132520103258400,8.83225830078125,1.9447803497314453,-1.1104836463928223,2.670762062072754
1702132520120248000,8.849248046875,-0.08594512939453125,-2.1782009601593018,1.9964876174926758
1702132520137239300,8.8662392578125,-0.5014188289642334,-2.783878803253174,1.4849519729614258
1702132520154229800,8.883229736328126,0.764981746673584,-3.3675789833068848,1.1114253997802734
1702132520171220500,8.900220458984375,2.5035500526428223,-3.8675122261047363,0.7328948974609375
1702132520188210700,8.917210693359374,2.9058449268341064,-4.3779616355896,0.11120986938476562
1702132520205202000,8.934201904296875,2.3568718433380127,-4.692334175109863,-0.8757724761962891
1702132520222191900,8.95119189453125,1.5855991840362549,-4.844224452972412,-1.8085989952087402
1702132520239183000,8.96818310546875,1.2250266075134277,-4.876815319061279,-2.321533203125
1702132520256172800,8.9851728515625,1.4457850456237793,-4.933177947998047,-2.3770322799682617
1702132520273161500,9.002161376953126,1.745140552520752,-5.159214973449707,-2.755181312561035
1702132520290154200,9.019154296875,2.1268093585968018,-5.163423538208008,-3.7828431129455566
1702132520307145200,9.036145263671875,2.3310554027557373,-5.082647800445557,-4.506597995758057
1702132520324135400,9.053135498046874,2.756251573562622,-4.884665012359619,-4.539050102233887
1702132520341126700,9.070126708984375,2.955819845199585,-4.69699239730835,-4.255290985107422
1702132520358117600,9.08711767578125,2.4962501525878906,-4.501225471496582,-3.79750394821167
1702132520375107600,9.104107666015626,1.9958248138427734,-4.300745964050293,-3.400763511657715
1702132520392097800,9.121097900390625,1.7964316606521606,-4.0724334716796875,-3.512620449066162
1702132520409088800,9.1380888671875,1.8213951587677002,-4.03049898147583,-3.587313175201416
1702132520426078700,9.15507861328125,2.3413543701171875,-3.6966054439544678,-3.233381748199463
1702132520443070000,9.172070068359375,2.9204797744750977,-3.218188762664795,-2.4802260398864746
1702132520460060000,9.189059814453126,3.0334272384643555,-2.776625871658325,-1.5959787368774414
1702132520477051100,9.206051025390625,1.9258521795272827,-2.529236316680908,-1.304821491241455
1702132520494041300,9.223041259765624,0.6981521844863892,-2.287696361541748,-1.0969595909118652
1702132520511033900,9.240033935546874,-0.4315432608127594,-1.7926502227783203,-1.0287413597106934
1702132520528020200,9.257020263671874,-1.410304307937622,-1.3404276371002197,-0.5563192367553711
1702132520545012200,9.27401220703125,-1.0340244770050049,-0.20187735557556152,0.6923065185546875
1702132520562004200,9.291004150390625,0.2427573800086975,1.300783395767212,2.509087562561035
1702132520578992600,9.30799267578125,-0.041488051414489746,2.838273525238037,2.501378059387207
1702132520595989200,9.3249892578125,-1.6524803638458252,4.258177280426025,1.4625358581542969
1702132520612973600,9.3419736328125,-2.5271618366241455,5.528007507324219,1.8049392700195312
1702132520629965800,9.3589658203125,-2.3125178813934326,6.675632476806641,3.4525671005249023
1702132520646956800,9.375956787109375,-2.27274227142334,7.962466239929199,5.236563682556152
1702132520663947000,9.392947021484375,-3.35559344291687,9.18446159362793,6.807188987731934
1702132520680938200,9.409938232421876,-5.338783264160156,10.269465446472168,7.651169776916504
1702132520697928000,9.426927978515625,-6.65210485458374,10.339298248291016,7.616010665893555
1702132520714919200,9.443919189453124,-6.1889801025390625,9.958332061767578,7.199256896972656
1702132520731915800,9.460915771484375,-4.840121746063232,8.898987770080566,7.352431297302246
1702132520748900000,9.477900146484375,-3.7384495735168457,7.651790618896484,5.761166572570801
1702132520765885700,9.4948857421875,-2.828934669494629,5.5696940422058105,4.236927032470703
1702132520782877700,9.511877685546875,-0.8941199779510498,3.2045536041259766,2.2422118186950684
1702132520799859200,9.528859130859376,0.23324227333068848,0.5352573394775391,-0.29357147216796875
1702132520816862500,9.545862548828126,0.7732157707214355,-2.1140027046203613,-2.1082472801208496
1702132520833852700,9.562852783203125,0.9766321182250977,-4.440789222717285,-3.810920476913452
1702132520850844000,9.579843994140624,1.156238079071045,-6.035639762878418,-5.539206504821777
1702132520867823000,9.596822998046875,1.7842868566513062,-7.080529689788818,-6.757967948913574
1702132520884824800,9.613824951171875,2.8434064388275146,-7.649508476257324,-7.602557182312012
1702132520901803000,9.630802978515625,3.39851713180542,-8.007823944091797,-8.66118335723877
1702132520918807300,9.647807373046875,3.303318500518799,-8.387969970703125,-8.667574882507324
1702132520935796000,9.6647958984375,3.124667167663574,-8.717902183532715,-7.470695972442627
1702132520952787200,9.681787109375,2.954631805419922,-8.929824829101562,-5.871519088745117
1702132520969777400,9.69877734375,2.3591723442077637,-8.62059211730957,-4.890896797180176
1702132520986766600,9.7157666015625,1.5406086444854736,-9.246899604797363,-6.679914951324463
1702132521003760400,9.732760498046876,1.0177624225616455,-9.123546600341797,-7.429617881774902
1702132521020749600,9.74974951171875,1.063063621520996,-9.912942886352539,-7.307578086853027
1702132521037739500,9.766739501953126,2.6168437004089355,-10.795087814331055,-5.229260444641113
1702132521054730500,9.78373046875,3.3216075897216797,-11.328559875488281,-4.405255317687988
1702132521071720700,9.800720703125,2.4928736686706543,-11.788243293762207,-4.093833923339844
1702132521088712000,9.8177119140625,0.6817952394485474,-12.476762771606445,-3.4742822647094727
1702132521105702000,9.834701904296875,-1.3098982572555542,-13.923460006713867,-1.6110508441925049
1702132521122692900,9.85169287109375,-0.9338526725769043,-15.811605453491211,2.7798237800598145
1702132521139683000,9.86868310546875,-0.18692362308502197,-16.629316329956055,5.966882228851318
1702132521156674000,9.885674072265624,-0.7687681913375854,-16.329814910888672,6.32930326461792
1702132521173664300,9.902664306640625,-2.6209769248962402,-15.405052185058594,6.6936187744140625
1702132521190655200,9.9196552734375,-3.6029324531555176,-15.107304573059082,10.509772300720215
1702132521207645400,9.9366455078125,-3.645878314971924,-13.85856819152832,17.030683517456055
1702132521224636400,9.953636474609375,-6.33860445022583,-11.603364944458008,20.77410316467285
1702132521241628200,9.970628173828125,-9.905916213989258,-9.747466087341309,21.58629608154297
1702132521258617300,9.987617431640626,-12.465946197509766,-9.662117004394531,23.863452911376953
1702132521275607600,10.004607666015625,-10.304741859436035,-10.623430252075195,28.134531021118164
1702132521292598500,10.0215986328125,-4.873592853546143,-10.229122161865234,31.456661224365234
1702132521309588700,10.038588623046875,0.6913350820541382,-7.210998058319092,32.79255676269531
1702132521326579700,10.055579833984375,3.1502251625061035,-3.233285665512085,31.539459228515625
1702132521343570000,10.07256982421875,3.81345272064209,-0.7569606304168701,30.20269012451172
1702132521360561000,10.089560791015625,5.179346561431885,1.7624561786651611,29.295608520507812
1702132521377551000,10.106551025390624,7.724855422973633,4.215019226074219,30.001220703125
1702132521394539300,10.123539306640625,11.215325355529785,5.630708694458008,32.92232894897461
1702132521411536600,10.14053662109375,11.863133430480957,4.314984321594238,37.67382049560547
1702132521428518400,10.157518310546875,10.523330688476562,1.612776517868042,40.10326385498047
1702132521445513000,10.174512939453125,9.952461242675781,-1.2637724876403809,37.269256591796875
1702132521462507000,10.191507080078125,16.962379455566406,-4.5107574462890625,34.575130462646484
1702132521479494400,10.208494384765626,28.324371337890625,-6.97368860244751,29.666696548461914
1702132521496475000,10.225474853515625,32.571510314941406,-7.1417317390441895,23.26691436767578
1702132521513475300,10.242475341796874,28.749767303466797,-7.852257251739502,19.554821014404297
1702132521530466600,10.259466552734375,24.10831069946289,-7.887904167175293,17.54795265197754
1702132521547456500,10.27645654296875,22.347793579101562,-8.774479866027832,16.305217742919922
1702132521564447700,10.29344775390625,25.46147918701172,-9.554134368896484,14.43260383605957
1702132521581437700,10.310437744140625,28.037490844726562,-10.448488235473633,12.816481590270996
1702132521598428700,10.3274287109375,25.738449096679688,-9.990337371826172,10.9804048538208
1702132521615418600,10.344418701171875,20.177753448486328,-9.111045837402344,10.236103057861328
1702132521632396300,10.361396240234376,15.34939956665039,-8.053330421447754,11.436609268188477
1702132521649399600,10.378399658203126,13.104362487792969,-6.40058708190918,14.029529571533203
1702132521666402600,10.395402587890626,11.336454391479492,-5.015747547149658,17.934465408325195
1702132521683370500,10.41237060546875,7.6677751541137695,-4.317919731140137,20.241426467895508
1702132521700361700,10.42936181640625,4.820804595947266,-4.64483118057251,20.260540008544922
1702132521717362000,10.44636181640625,4.5449137687683105,-5.681168079376221,18.325332641601562
1702132521734353200,10.463353271484374,5.25124979019165,-6.608154296875,16.029788970947266
1702132521751332600,10.48033251953125,6.351574420928955,-7.208355903625488,14.656526565551758
1702132521768334300,10.497334228515625,6.80204963684082,-7.853500843048096,15.663616180419922
1702132521785324300,10.51432421875,4.784631729125977,-8.731144905090332,16.803054809570312
1702132521802315500,10.5313154296875,1.9955658912658691,-9.729236602783203,14.969943046569824
1702132521819305500,10.548305419921874,-0.5421142578125,-11.487934112548828,9.722539901733398
1702132521836296700,10.565296630859375,2.0011987686157227,-15.003411293029785,4.265392780303955
1702132521853286700,10.58228662109375,8.834646224975586,-14.751727104187012,1.4254399538040161
1702132521870277600,10.599277587890626,12.32579231262207,-13.64168930053711,7.026121139526367
1702132521887267600,10.616267578125,7.3503804206848145,-13.801141738891602,13.82776927947998
1702132521904258800,10.6332587890625,0.09189891815185547,-15.478667259216309,10.557086944580078
1702132521921248800,10.650248779296875,0.18011140823364258,-17.313796997070312,2.558685064315796
1702132521938240000,10.667239990234375,8.13033676147461,-17.030139923095703,0.46880602836608887
1702132521955230000,10.68422998046875,11.355131149291992,-15.453376770019531,8.58189582824707
1702132521972221200,10.70122119140625,4.5784125328063965,-13.893023490905762,16.868709564208984
1702132521989211100,10.718211181640624,-6.581448554992676,-12.387893676757812,17.09238052368164
1702132522006202000,10.7352021484375,-8.989276885986328,-13.340951919555664,14.972949981689453
1702132522023192000,10.752192138671875,-1.8460350036621094,-16.02535629272461,16.36652183532715
1702132522040183600,10.76918359375,4.306490898132324,-17.86068344116211,19.689115524291992
1702132522057173200,10.78617333984375,6.324546813964844,-17.167299270629883,21.80304527282715
1702132522074164500,10.80316455078125,4.933678150177002,-16.315963745117188,25.079723358154297
1702132522091154400,10.820154541015626,3.872282028198242,-16.088916778564453,28.756874084472656
1702132522108145400,10.8371455078125,4.573947906494141,-16.17848777770996,32.171600341796875
1702132522125135600,10.854135498046874,5.82510232925415,-14.750181198120117,34.21434020996094
1702132522142126600,10.871126708984375,4.919663429260254,-15.693635940551758,37.39213562011719
1702132522159116800,10.88811669921875,4.429224967956543,-20.315080642700195,40.562110900878906
1702132522176107800,10.905107666015626,10.628091812133789,-23.316516876220703,41.98713684082031
1702132522193097700,10.92209765625,17.946582794189453,-23.710466384887695,42.96266555786133
1702132522210089000,10.9390888671875,20.652414321899414,-24.248003005981445,40.8076057434082
1702132522227079000,10.956078857421875,20.371837615966797,-25.82261085510254,36.09345245361328
1702132522244069600,10.973069580078125,19.131855010986328,-27.834270477294922,31.925357818603516
1702132522261060000,10.99006005859375,18.03516387939453,-29.60982894897461,28.60586166381836
1702132522278048500,11.007048583984375,17.849035263061523,-30.53257179260254,22.66434669494629
1702132522295041000,11.024041015625,18.280202865600586,-29.860258102416992,18.95734214782715
1702132522312033300,11.041033203125,17.874706268310547,-29.029260635375977,18.097347259521484
1702132522329023000,11.05802294921875,14.18523120880127,-27.376283645629883,16.18353271484375
1702132522346014200,11.07501416015625,10.492834091186523,-24.57450294494629,12.814589500427246
1702132522363000600,11.09200048828125,8.083488464355469,-22.19785499572754,11.35167407989502
1702132522379997200,11.1089970703125,7.010275840759277,-19.52285385131836,10.713976860046387
1702132522396984600,11.125984619140626,5.615446090698242,-16.728967666625977,10.37037181854248
1702132522413975600,11.1429755859375,3.3194432258605957,-15.432191848754883,10.130308151245117
1702132522430965500,11.159965576171874,0.6639761924743652,-13.692000389099121,9.819700241088867
1702132522447956700,11.176956787109376,-1.4815716743469238,-14.986268997192383,10.92271900177002
1702132522464946700,11.19394677734375,-2.666001081466675,-15.368826866149902,8.370535850524902
1702132522481937700,11.210937744140624,-2.592848062515259,-13.97927474975586,4.88070011138916
1702132522498927600,11.227927734375,-0.5876364707946777,-13.684487342834473,7.497734069824219
1702132522515907300,11.2449072265625,1.694288969039917,-13.450213432312012,11.226869583129883
1702132522532908500,11.261908447265625,3.082230567932129,-13.146315574645996,12.95523452758789
1702132522549890800,11.278890869140625,3.639021396636963,-13.851724624633789,13.796394348144531
1702132522566879500,11.29587939453125,5.123226165771484,-14.213509559631348,12.890058517456055
1702132522583881000,11.312880859375,7.357594013214111,-14.602018356323242,14.900882720947266
1702132522600866300,11.3298662109375,8.145587921142578,-15.121922492980957,18.883745193481445
1702132522617862100,11.346862060546876,8.79928207397461,-15.356935501098633,23.478017807006836
1702132522634852000,11.36385205078125,8.31542682647705,-15.214612007141113,25.419994354248047
1702132522651843000,11.380843017578124,6.1658806800842285,-15.598675727844238,24.663246154785156
1702132522668833300,11.397833251953125,3.972989082336426,-17.006046295166016,23.823223114013672
1702132522685824300,11.41482421875,2.4281458854675293,-19.209280014038086,24.127193450927734
1702132522702814500,11.431814453125,1.3184630870819092,-22.497535705566406,29.08718490600586
1702132522719805400,11.448805419921875,2.6978368759155273,-25.59894561767578,31.401334762573242
1702132522736795600,11.465795654296874,6.564495086669922,-24.5364990234375,29.45621681213379
1702132522753786600,11.48278662109375,7.834619045257568,-24.06523895263672,31.433090209960938
1702132522770776300,11.4997763671875,5.827470779418945,-24.407814025878906,31.198652267456055
1702132522787767800,11.516767822265624,6.032915115356445,-25.501861572265625,32.20721435546875
1702132522804757800,11.5337578125,7.535728931427002,-24.43169403076172,37.38090133666992
1702132522821748700,11.550748779296875,8.106679916381836,-21.208072662353516,37.568023681640625
1702132522838738700,11.56773876953125,7.801813125610352,-18.59379005432129,34.65438461303711
1702132522855730000,11.58472998046875,10.02247142791748,-15.572945594787598,30.92545509338379
1702132522872720000,11.601719970703124,11.249893188476562,-16.157520294189453,32.395416259765625
1702132522889710800,11.6187109375,9.274484634399414,-13.101852416992188,33.198387145996094
1702132522906700800,11.63570068359375,4.628482341766357,-9.278420448303223,31.739643096923828
1702132522923692000,11.652692138671876,6.521866321563721,-6.16673469543457,26.78692626953125
1702132522940682000,11.669681884765625,10.965991020202637,-5.1979265213012695,25.051498413085938
1702132522957673200,11.686673095703124,12.935565948486328,-2.8281631469726562,25.10516357421875
1702132522974663200,11.7036630859375,10.133222579956055,-2.2670350074768066,26.84282112121582
1702132522991654400,11.720654296875,7.589698791503906,1.4148205518722534,22.560077667236328
1702132523008644000,11.73764404296875,6.375762939453125,3.3603920936584473,18.27162742614746
1702132523025635300,11.75463525390625,7.804751396179199,4.156614780426025,15.823145866394043
1702132523042625300,11.771625244140624,9.782949447631836,4.113532066345215,15.166449546813965
1702132523059616300,11.7886162109375,10.166154861450195,4.911574363708496,14.253751754760742
1702132523076606500,11.8056064453125,7.597928047180176,5.4362592697143555,12.976757049560547
1702132523093597400,11.822597412109374,5.318912982940674,5.696423530578613,10.810221672058105
1702132523110587400,11.83958740234375,5.050142765045166,4.992860317230225,8.262568473815918
1702132523127578600,11.85657861328125,6.324911117553711,4.2511677742004395,6.291481971740723
1702132523144568300,11.873568359375,7.371402740478516,3.3025808334350586,4.927647590637207
1702132523161559600,11.8905595703125,6.423731327056885,2.221292018890381,3.901432991027832
1702132523178549500,11.907549560546874,4.88905143737793,1.2098982334136963,3.519083023071289
1702132523195541000,11.924541015625,3.6131808757781982,0.7101789712905884,3.523087501525879
1702132523212532200,11.9415322265625,2.8574001789093018,0.16889238357543945,3.3414087295532227
1702132523229522200,11.958522216796876,2.969548225402832,-0.4751424789428711,2.9305524826049805
1702132523246510300,11.97551025390625,2.8972597122192383,-1.1356887817382812,2.222304344177246
1702132523263502800,11.9925029296875,2.9850234985351562,-1.7873531579971313,1.4763975143432617
1702132523280493000,12.0094931640625,2.4575765132904053,-2.341254472732544,0.9831657409667969
1702132523297484000,12.026484130859375,1.2657873630523682,-2.9071450233459473,1.1369380950927734
1702132523314474000,12.043473876953126,0.9761257171630859,-3.376875877380371,0.7041349411010742
1702132523331465200,12.06046533203125,1.8418464660644531,-3.528668165206909,-0.2732515335083008
1702132523348455200,12.077455078125,3.002626419067383,-3.814761161804199,-0.9540748596191406
1702132523365446100,12.094446044921876,3.7106757164001465,-4.180863380432129,-1.3464784622192383
1702132523382425600,12.111425537109374,3.444261074066162,-4.6633100509643555,-1.6553387641906738
1702132523399427300,12.12842724609375,2.937943935394287,-4.927788734436035,-1.8902544975280762
1702132523416398800,12.14539892578125,2.6732020378112793,-5.036148548126221,-1.7885713577270508
1702132523433410800,12.162410888671875,2.8688812255859375,-4.967114448547363,-1.9006924629211426
1702132523450405600,12.179405517578125,3.359841823577881,-4.917754650115967,-1.8241524696350098
1702132523467389400,12.196389404296875,4.077033042907715,-5.0764265060424805,-1.3314075469970703
1702132523484379400,12.21337939453125,4.648515701293945,-5.260058403015137,-1.1610832214355469
1702132523501370400,12.230370361328125,5.341379165649414,-4.8396782875061035,-1.2730278968811035
1702132523518360300,12.2473603515625,5.386300563812256,-4.48109769821167,-0.5451755523681641
1702132523535351600,12.2643515625,4.969820499420166,-4.423008441925049,1.3887948989868164
1702132523552341800,12.281341796875,4.135601043701172,-4.120025634765625,1.980916976928711
1702132523569332700,12.298332763671874,3.585926055908203,-3.9970133304595947,1.2577695846557617
1702132523586322700,12.31532275390625,3.137714147567749,-3.9554195404052734,0.2588663101196289
1702132523603314000,12.33231396484375,2.4010024070739746,-3.234572410583496,-0.7771973609924316
1702132523620304000,12.349303955078126,1.593419075012207,-2.2817986011505127,-0.22444629669189453
1702132523637294800,12.366294921875,-0.39493489265441895,-1.1098926067352295,0.8194046020507812
1702132523654285000,12.38328515625,-2.9800307750701904,-0.17505788803100586,1.7868537902832031
1702132523671276000,12.400276123046876,-3.6822824478149414,0.33495140075683594,2.6796398162841797
1702132523688266000,12.417265869140625,-2.467512369155884,0.9876694679260254,2.377866744995117
1702132523705257000,12.434257080078124,-2.2988250255584717,1.6712384223937988,1.2380390167236328
1702132523722247200,12.4512470703125,-3.0503149032592773,3.1149749755859375,1.3104467391967773
1702132523739238100,12.468238037109375,-5.066648483276367,4.578801155090332,3.186635971069336
1702132523756228000,12.48522802734375,-7.167819976806641,5.7827911376953125,5.488722324371338
1702132523773219000,12.502218994140625,-9.685539245605469,6.828583717346191,4.676008224487305
1702132523790209300,12.519209228515624,-10.942171096801758,6.789140701293945,3.446013927459717
1702132523807200500,12.536200439453125,-8.818808555603027,6.740644931793213,2.5452938079833984
1702132523824190500,12.5531904296875,-5.317587852478027,5.963247776031494,2.520228385925293
1702132523841181400,12.570181396484376,-2.8040990829467773,4.222611904144287,2.48647403717041
1702132523858171400,12.58717138671875,-2.23016357421875,1.5334501266479492,0.5028047561645508
1702132523875162600,12.60416259765625,-2.4131040573120117,-1.1316509246826172,-2.6965019702911377
1702132523892152600,12.621152587890625,-1.3351898193359375,-3.3014581203460693,-4.911935806274414
1702132523909143600,12.6381435546875,0.5820789337158203,-5.049920082092285,-5.882728576660156
1702132523926133800,12.6551337890625,2.653254270553589,-6.214958667755127,-6.790160179138184
1702132523943124700,12.672124755859375,4.318057537078857,-6.897253036499023,-7.993608474731445
1702132523960114700,12.68911474609375,5.249212741851807,-7.489346027374268,-8.238873481750488
1702132523977105700,12.706105712890626,5.623013496398926,-8.026981353759766,-7.108818054199219
1702132523994095600,12.723095703125,4.48283052444458,-8.734579086303711,-3.4710190296173096
1702132524011087000,12.740087158203124,3.3043558597564697,-8.62094783782959,-3.552535057067871
1702132524028076800,12.757076904296875,0.7263336181640625,-8.011815071105957,-4.697705268859863
1702132524045067800,12.77406787109375,-0.26238250732421875,-9.077436447143555,-6.870741844177246
1702132524062058000,12.79105810546875,0.36283063888549805,-10.816193580627441,-7.779436111450195
1702132524079037000,12.808036865234374,2.5386085510253906,-12.046177864074707,-7.888419151306152
1702132524096031200,12.82503125,4.325039386749268,-13.001083374023438,-7.685507774353027
1702132524113033500,12.842033447265624,5.103906154632568,-13.427703857421875,-6.075003623962402
1702132524130020000,12.85902001953125,3.819514751434326,-13.789344787597656,-4.136898994445801
1702132524146999300,12.875999267578125,0.9225120544433594,-14.51198959350586,-1.9861950874328613
1702132524164001300,12.893001220703125,-2.167018413543701,-16.771682739257812,-0.3997037410736084
1702132524180992300,12.9099921875,-2.2368006706237793,-19.198322296142578,0.4313168525695801
1702132524197982200,12.926982177734375,0.8219935297966003,-21.27908706665039,3.2064743041992188
1702132524214973400,12.943973388671875,4.52759313583374,-21.365596771240234,8.466489791870117
1702132524231963400,12.96096337890625,4.294478893280029,-19.173377990722656,13.257890701293945
1702132524248954400,12.977954345703125,-2.165520191192627,-16.115392684936523,16.51803970336914
1702132524265943800,12.99494384765625,-7.1584672927856445,-14.369956970214844,19.874595642089844
1702132524282924800,13.0119248046875,-7.038827419281006,-13.823038101196289,23.4951229095459
1702132524299912200,13.028912109375,-4.310306549072266,-13.348451614379883,30.354110717773438
1702132524316914000,13.045913818359375,-5.476351737976074,-10.621325492858887,33.80043029785156
1702132524333896000,13.06289599609375,-9.940934181213379,-9.534481048583984,32.777740478515625
1702132524350897400,13.0798974609375,-8.031608581542969,-10.2233304977417,34.21842956542969
1702132524367887600,13.0968876953125,-1.3813281059265137,-9.62101936340332,36.53306579589844
1702132524384868600,13.11386865234375,2.5060722827911377,-7.351755142211914,38.636436462402344
1702132524401858000,13.130858154296876,3.933476209640503,-3.5857343673706055,39.19788360595703
1702132524418859500,13.147859619140625,3.8351893424987793,-0.7992542386054993,41.69965362548828
1702132524435849700,13.164849609375,6.224658012390137,-1.4819773435592651,44.39316177368164
1702132524452840700,13.1818408203125,12.486054420471191,-2.590421676635742,40.72536849975586
1702132524469830700,13.19883056640625,17.26018714904785,-5.039055824279785,36.141075134277344
1702132524486822000,13.21582177734375,19.738805770874023,-8.180301666259766,35.51896667480469
1702132524503811800,13.232811767578125,21.17617416381836,-10.171518325805664,34.5368766784668
1702132524520802800,13.249802734375,19.149158477783203,-10.490001678466797,33.06879425048828
1702132524537793000,13.26679296875,17.557472229003906,-11.72249984741211,29.195507049560547
1702132524554784000,13.283783935546875,22.505861282348633,-11.950981140136719,21.767724990844727
1702132524571774000,13.30077392578125,28.82195281982422,-11.564397811889648,15.433709144592285
1702132524588765000,13.317764892578126,26.5306396484375,-11.371935844421387,14.268750190734863
1702132524605755000,13.3347548828125,20.86623764038086,-10.76338005065918,13.99049186706543
1702132524622746000,13.35174609375,18.679935455322266,-10.273099899291992,14.849891662597656
1702132524639736000,13.368736083984375,19.03498077392578,-10.264245986938477,16.52330780029297
1702132524656727000,13.38572705078125,17.36064910888672,-10.124760627746582,16.56157112121582
1702132524673717200,13.40271728515625,14.340680122375488,-9.547877311706543,15.852995872497559
1702132524690708200,13.419708251953125,12.766336441040039,-9.284392356872559,17.685108184814453
1702132524707698200,13.4366982421875,10.699792861938477,-9.506738662719727,21.426523208618164
1702132524724689200,13.453689208984375,6.979941368103027,-9.49806022644043,24.83770751953125
1702132524741679000,13.47067919921875,3.5161633491516113,-10.02402114868164,26.790584564208984
1702132524758670300,13.48767041015625,2.5650269985198975,-9.968109130859375,26.004657745361328
1702132524775660300,13.504660400390625,2.8244025707244873,-10.484476089477539,24.753887176513672
1702132524792651500,13.521651611328124,2.578664541244507,-11.051253318786621,22.186969757080078
1702132524809641200,13.53864111328125,2.372870683670044,-10.541125297546387,18.874679565429688
1702132524826632700,13.5556328125,1.2959222793579102,-9.490382194519043,16.3671932220459
1702132524843622400,13.572622314453126,0.7093091011047363,-10.803399085998535,15.39970588684082
1702132524860613400,13.58961328125,2.575450897216797,-12.095986366271973,12.656305313110352
1702132524877603300,13.606603271484374,4.091984272003174,-13.426177978515625,8.861957550048828
1702132524894594600,13.623594482421876,5.544039726257324,-14.380735397338867,6.233796119689941
1702132524911584500,13.64058447265625,6.6027140617370605,-15.031099319458008,7.780025482177734
1702132524928573400,13.657573486328126,7.6452226638793945,-13.897441864013672,11.107158660888672
1702132524945564700,13.674564697265625,5.596137523651123,-14.778191566467285,13.14339828491211
1702132524962559200,13.691559326171875,4.544362545013428,-14.665616989135742,8.817831993103027
1702132524979544300,13.70854443359375,9.527222633361816,-14.074236869812012,6.56913948059082
1702132524996537300,13.725537353515625,11.865766525268555,-13.054706573486328,10.307504653930664
1702132525013530400,13.7425302734375,7.916017532348633,-13.301589012145996,15.569620132446289
1702132525030518800,13.759518798828125,1.5810455083847046,-13.063615798950195,16.935426712036133
1702132525047508700,13.7765087890625,-0.18962371349334717,-12.014371871948242,16.501827239990234
1702132525064496000,13.79349609375,3.6674652099609375,-11.565195083618164,20.08831024169922
1702132525081493200,13.8104931640625,2.3753037452697754,-12.224185943603516,24.187789916992188
1702132525098481000,13.82748095703125,-1.6103688478469849,-13.368402481079102,24.29784393310547
1702132525115470800,13.844470947265625,-1.1817052364349365,-15.87221622467041,22.985862731933594
1702132525132461800,13.8614619140625,4.4613871574401855,-16.73507308959961,23.768218994140625
1702132525149441300,13.878441162109375,6.097223281860352,-15.83914566040039,28.799896240234375
1702132525166445600,13.895445556640626,1.2481725215911865,-14.657700538635254,33.933387756347656
1702132525183422200,13.912422119140626,-2.1661250591278076,-16.491138458251953,37.21657180786133
1702132525200418800,13.929418701171874,3.9936530590057373,-20.357160568237305,38.36264419555664
1702132525217403600,13.946403564453124,10.707500457763672,-23.915287017822266,39.671043395996094
1702132525234405000,13.963405029296876,14.505036354064941,-26.192058563232422,40.06892395019531
1702132525251395000,13.98039501953125,17.37908363342285,-25.87866973876953,40.50934600830078
1702132525268386000,13.997385986328124,17.002777099609375,-26.5230655670166,40.21915817260742
1702132525285376300,14.014376220703125,17.239566802978516,-27.234594345092773,37.92966842651367
1702132525302367000,14.031366943359375,17.4273624420166,-28.870254516601562,33.601226806640625
1702132525319346700,14.0483466796875,19.47472381591797,-31.879262924194336,25.21603775024414
1702132525336348000,14.065347900390625,22.463851928710938,-33.14600372314453,18.038063049316406
1702132525353337900,14.082337890625,23.605539321899414,-31.565406799316406,14.249628067016602
1702132525370329300,14.099329345703126,20.396434783935547,-27.095346450805664,12.431341171264648
1702132525387319300,14.1163193359375,14.738285064697266,-24.514759063720703,13.000443458557129
1702132525404310300,14.133310302734374,9.985245704650879,-22.611862182617188,13.516347885131836
1702132525421300200,14.15030029296875,6.830300331115723,-21.851089477539062,15.187703132629395
1702132525438291200,14.167291259765625,4.679096698760986,-20.087158203125,13.383810997009277
1702132525455281200,14.18428125,2.9260611534118652,-19.70429801940918,11.132465362548828
1702132525472272400,14.2012724609375,2.6517224311828613,-19.352745056152344,9.342251777648926
1702132525489262300,14.218262451171874,3.3544363975524902,-18.97665786743164,8.645218849182129
1702132525506253300,14.23525341796875,3.2828192710876465,-17.40328025817871,7.880207061767578
1702132525523243300,14.2522431640625,4.086514949798584,-16.082155227661133,8.199542045593262
1702132525540234500,14.269234375,4.688932418823242,-15.27321720123291,9.089543342590332
1702132525557224400,14.286224365234375,4.6275954246521,-14.696619033813477,10.02335262298584
1702132525574215400,14.30321533203125,4.624454498291016,-15.10313606262207,11.7759428024292
1702132525591205000,14.320205078125,4.973936080932617,-15.102319717407227,13.141989707946777
1702132525608196600,14.337196533203125,5.558269023895264,-14.829833030700684,14.791122436523438
1702132525625186600,14.3541865234375,7.443460464477539,-14.57876205444336,17.292354583740234
1702132525642177500,14.371177490234375,7.401221752166748,-14.866660118103027,20.811628341674805
1702132525659167700,14.388167724609374,6.062741279602051,-15.479135513305664,23.82321548461914
1702132525676158500,14.405158447265626,4.587082386016846,-16.787612915039062,25.8402099609375
1702132525693148400,14.4221484375,3.456167221069336,-18.461315155029297,25.957157135009766
1702132525710139600,14.4391396484375,4.832795143127441,-20.263042449951172,25.485088348388672
1702132525727129600,14.456129638671875,8.198522567749023,-21.697925567626953,26.107730865478516
1702132525744120600,14.47312060546875,6.551137924194336,-25.32239532470703,30.176496505737305
1702132525761110500,14.490110595703126,4.882411956787109,-26.46453094482422,29.679719924926758
1702132525778101800,14.507101806640625,3.6156036853790283,-26.33206558227539,29.83771324157715
1702132525795089200,14.524089111328125,1.2774814367294312,-26.867122650146484,30.90500831604004
1702132525812083500,14.54108349609375,0.049101389944553375,-30.260231018066406,33.392250061035156
1702132525829074700,14.55807470703125,3.462031364440918,-32.04426574707031,34.49561309814453
1702132525846061000,14.57506103515625,9.128310203552246,-28.828323364257812,36.20405578613281
1702132525863056600,14.592056640625,10.330307006835938,-24.740543365478516,38.0095329284668
1702132525880042200,14.609042236328126,5.439897537231445,-21.229225158691406,39.17621612548828
1702132525897034800,14.62603466796875,3.107165813446045,-17.52796173095703,37.5001106262207
1702132525914028300,14.6430283203125,7.80518913269043,-11.762941360473633,32.74637222290039
1702132525931015700,14.660015625,10.444432258605957,-7.971996307373047,33.603675842285156
1702132525948007000,14.6770068359375,7.406826496124268,-4.976302146911621,34.097572326660156
1702132525964996900,14.693996826171874,0.2953217029571533,-3.3172004222869873,31.310070037841797
1702132525981988000,14.710988037109376,-0.5884459018707275,0.7596207857131958,25.083415985107422
1702132525998983400,14.7279833984375,5.968776702880859,4.0875935554504395,24.621936798095703
1702132526015968800,14.74496875,8.695550918579102,5.840737819671631,27.669605255126953
1702132526032959200,14.761959228515625,6.666794776916504,6.966198444366455,25.24338150024414
1702132526049940500,14.7789404296875,3.217843770980835,8.891595840454102,19.42559242248535
1702132526066930000,14.795929931640625,2.8172712326049805,9.06676197052002,15.29892635345459
1702132526083930400,14.812930419921875,4.613710403442383,8.812639236450195,14.283736228942871
1702132526100910300,14.829910400390625,4.876015663146973,7.629401683807373,13.179726600646973
1702132526117901800,14.84690185546875,2.9903972148895264,6.25063419342041,10.506482124328613
1702132526134902000,14.863902099609374,1.5833497047424316,4.234078407287598,8.822676658630371
1702132526151893000,14.88089306640625,1.182614803314209,2.4235730171203613,7.015644073486328
1702132526168883000,14.897883056640625,1.4232078790664673,1.13702392578125,4.357219696044922
1702132526185874000,14.9148740234375,1.9595425128936768,0.29189354181289673,2.9998512268066406
1702132526202863900,14.93186376953125,1.801916241645813,-0.7120926380157471,2.6148462295532227
1702132526219854800,14.948854736328125,1.9864696264266968,-1.5997121334075928,2.2116565704345703
1702132526236844800,14.9658447265625,2.3368020057678223,-2.2640392780303955,1.8252229690551758
1702132526253836300,14.982836181640625,1.8784111738204956,-2.5315113067626953,1.2028026580810547
1702132526270826200,14.999826171875,0.6198928356170654,-2.9089515209198,0.8090238571166992
1702132526287817000,15.01681689453125,0.038622498512268066,-3.2074766159057617,0.663722038269043
1702132526304807200,15.03380712890625,1.05202317237854,-3.2944319248199463,0.5769729614257812
1702132526321798100,15.050798095703126,2.5524888038635254,-3.597761631011963,0.5143899917602539
1702132526338788000,15.0677880859375,3.8562748432159424,-3.7551140785217285,0.37071990966796875
1702132526355779300,15.084779296875,3.91755747795105,-3.933852195739746,0.10951519012451172
1702132526372769500,15.10176953125,3.7479004859924316,-3.766312599182129,-0.5276317596435547
1702132526389760300,15.11876025390625,3.601745128631592,-3.5157310962677,-0.59344482421875
1702132526406750200,15.135750244140626,3.623326063156128,-3.3581573963165283,0.20009231567382812
1702132526423741200,15.1527412109375,3.9292473793029785,-3.221652030944824,1.031057357788086
1702132526440731100,15.169731201171874,4.300183296203613,-3.3952796459198,1.5943536758422852
1702132526457722400,15.186722412109376,5.574980735778809,-3.2402329444885254,1.7961406707763672
1702132526474712600,15.203712646484375,6.130314826965332,-2.780752182006836,1.844395637512207
1702132526491703300,15.220703369140624,5.405116081237793,-2.518876791000366,2.245952606201172
1702132526508693200,15.237693359375,3.9369258880615234,-2.5119142532348633,2.5842084884643555
1702132526525684500,15.2546845703125,2.8463821411132812,-2.1866118907928467,2.941046714782715
1702132526542674400,15.27167431640625,2.967097520828247,-1.6780180931091309,2.608626365661621
1702132526559665400,15.28866552734375,4.269589900970459,-1.3870820999145508,2.296982765197754
1702132526576655400,15.3056552734375,4.784821510314941,-1.2567098140716553,1.869919776916504
1702132526593646600,15.322646484375,3.6401407718658447,-1.539015531539917,0.9818305969238281
1702132526610636500,15.339636474609375,2.4207615852355957,-1.4400944709777832,0.7206583023071289
1702132526627627500,15.35662744140625,1.3707754611968994,-1.0946462154388428,1.5612764358520508
1702132526644617500,15.373617431640625,-0.027790069580078125,-0.926699161529541,1.263134479522705
1702132526661608400,15.3906083984375,-1.5791664123535156,-0.6001114845275879,-0.12583589553833008
1702132526678598400,15.407598388671875,-2.3552093505859375,-0.22627544403076172,-1.2574520111083984
1702132526695589600,15.424589599609375,-2.1978983879089355,0.07693719863891602,-1.175145149230957
1702132526712577500,15.44157763671875,-1.0422558784484863,0.5506134033203125,-0.24746036529541016
1702132526729572600,15.458572509765625,0.21348857879638672,1.1193828582763672,1.4592876434326172
1702132526746562600,15.4755625,-1.008678913116455,2.1832995414733887,2.0130205154418945
1702132526763546600,15.492546630859374,-5.126422882080078,2.35557222366333,1.0887846946716309
1702132526780544300,15.509544189453125,-6.85324764251709,2.9667863845825195,-0.9336214065551758
1702132526797532700,15.52653271484375,-5.660937786102295,2.949951171875,-1.8651933670043945
1702132526814522600,15.543522705078125,-3.033914566040039,2.048227310180664,-1.1418838500976562
1702132526831513600,15.560513671875,-0.9378933906555176,0.9940481185913086,-1.198815107345581
1702132526848503600,15.577503662109375,-1.3671550750732422,-0.3155546188354492,-2.271409749984741
1702132526865494300,15.594494384765625,-2.753340244293213,-1.6704254150390625,-3.6542835235595703
1702132526882485000,15.611485107421874,-3.2221226692199707,-3.0088720321655273,-4.7004075050354
1702132526899475500,15.628475341796875,-2.833615303039551,-4.208654403686523,-5.943410873413086
1702132526916467000,15.645467041015625,-1.5522480010986328,-5.296490669250488,-6.988630294799805
1702132526933456400,15.662456298828126,-0.10744857788085938,-6.485145092010498,-6.815789222717285
1702132526950444500,15.679444580078124,1.5758025646209717,-7.262144565582275,-5.649322032928467
1702132526967443200,15.696443115234375,1.965590476989746,-7.3617963790893555,-5.762503623962402
1702132526984417000,15.7134169921875,1.0827901363372803,-7.627138137817383,-6.82857608795166
1702132527001418800,15.730418701171875,0.10979127883911133,-8.2699613571167,-7.7051005363464355
1702132527018408700,15.74740869140625,-0.31757116317749023,-9.6652250289917,-7.639261245727539
1702132527035399700,15.764399658203125,1.1511754989624023,-11.538785934448242,-5.838034152984619
1702132527052389600,15.7813896484375,3.9757487773895264,-12.302901268005371,-4.403935432434082
1702132527069380600,15.798380615234375,4.820682048797607,-12.892841339111328,-4.850245952606201
1702132527086370600,15.81537060546875,2.9421324729919434,-13.969267845153809,-5.333407402038574
1702132527103361800,15.83236181640625,-0.026534080505371094,-14.882596015930176,-4.505565166473389
1702132527120340000,15.849340087890624,-2.2912120819091797,-17.012855529785156,-0.3796195983886719
1702132527137342700,15.8663427734375,-2.593972682952881,-19.10489273071289,3.3968377113342285
1702132527154332700,15.883332763671875,2.1247880458831787,-20.007484436035156,6.490443706512451
1702132527171323600,15.90032373046875,2.0746822357177734,-18.757816314697266,11.391752243041992
1702132527188313600,15.917313720703126,-4.031065464019775,-17.945188522338867,15.055929183959961
1702132527205304800,15.934304931640625,-7.9937639236450195,-17.335765838623047,18.260303497314453
1702132527222294800,15.951294677734374,-6.936234951019287,-16.762840270996094,25.29722785949707
1702132527239285800,15.96828564453125,-5.954564094543457,-14.367385864257812,28.69552230834961
1702132527256276000,15.98527587890625,-7.703068733215332,-12.887975692749023,29.646751403808594
1702132527273258500,16.002258544921876,-8.892682075500488,-13.40615463256836,32.08118438720703
1702132527290258700,16.0192587890625,-5.4336934089660645,-13.489279747009277,34.358707427978516
1702132527307247900,16.036247802734376,-0.877108633518219,-11.400750160217285,35.716941833496094
1702132527324237800,16.05323779296875,1.3296716213226318,-8.148558616638184,35.303585052490234
1702132527341228800,16.070228759765627,1.3279175758361816,-5.523234844207764,37.439208984375
1702132527358218800,16.08721875,-0.03502035140991211,-4.260102272033691,41.17292404174805
1702132527375209500,16.10420947265625,1.545151948928833,-5.498162746429443,41.71446990966797
1702132527392199700,16.12119970703125,9.65572452545166,-8.023931503295898,42.87560272216797
1702132527409191000,16.13819091796875,17.177515029907227,-10.005962371826172,40.63357925415039
1702132527426180900,16.155180908203125,22.602689743041992,-10.907417297363281,34.71743392944336
1702132527443171800,16.172171875,24.74806785583496,-11.427253723144531,29.94204330444336
1702132527460161800,16.189161865234375,22.941783905029297,-11.873018264770508,26.50011444091797
1702132527477152800,16.20615283203125,18.73806381225586,-12.381269454956055,23.087434768676758
1702132527494142200,16.22314208984375,17.055130004882812,-12.814088821411133,20.8802490234375
1702132527511134500,16.240134521484375,18.489303588867188,-13.610685348510742,20.438140869140625
1702132527528124000,16.2571240234375,20.114107131958008,-13.18513298034668,20.667028427124023
1702132527545115000,16.274114990234374,18.563013076782227,-12.390692710876465,20.78740692138672
1702132527562106400,16.2911064453125,16.102657318115234,-10.474271774291992,16.963741302490234
1702132527579090400,16.30809033203125,15.946135520935059,-8.738213539123535,12.176897048950195
1702132527596084700,16.325084716796876,15.013896942138672,-7.77420711517334,10.615640640258789
1702132527613082000,16.34208203125,12.484978675842285,-5.019021987915039,11.044807434082031
1702132527630063600,16.359063720703126,9.900611877441406,-5.505847930908203,13.371748924255371
1702132527647060500,16.376060546875,11.673221588134766,-6.8331522941589355,14.608382225036621
1702132527664047600,16.393047607421874,13.256711959838867,-8.860881805419922,14.769208908081055
1702132527681038800,16.410038818359375,12.409344673156738,-9.12339973449707,14.728443145751953
1702132527698029000,16.427029052734376,8.162861824035645,-8.121927261352539,15.814680099487305
1702132527715019800,16.444019775390625,3.1087045669555664,-7.218052864074707,20.096330642700195
1702132527732009700,16.461009765625,-0.2526514530181885,-7.9583282470703125,24.688457489013672
1702132527749001000,16.4780009765625,-0.36362624168395996,-9.657243728637695,24.48508071899414
1702132527765988400,16.49498828125,0.5336027145385742,-11.015945434570312,19.69904327392578
1702132527782984400,16.511984375,0.7514052391052246,-8.973817825317383,14.699211120605469
1702132527799971600,16.5289716796875,-0.7998285293579102,-8.460888862609863,12.812210083007812
1702132527816962600,16.545962646484377,-0.005850315093994141,-8.82359790802002,13.429779052734375
1702132527833947100,16.562947021484376,1.5119585990905762,-10.539359092712402,16.097061157226562
1702132527850937300,16.579937255859374,3.1456618309020996,-11.688019752502441,15.110577583312988
1702132527867933700,16.59693359375,3.7765979766845703,-12.331482887268066,10.192421913146973
1702132527884924700,16.613924560546874,4.6629958152771,-13.164365768432617,6.594477653503418
1702132527901914600,16.63091455078125,7.175836563110352,-13.035361289978027,6.866607666015625
1702132527918905600,16.647905517578124,5.737231254577637,-13.490755081176758,11.132962226867676
1702132527935895800,16.664895751953125,1.7658896446228027,-13.967897415161133,10.091400146484375
1702132527952886800,16.68188671875,1.0077829360961914,-13.175281524658203,5.525869369506836
1702132527969876700,16.698876708984375,7.03329610824585,-12.57577133178711,4.351670265197754
1702132527986867700,16.71586767578125,10.4739990234375,-11.712458610534668,8.71969985961914
1702132528003858000,16.73285791015625,7.991909027099609,-12.561283111572266,13.30732536315918
1702132528020849000,16.749848876953124,2.268855094909668,-13.540088653564453,13.795273780822754
1702132528037838800,16.7668388671875,-1.007919430732727,-14.501409530639648,12.990543365478516
1702132528054829800,16.783829833984374,0.8379695415496826,-15.27461051940918,15.836288452148438
1702132528071819800,16.80081982421875,4.923356533050537,-15.033882141113281,20.882678985595703
1702132528088811000,16.81781103515625,4.890296459197998,-15.119891166687012,23.323890686035156
1702132528105801000,16.834801025390625,5.413031101226807,-15.123003005981445,23.201244354248047
1702132528122791700,16.851791748046875,7.6037678718566895,-14.215585708618164,24.337678909301758
1702132528139781600,16.86878173828125,6.085201263427734,-13.43199634552002,28.611957550048828
1702132528156772900,16.88577294921875,0.6296277046203613,-13.24560546875,32.21355056762695
1702132528173762600,16.902762451171874,-0.4577028751373291,-16.103900909423828,35.9943733215332
1702132528190753800,16.91975390625,7.04632568359375,-20.105831146240234,39.160118103027344
1702132528207743700,16.93674365234375,16.10453224182129,-22.128860473632812,40.77277374267578
1702132528224734700,16.953734619140626,19.09111213684082,-21.55340003967285,44.929359436035156
1702132528241724700,16.970724609375,10.915376663208008,-23.241422653198242,46.825767517089844
1702132528258715600,16.987715576171876,6.286962509155273,-29.363462448120117,41.260719299316406
1702132528275705600,17.00470556640625,19.033000946044922,-35.33702850341797,35.78758239746094
1702132528292696600,17.021696533203126,29.815128326416016,-35.08800506591797,29.776172637939453
1702132528309686800,17.038686767578124,31.063018798828125,-31.955381393432617,24.327104568481445
1702132528326677500,17.055677490234373,25.27997398376465,-29.750041961669922,23.035114288330078
1702132528343667700,17.072667724609374,17.995206832885742,-27.170696258544922,21.866880416870117
1702132528360658700,17.08965869140625,12.285064697265625,-25.577293395996094,21.454116821289062
1702132528377648600,17.106648681640625,9.148313522338867,-24.363828659057617,19.372697830200195
1702132528394639600,17.1236396484375,6.847325801849365,-22.161508560180664,16.554584503173828
1702132528411629600,17.140629638671875,4.3102850914001465,-19.88581085205078,13.691394805908203
1702132528428620500,17.15762060546875,2.418275833129883,-17.3068790435791,11.324411392211914
1702132528445610500,17.174610595703125,1.7610769271850586,-15.815278053283691,12.617145538330078
1702132528462599400,17.191599365234374,1.7475852966308594,-14.431327819824219,14.907154083251953
1702132528479594000,17.208593994140625,0.4891071319580078,-13.37842845916748,15.859801292419434
1702132528496580000,17.225580078125,-1.6211485862731934,-12.081085205078125,14.133787155151367
1702132528513572600,17.242572509765626,-2.812594413757324,-11.313652992248535,11.152063369750977
1702132528530566100,17.259566162109376,-3.516972303390503,-10.377291679382324,8.246598243713379
1702132528547553500,17.276553466796877,-3.702049732208252,-9.738699913024902,8.189794540405273
1702132528564544800,17.293544677734374,-2.159583330154419,-10.430883407592773,9.35122013092041
1702132528581534500,17.310534423828123,0.8120498657226562,-10.762979507446289,11.116119384765625
1702132528598525400,17.327525390625,3.192159652709961,-10.920272827148438,11.97728443145752
1702132528615515400,17.344515380859374,3.976790189743042,-11.043615341186523,11.852137565612793
1702132528632506600,17.361506591796875,3.1150991916656494,-10.94091796875,10.71141242980957
1702132528649496300,17.378496337890624,2.617828607559204,-12.311650276184082,12.310293197631836
1702132528666487300,17.3954873046875,3.859571695327759,-13.787073135375977,15.418570518493652
1702132528683475200,17.41247509765625,5.773131370544434,-14.946264266967773,17.63686752319336
1702132528700468200,17.42946826171875,6.467155456542969,-15.815743446350098,17.726001739501953
1702132528717447700,17.44644775390625,5.981603622436523,-17.290332794189453,17.188398361206055
1702132528734438400,17.4634384765625,4.923910617828369,-19.31300163269043,17.570642471313477
1702132528751439400,17.480439453125,4.561439037322998,-21.12406349182129,18.889379501342773
1702132528768430300,17.497430419921876,3.525132656097412,-22.21808624267578,22.756332397460938
1702132528785420300,17.514420166015626,2.846234083175659,-23.335800170898438,23.81605339050293
1702132528802411300,17.531411376953123,2.1717336177825928,-24.40900421142578,24.170690536499023
1702132528819401200,17.548401123046876,2.115297794342041,-26.23478889465332,25.437576293945312
1702132528836392400,17.565392333984374,4.3785810470581055,-27.70645523071289,26.923049926757812
1702132528853382400,17.58238232421875,10.2173433303833,-28.464763641357422,31.385936737060547
1702132528870373400,17.599373291015624,14.97264289855957,-25.98383903503418,34.7406120300293
1702132528887363600,17.616363525390625,12.992130279541016,-22.5009708404541,34.87739181518555
1702132528904354300,17.633354248046874,10.414789199829102,-18.868206024169922,31.074413299560547
1702132528921344500,17.650344482421875,11.873739242553711,-17.559274673461914,28.542512893676758
1702132528938335200,17.667335205078125,15.208885192871094,-16.686115264892578,27.72271728515625
1702132528955325200,17.6843251953125,14.70193862915039,-14.078568458557129,27.46135902404785
1702132528972316400,17.70131640625,10.424352645874023,-11.351840019226074,24.41428565979004
1702132528989306000,17.71830615234375,10.048983573913574,-7.787392616271973,21.008485794067383
1702132529006297000,17.735297119140625,13.615328788757324,-5.307442665100098,22.509185791015625
1702132529023287300,17.752287353515626,15.434038162231445,-3.728339672088623,26.026235580444336
1702132529040278300,17.7692783203125,13.660734176635742,-1.8399595022201538,23.862613677978516
1702132529057268200,17.786268310546873,12.933258056640625,0.5005059242248535,15.778547286987305
1702132529074259200,17.80325927734375,17.236772537231445,3.0061116218566895,10.228482246398926
1702132529091249200,17.820249267578124,19.955097198486328,3.899397850036621,12.275613784790039
1702132529108240100,17.837240234375,18.571115493774414,4.134769439697266,14.448864936828613
1702132529125230000,17.85422998046875,13.742162704467773,4.048486232757568,13.641525268554688
1702132529142221000,17.871220947265623,11.094963073730469,4.421914100646973,9.167220115661621
1702132529159211000,17.8882109375,12.01346206665039,4.164048194885254,5.3192596435546875
1702132529176202200,17.9052021484375,13.16482925415039,3.36765718460083,4.061071395874023
1702132529193192200,17.922192138671875,12.328632354736328,1.969699501991272,4.3658952713012695
1702132529210183200,17.93918310546875,9.327213287353516,1.1125425100326538,4.3888750076293945
1702132529227173000,17.956173095703125,5.509904861450195,0.42976367473602295,4.369540214538574
1702132529244164000,17.9731640625,2.7829294204711914,-0.4663652181625366,4.0987138748168945
1702132529261156000,17.990156005859376,1.9176616668701172,-1.5732922554016113,3.101510524749756
1702132529278145000,18.00714501953125,2.4764065742492676,-2.898237943649292,2.012946128845215
1702132529295133200,18.02413330078125,3.013615131378174,-4.244283199310303,0.7554349899291992
1702132529312128000,18.0411279296875,2.802234649658203,-5.2420854568481445,-0.39282703399658203
1702132529329112800,18.05811279296875,1.5027875900268555,-6.149023532867432,-0.8311457633972168
1702132529346110200,18.075110107421875,-0.02276611328125,-6.910982608795166,-0.47324562072753906
1702132529363096300,18.092096435546875,-0.5154919624328613,-7.322887420654297,-0.1649465560913086
1702132529380088800,18.1090888671875,0.12761211395263672,-7.716183662414551,-0.47353029251098633
1702132529397078300,18.126078369140625,1.3935484886169434,-8.426164627075195,-1.0583405494689941
1702132529414069000,18.143069091796875,1.957749843597412,-9.424750328063965,-1.7549209594726562
1702132529431059000,18.160058837890624,2.0337045192718506,-10.310165405273438,-2.2988157272338867
1702132529448050000,18.1770498046875,1.3630523681640625,-10.898015022277832,-2.4538321495056152
1702132529465040000,18.194039794921874,0.743547797203064,-10.934420585632324,-2.1081461906433105
1702132529482030800,18.21103076171875,0.6091240644454956,-10.28070068359375,-2.1778411865234375
1702132529499010800,18.2280107421875,1.1646162271499634,-9.451225280761719,-1.7897896766662598
1702132529516011800,18.24501171875,2.064744472503662,-8.566347122192383,-1.0347847938537598
1702132529533001700,18.262001708984375,2.899747848510742,-7.678393363952637,-0.24006175994873047
1702132529549992400,18.278992431640624,3.253042697906494,-6.557875633239746,0.012277603149414062
1702132529566982400,18.295982421875,2.851814031600952,-5.658568382263184,-0.3165464401245117
1702132529583968300,18.31296826171875,2.1288671493530273,-5.002360820770264,-1.0201263427734375
1702132529600953000,18.329953125,1.6057589054107666,-4.444827556610107,-1.3255233764648438
1702132529617954800,18.346954833984373,2.0947601795196533,-3.823040723800659,-1.266831874847412
1702132529634944800,18.36394482421875,2.9945287704467773,-3.142296075820923,-0.6912555694580078
1702132529651935500,18.380935546875,3.111021041870117,-2.9127719402313232,-0.086578369140625
1702132529668925700,18.39792578125,2.9745960235595703,-2.675812244415283,-0.6821317672729492
1702132529685916700,18.414916748046874,2.6031250953674316,-2.346595048904419,-1.7647905349731445
1702132529702906600,18.43190673828125,1.1391825675964355,-1.880160927772522,-2.332859516143799
1702132529719897600,18.448897705078124,-0.31899070739746094,-1.8728939294815063,-2.3082027435302734
1702132529736887600,18.465887451171874,-0.7430112361907959,-2.2711868286132812,-1.3301405906677246
1702132529753878800,18.482878662109375,-0.13140535354614258,-2.1888747215270996,-0.43678855895996094
1702132529770868700,18.49986865234375,0.6865701675415039,-1.977259874343872,0.8947429656982422
1702132529787859700,18.516859619140625,0.47922372817993164,-0.5836930274963379,1.8202171325683594
1702132529804838700,18.533838623046876,-3.5070552825927734,-0.054399967193603516,1.8551836013793945
1702132529821840600,18.550840576171876,-7.099164962768555,0.3018527030944824,1.9883127212524414
1702132529838830600,18.56783056640625,-7.612275123596191,0.2840750217437744,3.534444808959961
1702132529855821600,18.584821533203126,-4.580216407775879,0.8360919952392578,6.262385368347168
1702132529872811300,18.601811279296875,-1.860815405845642,1.9783499240875244,8.065313339233398
1702132529889802500,18.618802490234376,-0.5622375011444092,4.217273712158203,7.402338981628418
1702132529906792200,18.635792236328125,-0.44531524181365967,6.1387176513671875,7.098644256591797
1702132529923783400,18.652783447265627,-1.3657467365264893,7.682708740234375,7.887826919555664
1702132529940773400,18.6697734375,-1.9157955646514893,8.580409049987793,8.154871940612793
1702132529957764400,18.686764404296873,-0.19082999229431152,9.701875686645508,8.838067054748535
1702132529974754300,18.70375439453125,1.8773962259292603,10.603729248046875,9.293831825256348
1702132529991745500,18.72074560546875,2.052211284637451,11.300918579101562,8.032276153564453
1702132530008735200,18.7377353515625,0.1623373031616211,10.9320068359375,6.622618675231934
1702132530025726500,18.7547265625,-0.09525012969970703,10.795812606811523,5.16086483001709
1702132530042716200,18.771716064453123,-0.284726619720459,10.334936141967773,4.378503322601318
1702132530059707400,18.788707275390625,0.16193628311157227,9.519052505493164,4.25147819519043
1702132530076697000,18.805697021484374,2.516928195953369,9.172754287719727,5.145539283752441
1702132530093688300,18.822688232421875,2.856761932373047,7.436029434204102,5.462084770202637
1702132530110678300,18.83967822265625,2.238743305206299,5.224530220031738,3.1157732009887695
1702132530127669200,18.856669189453125,2.7469029426574707,2.643594980239868,0.5419092178344727
1702132530144659000,18.873658935546874,4.129025459289551,0.49121904373168945,-1.5013201236724854
1702132530161653200,18.8906533203125,6.089414596557617,-1.14990234375,-2.2931747436523438
1702132530178636800,18.90763671875,7.897268295288086,-2.5251858234405518,-2.5292129516601562
1702132530195631000,18.924631103515626,9.677474021911621,-3.258821725845337,-3.130324125289917
1702132530212620800,18.941620849609375,10.29671859741211,-4.110805988311768,-3.6724700927734375
1702132530229611800,18.95861181640625,10.488837242126465,-4.737849235534668,-4.38551139831543
1702132530246601200,18.975601318359374,9.559407234191895,-5.304812908172607,-4.832470893859863
1702132530263593700,18.99259375,8.478133201599121,-5.513134002685547,-5.514266490936279
1702132530280583000,19.0095830078125,8.92253303527832,-5.65546989440918,-6.090831279754639
1702132530297574000,19.026573974609374,10.209275245666504,-5.693992614746094,-6.266458511352539
1702132530314563800,19.043563720703126,10.907427787780762,-6.008541584014893,-5.824123859405518
1702132530331554600,19.060554443359376,10.752984046936035,-6.687250137329102,-4.714047908782959
1702132530348544500,19.07754443359375,9.889963150024414,-7.790985107421875,-3.8617258071899414
1702132530365535700,19.09453564453125,9.545080184936523,-8.924290657043457,-4.130863666534424
1702132530382526000,19.11152587890625,10.095873832702637,-10.093189239501953,-4.58414363861084
1702132530399516700,19.1285166015625,10.725227355957031,-11.143046379089355,-4.648298263549805
1702132530416504300,19.14550439453125,11.894847869873047,-13.222747802734375,-1.5195691585540771
1702132530433500000,19.1625,10.132065773010254,-14.68770980834961,2.9567933082580566
1702132530450474500,19.179474609375,4.013948440551758,-16.351871490478516,7.6995463371276855
1702132530467481000,19.196481201171874,-0.7985939979553223,-18.020206451416016,10.023014068603516
1702132530484471800,19.213471923828124,-0.520721435546875,-19.346092224121094,10.734441757202148
1702132530501456400,19.230456298828123,-0.926539421081543,-20.097049713134766,14.100884437561035
1702132530518449200,19.24744921875,-2.3582897186279297,-19.20656394958496,17.733720779418945
1702132530535440600,19.264440673828126,-3.9786264896392822,-17.13703155517578,21.673477172851562
1702132530552430600,19.2814306640625,-7.322071075439453,-14.622716903686523,22.88446807861328
1702132530569421300,19.29842138671875,-10.477816581726074,-12.574943542480469,24.851463317871094
1702132530586400800,19.31540087890625,-13.475408554077148,-11.672002792358398,27.180038452148438
1702132530603402200,19.33240234375,-12.384881973266602,-11.00037670135498,29.201526641845703
1702132530620387300,19.34938720703125,-9.832923889160156,-8.634160041809082,29.386024475097656
1702132530637383400,19.366383544921874,-8.895127296447754,-5.552434921264648,31.543190002441406
1702132530654373000,19.383373046875,-9.404256820678711,-2.528312921524048,38.0823974609375
1702132530671364000,19.400364013671876,-11.85403060913086,-0.8492012023925781,42.9786491394043
1702132530688343800,19.41734375,-7.741055488586426,-2.7179994583129883,46.58717727661133
1702132530705345000,19.434344970703126,3.0753581523895264,-6.206491470336914,48.535980224609375
1702132530722335500,19.45133544921875,12.100984573364258,-8.688348770141602,46.951622009277344
1702132530739315500,19.4683154296875,16.245384216308594,-10.58980941772461,42.88920974731445
1702132530756316000,19.48531591796875,20.204896926879883,-9.652402877807617,35.572635650634766
1702132530773307100,19.50230712890625,20.222272872924805,-8.188064575195312,29.888389587402344
1702132530790297000,19.519297119140624,19.401765823364258,-5.462641716003418,20.79064178466797
1702132530807288300,19.536288330078126,21.009479522705078,-3.737990379333496,15.635761260986328
1702132530824277800,19.55327783203125,20.1606502532959,-3.095555305480957,14.73630142211914
1702132530841269000,19.57026904296875,16.214826583862305,-2.529501438140869,14.543139457702637
1702132530858259000,19.587259033203125,13.654862403869629,-2.5873823165893555,12.734686851501465
1702132530875249700,19.604249755859374,17.375137329101562,-2.9618048667907715,13.15585708618164
1702132530892239600,19.621239501953124,20.462858200073242,-4.4366536140441895,16.770509719848633
1702132530909230800,19.63823095703125,17.342342376708984,-5.544818878173828,22.04629898071289
1702132530926220800,19.655220703125,13.213237762451172,-5.8339385986328125,24.62307357788086
1702132530943209200,19.672209228515626,13.340957641601562,-8.687799453735352,28.430702209472656
1702132530960204300,19.689204345703125,17.018211364746094,-11.243331909179688,29.604625701904297
1702132530977192700,19.706192626953126,13.347375869750977,-14.324087142944336,30.3791561126709
1702132530994182700,19.7231826171875,9.615751266479492,-15.799169540405273,28.53778076171875
1702132531011163100,19.7401630859375,8.958524703979492,-15.800326347351074,26.60179328918457
1702132531028163800,19.757163818359373,7.704023361206055,-15.713761329650879,26.03746795654297
1702132531045154600,19.774154541015626,4.476831436157227,-15.74726390838623,23.741323471069336
1702132531062144500,19.79114453125,2.8263049125671387,-15.770666122436523,20.47858428955078
1702132531079132400,19.80813232421875,2.5161986351013184,-15.355515480041504,17.400846481323242
1702132531096125200,19.825125244140626,-0.2638697624206543,-15.984129905700684,14.269787788391113
1702132531113116200,19.8421162109375,0.4084601402282715,-17.11705780029297,8.642416954040527
1702132531130106600,19.859106689453125,5.607170104980469,-16.70884132385254,7.042638301849365
1702132531147097300,19.876097412109374,7.733724117279053,-14.73544979095459,10.710304260253906
1702132531164094500,19.893094482421876,0.14455795288085938,-12.597389221191406,12.087259292602539
1702132531181078500,19.91007861328125,-2.283940315246582,-13.769319534301758,9.833503723144531
1702132531198068200,19.927068115234373,1.0415358543395996,-15.116361618041992,9.49057388305664
1702132531215059500,19.9440595703125,4.65882682800293,-13.217411994934082,8.570669174194336
1702132531232049200,19.961049072265624,5.041780471801758,-12.386219024658203,11.87984848022461
1702132531249040100,19.9780400390625,1.0583138465881348,-12.649198532104492,14.297303199768066
1702132531266029800,19.99502978515625,-1.6162447929382324,-12.291332244873047,14.520593643188477
1702132531283021300,20.012021240234375,-1.1367363929748535,-11.582904815673828,17.524635314941406
1702132531300011000,20.029010986328124,-4.936375617980957,-11.261068344116211,21.350940704345703
1702132531317002000,20.046001953125,-8.912344932556152,-14.218749046325684,22.817432403564453
1702132531333989600,20.06298974609375,-4.646450996398926,-19.763111114501953,20.241792678833008
1702132531350985700,20.07998583984375,6.466185569763184,-21.63818359375,20.814960479736328
1702132531367972600,20.09697265625,10.918295860290527,-19.03913688659668,28.47420883178711
1702132531384963800,20.1139638671875,2.588554620742798,-16.800193786621094,36.902488708496094
1702132531401943300,20.130943359375,-5.678558826446533,-18.98502540588379,41.73469161987305
1702132531418945000,20.147945068359373,0.3759498596191406,-23.68325424194336,44.27705001831055
1702132531435934700,20.164934814453126,13.071423530578613,-25.03413200378418,47.50152587890625
1702132531452925700,20.18192578125,19.397668838500977,-22.277341842651367,50.18655776977539
1702132531469916000,20.198916015625,18.267396926879883,-20.35006332397461,51.8780517578125
1702132531486907000,20.215906982421874,16.06468391418457,-19.38994026184082,50.972023010253906
1702132531503894300,20.232894287109374,18.664175033569336,-20.22092628479004,48.935707092285156
1702132531520887300,20.24988720703125,23.46432876586914,-22.6607666015625,45.8618049621582
1702132531537880300,20.26688037109375,27.266714096069336,-25.088102340698242,41.3406867980957
1702132531554868500,20.283868408203126,28.347145080566406,-26.48107147216797,34.14353942871094
1702132531571858700,20.300858642578124,27.750802993774414,-25.846712112426758,29.529293060302734
1702132531588846800,20.317846923828125,23.587419509887695,-26.30411148071289,28.167940139770508
1702132531605842000,20.334842041015627,16.43882179260254,-28.58441734313965,26.28400993347168
1702132531622830600,20.35183056640625,10.724836349487305,-29.58180046081543,20.08631134033203
1702132531639820300,20.3688203125,10.718475341796875,-27.616649627685547,12.900439262390137
1702132531656811000,20.38581103515625,12.975846290588379,-23.90273666381836,11.868803977966309
1702132531673801500,20.402801513671875,12.695913314819336,-20.536975860595703,14.128480911254883
1702132531690792400,20.41979248046875,8.175081253051758,-18.899242401123047,16.692649841308594
1702132531707782000,20.436781982421873,2.6755213737487793,-18.295644760131836,14.909308433532715
1702132531724773400,20.4537734375,0.391268253326416,-17.71114730834961,10.928228378295898
1702132531741763300,20.470763427734376,1.2266159057617188,-16.645435333251953,10.056445121765137
1702132531758754000,20.487754150390625,1.6645112037658691,-15.45666217803955,11.863977432250977
1702132531775744000,20.504743896484374,1.4576787948608398,-13.764786720275879,12.795804977416992
1702132531792735000,20.52173486328125,2.4495673179626465,-12.485624313354492,13.176521301269531
1702132531809725000,20.538724853515625,3.3663833141326904,-12.121488571166992,13.319488525390625
1702132531826716000,20.5557158203125,3.5652146339416504,-12.480533599853516,13.783687591552734
1702132531843705900,20.572705810546875,4.659873008728027,-13.637944221496582,15.071334838867188
1702132531860696800,20.58969677734375,6.476097583770752,-14.839826583862305,16.215742111206055
1702132531877686800,20.606686767578125,7.352341651916504,-16.25205421447754,17.158218383789062
1702132531894677500,20.623677490234375,7.379612922668457,-17.9688720703125,17.237823486328125
1702132531911658800,20.64065869140625,8.270940780639648,-19.31324577331543,16.72956085205078
1702132531928656100,20.65765625,9.911750793457031,-20.703994750976562,18.390832901000977
1702132531945651200,20.674651123046875,11.232034683227539,-22.371566772460938,20.25406265258789
1702132531962639600,20.6916396484375,10.177666664123535,-23.91337013244629,21.234708786010742
1702132531979627000,20.708626953125,5.713129997253418,-26.803604125976562,23.60550880432129
1702132531996619800,20.725619873046874,3.3029260635375977,-28.536325454711914,24.38404083251953
1702132532013613600,20.742613525390624,4.445152759552002,-29.81966781616211,25.739654541015625
1702132532030601500,20.7596015625,6.6992669105529785,-31.433635711669922,27.05082893371582
1702132532047591400,20.77659130859375,10.289405822753906,-31.49609375,26.753297805786133
1702132532064582400,20.79358251953125,13.186185836791992,-28.631305694580078,26.559852600097656
1702132532081572400,20.810572265625,13.121262550354004,-26.106517791748047,29.83287811279297
1702132532098563300,20.827563232421873,11.984943389892578,-23.83390235900879,34.22906494140625
1702132532115553300,20.84455322265625,11.560555458068848,-18.237863540649414,33.80623245239258
1702132532132544300,20.861544189453124,10.57855224609375,-12.849774360656738,32.742427825927734
1702132532149534200,20.8785341796875,10.079166412353516,-9.607141494750977,32.20485305786133
1702132532166525400,20.895525390625,9.457112312316895,-7.903476715087891,30.30101776123047
1702132532183497500,20.91249755859375,9.419486999511719,-5.179028034210205,27.832626342773438
1702132532200495400,20.929495361328126,7.932550430297852,-0.5976368188858032,27.339805603027344
1702132532217496000,20.94649609375,5.237569808959961,2.326406240463257,27.81644058227539
1702132532234490400,20.963490478515624,5.096890449523926,4.558638572692871,25.960660934448242
1702132532251473200,20.98047314453125,8.415420532226562,6.54782772064209,20.476463317871094
1702132532268458500,20.99745849609375,11.425606727600098,8.509687423706055,17.21518325805664
1702132532285458000,21.0144580078125,10.318639755249023,8.541643142700195,17.460220336914062
1702132532302449000,21.031448974609376,5.8065032958984375,8.199771881103516,17.174427032470703
1702132532319438600,21.0484384765625,3.0267577171325684,7.563976287841797,14.978160858154297
1702132532336429600,21.0654296875,3.575321912765503,7.111639499664307,11.657942771911621
1702132532353419500,21.08241943359375,5.629920959472656,5.844366073608398,9.442245483398438
1702132532370410500,21.099410400390624,6.7784833908081055,4.246040344238281,7.868677139282227
1702132532387411700,21.11641162109375,6.410125732421875,2.6665236949920654,5.807085990905762
1702132532404391400,21.133391357421875,3.7093827724456787,1.459079384803772,4.179156303405762
1702132532421381000,21.150381103515624,1.0804811716079712,0.4217377305030823,3.5594568252563477
1702132532438361600,21.167361572265627,0.32902073860168457,-0.40658217668533325,2.832000732421875
1702132532455362000,21.184362060546874,1.0615211725234985,-1.390830397605896,2.002617835998535
1702132532472342500,21.201342529296873,2.4246134757995605,-2.5396296977996826,1.3325653076171875
1702132532489343200,21.21834326171875,3.587798595428467,-3.5587596893310547,0.7036857604980469
1702132532506334200,21.235334228515626,3.2758426666259766,-4.421720504760742,0.40383243560791016
1702132532523324400,21.252324462890623,2.6713452339172363,-4.739363193511963,0.03705883026123047
1702132532540305000,21.269304931640626,2.0093958377838135,-4.774012565612793,-0.5353965759277344
1702132532557304800,21.286304931640625,2.0007166862487793,-4.7055439949035645,-0.9755573272705078
1702132532574296300,21.30329638671875,2.5889039039611816,-4.704049587249756,-0.8978910446166992
1702132532591286000,21.3202861328125,3.4469432830810547,-4.831713676452637,-0.5470371246337891
1702132532608276700,21.33727685546875,4.095391273498535,-4.826508522033691,-0.4912691116333008
1702132532625267000,21.354266845703126,4.482057571411133,-4.461697578430176,-0.9388790130615234
1702132532642258000,21.3712578125,4.465878963470459,-4.287787914276123,-1.2811317443847656
1702132532659247900,21.388247802734377,4.302281856536865,-4.24105978012085,-1.3734712600708008
1702132532676238600,21.405238525390626,4.259783744812012,-3.9474244117736816,-1.3430461883544922
1702132532693228500,21.422228515625,4.718012809753418,-3.502856731414795,-1.0261011123657227
1702132532710219500,21.439219482421876,5.090041160583496,-3.1121091842651367,-0.7546167373657227
1702132532727209700,21.456209716796874,4.864214897155762,-2.8855814933776855,-0.6099824905395508
1702132532744200700,21.47320068359375,4.3884477615356445,-2.3727993965148926,-0.722559928894043
1702132532761190000,21.49018994140625,3.5027871131896973,-1.5567338466644287,-0.5683393478393555
1702132532778182000,21.507181884765625,2.5216197967529297,-1.0534005165100098,0.19780731201171875
1702132532795171300,21.52417138671875,2.053353786468506,-0.7655200958251953,0.8916034698486328
1702132532812161000,21.5411611328125,2.1599254608154297,-0.8453030586242676,1.142867088317871
1702132532829152300,21.55815234375,2.637373685836792,-0.7297378778457642,1.2909307479858398
1702132532846143200,21.575143310546874,3.188793182373047,-0.2773153781890869,1.6293916702270508
1702132532863133000,21.5921328125,2.3670687675476074,0.06858229637145996,1.5920944213867188
1702132532880113700,21.60911376953125,1.0646440982818604,0.21611690521240234,1.4086828231811523
1702132532897114000,21.626114013671874,0.554274320602417,0.5851099491119385,2.067307472229004
1702132532914105000,21.64310498046875,1.0181233882904053,1.0744807720184326,4.410662651062012
1702132532931095000,21.660094970703124,1.3033267259597778,1.5450503826141357,5.7699995040893555
1702132532948085800,21.677085693359373,1.1562796831130981,1.8697443008422852,5.422284126281738
1702132532965076000,21.694075927734374,1.4236679077148438,2.5943922996520996,4.254939079284668
