time,seconds_elapsed,z,y,x
1702136998555687700,0.009687744140625,-0.13671493530273438,-0.4764280319213867,-0.43852919340133667
1702136998572681200,0.02668115234375,-0.15502548217773438,-0.4103055000305176,-0.4405829906463623
1702136998640649000,0.09464892578125,0.6084632873535156,-0.03066253662109375,0.23470324277877808
1702136998657643300,0.111643310546875,0.7685337066650391,-0.08982992172241211,0.16123080253601074
1702136998674634000,0.128634033203125,0.6777858734130859,-0.03871345520019531,0.022932767868041992
1702136998691628800,0.14562890625,0.40137481689453125,-0.08752918243408203,0.021653831005096436
1702136998708616200,0.1626162109375,0.07701301574707031,-0.1384134292602539,0.05360132455825806
1702136998725612300,0.1796123046875,-0.07463455200195312,-0.16650724411010742,-0.09028631448745728
1702136998742605000,0.19660498046875,0.025116920471191406,-0.23337793350219727,-0.21837985515594482
1702136998759594500,0.213594482421875,0.16629600524902344,-0.3427248001098633,-0.29165780544281006
1702136998776597000,0.230596923828125,0.19655799865722656,-0.4669761657714844,-0.23831087350845337
1702136998793577000,0.247576904296875,-0.4916691780090332,-0.5290346145629883,-0.013048231601715088
1702136998810558000,0.264557861328125,-1.1329197883605957,-0.6594252586364746,-0.07357048988342285
1702136998827569400,0.2815693359375,-1.270857810974121,-0.7720718383789062,-0.2783746123313904
1702136998844557000,0.29855712890625,-0.991671085357666,-1.0770378112792969,-0.47528114914894104
1702136998861552400,0.315552490234375,-0.4873623847961426,-1.397691249847412,-0.8208838701248169
1702136998878540500,0.33254052734375,-0.2926979064941406,-1.6729710102081299,-1.2872083187103271
1702136998895535600,0.34953564453125,-0.6734280586242676,-1.9579577445983887,-1.6038711071014404
1702136998912522800,0.366522705078125,-2.1542887687683105,-2.244014263153076,-1.2828484773635864
1702136998929518600,0.3835185546875,-2.694523334503174,-2.298657178878784,-1.1906917095184326
1702136998946510600,0.400510498046875,-2.499638080596924,-2.5427255630493164,-1.8172129392623901
1702136998963509500,0.417509521484375,-1.9395017623901367,-3.025589942932129,-2.4420454502105713
1702136998980495400,0.434495361328125,-2.395258903503418,-3.3701257705688477,-2.7376747131347656
1702136998997489400,0.451489501953125,-3.648041248321533,-4.098308563232422,-2.68343448638916
1702136999014485000,0.468485107421875,-4.622755527496338,-4.657460689544678,-1.9417078495025635
1702136999031475000,0.485474853515625,-5.168153285980225,-4.7617597579956055,-1.2961602210998535
1702136999048467700,0.5024677734375,-5.419835567474365,-4.857179164886475,-1.2416539192199707
1702136999065461000,0.5194609375,-5.878061294555664,-5.57423210144043,-1.1496825218200684
1702136999082453800,0.536453857421875,-5.138186931610107,-6.678674697875977,-0.31920671463012695
1702136999099443700,0.553443603515625,-3.6979193687438965,-7.199150085449219,1.553786277770996
1702136999116426800,0.5704267578125,-3.660958766937256,-7.59889030456543,3.9017701148986816
1702136999133432300,0.587432373046875,-4.646817207336426,-7.165642738342285,5.011166572570801
1702136999150419700,0.604419677734375,-7.05810546875,-7.357436656951904,5.338628768920898
1702136999167416000,0.621416015625,-8.194518089294434,-7.842202663421631,6.413995742797852
1702136999184406800,0.63840673828125,-8.06520938873291,-8.798345565795898,9.036052703857422
1702136999201401900,0.65540185546875,-7.033078193664551,-9.155537605285645,12.724645614624023
1702136999218396000,0.67239599609375,-6.462112903594971,-8.777931213378906,14.271053314208984
1702136999235375000,0.689375,-6.00032901763916,-8.355501174926758,15.054283142089844
1702136999252378000,0.706378173828125,-4.96687650680542,-8.10963249206543,15.835445404052734
1702136999269367600,0.723367431640625,-4.344858169555664,-7.7109174728393555,17.124160766601562
1702136999286349300,0.740349365234375,-3.083186626434326,-7.1361799240112305,19.20574951171875
1702136999303358200,0.757358154296875,-0.7941732406616211,-5.588184833526611,20.570213317871094
1702136999320343800,0.77434375,0.9834268093109131,-4.030978202819824,21.572954177856445
1702136999337341000,0.7913408203125,0.6112229228019714,-2.7825369834899902,22.46052360534668
1702136999354331100,0.8083310546875,-0.4559818506240845,-2.8487422466278076,23.997833251953125
1702136999371326200,0.825326171875,0.811744213104248,-3.3052449226379395,24.498023986816406
1702136999388313600,0.842313720703125,3.613941192626953,-3.879342555999756,24.24390983581543
1702136999405309700,0.859309814453125,7.474738121032715,-4.088440418243408,22.983165740966797
1702136999422301700,0.8763017578125,11.852279663085938,-3.9165008068084717,21.518638610839844
1702136999439293200,0.893293212890625,13.813241958618164,-3.474668502807617,21.68227195739746
1702136999456286000,0.910285888671875,11.896066665649414,-3.1377084255218506,22.387908935546875
1702136999473281000,0.927281005859375,8.462782859802246,-2.6294522285461426,20.11090087890625
1702136999490268400,0.944268310546875,6.8988566398620605,-2.6812314987182617,17.659236907958984
1702136999507265000,0.96126513671875,10.237446784973145,-4.159277439117432,18.337051391601562
1702136999524255700,0.978255859375,12.769693374633789,-6.300930023193359,20.250782012939453
1702136999541250800,0.995250732421875,11.283136367797852,-6.784000396728516,20.24454116821289
1702136999558231000,1.01223095703125,8.565139770507812,-6.756087303161621,18.643291473388672
1702136999575223600,1.0292236328125,9.007983207702637,-6.353011131286621,15.127518653869629
1702136999592226800,1.046226806640625,11.858418464660645,-6.688870906829834,13.484565734863281
1702136999609216500,1.063216552734375,13.104558944702148,-6.705745220184326,12.31712532043457
1702136999626210000,1.0802099609375,12.657459259033203,-4.704100608825684,10.263042449951172
1702136999643202800,1.097202880859375,11.136116981506348,-1.6750507354736328,7.142993450164795
1702136999660199000,1.114198974609375,10.363788604736328,0.5675215721130371,5.8596930503845215
1702136999677186000,1.13118603515625,9.422566413879395,0.4427671432495117,7.305248260498047
1702136999694178300,1.14817822265625,9.818214416503906,0.22371721267700195,7.9008469581604
1702136999711178800,1.1651787109375,10.420160293579102,-0.022430419921875,8.680326461791992
1702136999728160000,1.182159912109375,10.095158576965332,-0.8259825706481934,10.889793395996094
1702136999745158100,1.199158203125,8.918153762817383,-2.2076990604400635,14.100400924682617
1702136999762150100,1.216150146484375,6.661865234375,-3.8427741527557373,17.22075653076172
1702136999779141600,1.2331416015625,4.429553031921387,-5.8018388748168945,18.744781494140625
1702136999796124200,1.250124267578125,4.414458274841309,-8.501754760742188,18.832279205322266
1702136999813126700,1.267126708984375,4.897797584533691,-11.496835708618164,16.53812599182129
1702136999830118000,1.284117919921875,6.131383419036865,-14.073433876037598,13.093583106994629
1702136999847130600,1.301130615234375,8.327897071838379,-13.826448440551758,10.589613914489746
1702136999864088600,1.318088623046875,8.578251838684082,-12.938483238220215,10.359259605407715
1702136999881088800,1.3350888671875,6.827887058258057,-12.06252670288086,10.258625030517578
1702136999898091300,1.35209130859375,3.846273183822632,-11.816831588745117,8.855103492736816
1702136999915087400,1.36908740234375,2.148646831512451,-12.46445083618164,7.023859024047852
1702136999932076300,1.386076171875,1.903672695159912,-13.831071853637695,5.293242931365967
1702136999949065500,1.4030654296875,1.650726318359375,-15.251255989074707,3.2703590393066406
1702136999966059000,1.42005908203125,0.9353556632995605,-16.6845760345459,1.8438127040863037
1702136999983053800,1.4370537109375,1.5469112396240234,-18.668582916259766,1.2256165742874146
1702137000000041500,1.45404150390625,3.1017513275146484,-18.224075317382812,-0.3351452350616455
1702137000017038000,1.4710380859375,6.087316513061523,-16.8455810546875,1.1946735382080078
1702137000034018800,1.488018798828125,7.428029537200928,-15.897562026977539,7.6132121086120605
1702137000051013000,1.50501318359375,3.251331090927124,-16.53521728515625,13.246249198913574
1702137000068012000,1.522011962890625,-3.0314102172851562,-16.747879028320312,12.832270622253418
1702137000085006800,1.5390068359375,-3.4090778827667236,-17.533445358276367,10.878365516662598
1702137000101999900,1.555999755859375,5.250161170959473,-18.803234100341797,16.1278133392334
1702137000118989600,1.572989501953125,10.683700561523438,-17.018264770507812,25.365032196044922
1702137000135977500,1.5899775390625,4.689845561981201,-15.133737564086914,29.31026268005371
1702137000152978400,1.606978515625,-2.6473278999328613,-16.033985137939453,29.664535522460938
1702137000169965600,1.623965576171875,0.967348575592041,-18.555931091308594,30.651517868041992
1702137000186962200,1.640962158203125,9.259958267211914,-17.761127471923828,35.296268463134766
1702137000203946200,1.6579462890625,9.552665710449219,-17.099485397338867,39.63887405395508
1702137000220949200,1.67494921875,3.281888961791992,-20.11802864074707,41.36891174316406
1702137000237935600,1.691935546875,5.68903923034668,-27.34480094909668,44.43236541748047
1702137000254915800,1.708915771484375,15.47344970703125,-32.42880630493164,45.024784088134766
1702137000271921700,1.725921630859375,22.381057739257812,-33.74980926513672,42.72891616821289
1702137000288916200,1.742916259765625,23.46434783935547,-35.047523498535156,38.644554138183594
1702137000305907500,1.759907470703125,21.838680267333984,-36.66933059692383,34.84262466430664
1702137000322905600,1.776905517578125,20.802555084228516,-37.397464752197266,33.201026916503906
1702137000339887400,1.793887451171875,20.20207977294922,-36.07865905761719,29.012426376342773
1702137000356886800,1.81088671875,19.639373779296875,-35.19899368286133,23.763004302978516
1702137000373875200,1.827875244140625,19.865550994873047,-33.394981384277344,20.522077560424805
1702137000390876000,1.8448759765625,16.500289916992188,-30.917728424072266,19.253067016601562
1702137000407857400,1.861857421875,11.102590560913086,-29.150392532348633,17.26837921142578
1702137000424857900,1.87885791015625,7.007201194763184,-25.55118179321289,13.233488082885742
1702137000441847000,1.895846923828125,4.815637111663818,-21.947368621826172,11.063370704650879
1702137000458840000,1.912840087890625,4.4878692626953125,-18.118892669677734,10.821663856506348
1702137000475831300,1.929831298828125,4.442212104797363,-15.744064331054688,12.646587371826172
1702137000492823600,1.946823486328125,3.261302947998047,-15.132532119750977,13.560850143432617
1702137000509816800,1.96381689453125,2.285874366760254,-14.584211349487305,11.535872459411621
1702137000526809000,1.98080908203125,2.453096389770508,-12.554716110229492,8.19355583190918
1702137000543799600,1.997799560546875,2.810018539428711,-11.078505516052246,9.020155906677246
1702137000560796000,2.0147958984375,3.0083236694335938,-13.051664352416992,14.103029251098633
1702137000577784600,2.03178466796875,2.340853214263916,-15.237318992614746,17.632081985473633
1702137000594778400,2.0487783203125,0.6266536712646484,-15.28582763671875,16.35985565185547
1702137000611775700,2.065775634765625,-0.8653407096862793,-14.776494026184082,13.657615661621094
1702137000628763000,2.082762939453125,-1.0752942562103271,-15.292165756225586,12.880965232849121
1702137000645756200,2.099756103515625,0.6586744785308838,-16.908458709716797,14.20496654510498
1702137000662751200,2.116751220703125,2.448979377746582,-18.712566375732422,17.167137145996094
1702137000679738600,2.133738525390625,4.451699256896973,-20.786773681640625,20.1595458984375
1702137000696735500,2.150735595703125,6.2735090255737305,-22.89136505126953,21.413555145263672
1702137000713716000,2.167716064453125,6.945650577545166,-24.644933700561523,21.057403564453125
1702137000730717200,2.18471728515625,5.831271171569824,-26.26459503173828,21.35126304626465
1702137000747711500,2.20171142578125,3.197661876678467,-27.711706161499023,21.855525970458984
1702137000764704000,2.2187041015625,3.0254712104797363,-29.359405517578125,22.282697677612305
1702137000781697300,2.235697265625,4.489332675933838,-31.854698181152344,23.84444236755371
1702137000798686700,2.252686767578125,3.561201572418213,-34.750892639160156,26.93828773498535
1702137000815680500,2.269680419921875,4.269525527954102,-34.88727951049805,26.17952537536621
1702137000832675600,2.286675537109375,5.6716814041137695,-34.44825744628906,29.144855499267578
1702137000849662000,2.303661865234375,1.4682579040527344,-31.72562599182129,34.15853500366211
1702137000866669300,2.32066943359375,-1.0938310623168945,-28.788448333740234,34.02104949951172
1702137000883650000,2.337650146484375,2.611818313598633,-24.663806915283203,30.01914405822754
1702137000900641800,2.354641845703125,6.6899213790893555,-22.533344268798828,28.99030876159668
1702137000917633500,2.371633544921875,9.736461639404297,-20.158658981323242,30.29319190979004
1702137000934631000,2.388630859375,5.623981475830078,-16.464656829833984,32.50078201293945
1702137000951621400,2.405621337890625,-2.7936840057373047,-12.885597229003906,36.892662048339844
1702137000968611000,2.422611083984375,-9.62161636352539,-9.323334693908691,35.59604263305664
1702137000985604600,2.4396044921875,-8.247331619262695,-5.739959239959717,28.940143585205078
1702137001002600000,2.456599853515625,-1.8866853713989258,-4.367902755737305,25.23267364501953
1702137001019587000,2.473587158203125,2.207928419113159,-5.0847578048706055,23.871826171875
1702137001036583400,2.49058349609375,3.0167236328125,-5.5005035400390625,21.34954833984375
1702137001053565000,2.50756494140625,2.371950387954712,-1.7545554637908936,19.23745346069336
1702137001070567200,2.524567138671875,-0.09674125909805298,-0.7558186650276184,21.37738037109375
1702137001087548000,2.5415478515625,-1.4945987462997437,0.44789987802505493,21.895843505859375
1702137001104539600,2.55853955078125,-1.744903802871704,0.938983678817749,17.652969360351562
1702137001121532700,2.57553271484375,-0.19417518377304077,0.24989819526672363,12.752388000488281
1702137001138537000,2.592536865234375,1.3706390857696533,-0.4667329788208008,10.763076782226562
1702137001155530200,2.6095302734375,2.8504834175109863,-0.4477663040161133,9.51680850982666
1702137001172524000,2.62652392578125,2.6546366214752197,0.29793453216552734,8.847837448120117
1702137001189511200,2.64351123046875,2.133993148803711,0.802908182144165,8.516336441040039
1702137001206507300,2.66050732421875,1.7273287773132324,1.1441056728363037,6.814252853393555
1702137001223500500,2.67750048828125,1.27721107006073,1.553783655166626,4.233938217163086
1702137001240492800,2.694492919921875,1.130711555480957,1.4554109573364258,3.2785911560058594
1702137001257481500,2.7114814453125,1.7041479349136353,1.767722487449646,3.0605411529541016
1702137001274477300,2.728477294921875,1.62807297706604,1.7212189435958862,3.653249740600586
1702137001291470000,2.745469970703125,0.7068196535110474,1.8861347436904907,4.2845869064331055
1702137001308459500,2.76245947265625,-1.181604027748108,1.9888969659805298,3.3647069931030273
1702137001325453600,2.77945361328125,-1.534149408340454,1.8427411317825317,1.819493293762207
1702137001342448400,2.796448486328125,-0.8041194677352905,1.6001780033111572,0.6930932998657227
1702137001359428900,2.813428955078125,0.011281728744506836,1.250226616859436,0.4066743850708008
1702137001376420400,2.83042041015625,0.7573275566101074,0.8085874319076538,0.922337532043457
1702137001393424600,2.847424560546875,1.1468652486801147,0.5893712043762207,1.5659456253051758
1702137001410414000,2.8644140625,1.9080913066864014,0.5789616107940674,1.2481880187988281
1702137001427408600,2.88140869140625,2.481778621673584,0.3623725175857544,1.2134723663330078
1702137001444398300,2.8983984375,2.723876476287842,0.1898202896118164,1.0672416687011719
1702137001461392000,2.915391845703125,2.825523853302002,0.36459922790527344,0.8083124160766602
1702137001478386400,2.932386474609375,2.4693288803100586,0.45536983013153076,1.3516054153442383
1702137001495367200,2.9493671875,2.020019292831421,0.48778852820396423,2.637465476989746
1702137001512373000,2.966373046875,1.7551230192184448,0.2686217725276947,4.205052375793457
1702137001529357600,2.983357666015625,2.253645181655884,0.20414119958877563,4.888506889343262
1702137001546356700,3.000356689453125,2.602874994277954,0.42291316390037537,4.129673004150391
1702137001563333000,3.0173330078125,2.3288822174072266,0.6437721252441406,4.229147911071777
1702137001580334000,3.034333984375,0.7030377388000488,0.4753504991531372,6.888731956481934
1702137001597337600,3.051337646484375,0.7071948051452637,0.3681882619857788,8.9199857711792
1702137001614326000,3.068325927734375,2.1053807735443115,1.5855780839920044,10.37333869934082
1702137001631316200,3.085316162109375,0.007930278778076172,1.0897610187530518,12.457754135131836
1702137001648310800,3.102310791015625,-3.666168212890625,-0.11890172958374023,9.405705451965332
1702137001665300200,3.11930029296875,-4.67026948928833,0.25449395179748535,3.9539480209350586
1702137001682299100,3.136299072265625,-3.220757484436035,0.6715271472930908,2.468808650970459
1702137001699291000,3.153290771484375,-0.7798690795898438,-0.5413610935211182,2.216188907623291
1702137001716281300,3.17028125,0.9175710678100586,-1.9669554233551025,1.0044403076171875
1702137001733272800,3.18727294921875,1.6780757904052734,-3.986133098602295,-1.1655330657958984
1702137001750266000,3.20426611328125,2.7043099403381348,-5.102482795715332,-4.359291076660156
1702137001767257600,3.221257568359375,4.104819297790527,-5.587278842926025,-6.821493148803711
1702137001784247300,3.238247314453125,4.905705451965332,-5.882663726806641,-8.139387130737305
1702137001801236200,3.255236328125,5.339510440826416,-6.069575309753418,-9.060537338256836
1702137001818236400,3.272236328125,5.874838352203369,-6.213269233703613,-9.17330551147461
1702137001835223600,3.2892236328125,5.976341724395752,-6.564682483673096,-8.005276679992676
1702137001852230100,3.306230224609375,3.4466917514801025,-8.409008979797363,-6.2454938888549805
1702137001869209600,3.323209716796875,4.580976486206055,-8.458097457885742,-6.406928062438965
1702137001886208500,3.34020849609375,2.3438844680786133,-10.035567283630371,-7.7857890129089355
1702137001903197200,3.357197265625,2.243408203125,-9.76551342010498,-8.322294235229492
1702137001920190500,3.3741904296875,3.5965652465820312,-9.331993103027344,-7.869630336761475
1702137001937181700,3.391181640625,4.231265544891357,-10.47732162475586,-7.026228427886963
1702137001954175500,3.408175537109375,4.367276668548584,-10.602027893066406,-7.133028030395508
1702137001971164200,3.4251640625,3.93947172164917,-11.264802932739258,-7.247920036315918
1702137001988162800,3.442162841796875,2.946803092956543,-11.80695915222168,-6.896154880523682
1702137002005141000,3.45914111328125,1.4578970670700073,-13.206849098205566,-4.457328796386719
1702137002022143200,3.476143310546875,0.20792388916015625,-15.218204498291016,-0.839139461517334
1702137002039138600,3.493138671875,-0.589505672454834,-15.90302562713623,1.9991178512573242
1702137002056119800,3.510119873046875,-2.1116204261779785,-16.497770309448242,3.099355697631836
1702137002073121300,3.527121337890625,-4.810523986816406,-17.577003479003906,3.736995220184326
1702137002090114600,3.544114501953125,-5.348210334777832,-19.337732315063477,7.465193748474121
1702137002107106300,3.561106201171875,-3.4302291870117188,-19.693767547607422,14.281362533569336
1702137002124086800,3.578086669921875,-3.231194019317627,-17.69464874267578,19.18743896484375
1702137002141081000,3.5950810546875,-6.826268196105957,-15.682448387145996,20.160926818847656
1702137002158077200,3.6120771484375,-9.03854751586914,-15.2763032913208,22.135879516601562
1702137002175062000,3.62906201171875,-8.482461929321289,-16.702672958374023,27.114261627197266
1702137002192064500,3.646064453125,-5.733407974243164,-17.89759635925293,32.242103576660156
1702137002209055500,3.663055419921875,-4.388909339904785,-17.832172393798828,32.79618835449219
1702137002226049800,3.6800498046875,-2.677727699279785,-17.560199737548828,31.01315689086914
1702137002243037700,3.69703759765625,2.051576614379883,-17.64081573486328,30.509021759033203
1702137002260035000,3.71403515625,6.996710777282715,-16.398334503173828,30.901348114013672
1702137002277023000,3.73102294921875,9.599051475524902,-13.879009246826172,31.14427947998047
1702137002294026200,3.748026123046875,9.823287010192871,-11.937355041503906,31.105051040649414
1702137002311011000,3.765010986328125,10.028867721557617,-12.589582443237305,29.954904556274414
1702137002328000300,3.782000244140625,11.034205436706543,-14.01671028137207,27.03680419921875
1702137002344993000,3.798992919921875,12.70646858215332,-14.54865837097168,22.755346298217773
1702137002361986600,3.815986572265625,15.92593765258789,-13.101289749145508,19.54339027404785
1702137002378976300,3.832976318359375,16.79620361328125,-11.845548629760742,20.838754653930664
1702137002395967000,3.849967041015625,13.045722007751465,-12.975940704345703,25.171245574951172
1702137002412958000,3.8669580078125,8.619714736938477,-14.51445198059082,27.558040618896484
1702137002429956900,3.883956787109375,9.20008373260498,-16.41381072998047,26.27334213256836
1702137002446947600,3.900947509765625,13.981705665588379,-15.461024284362793,20.222721099853516
1702137002463951000,3.917951171875,17.763355255126953,-13.377346992492676,14.79513168334961
1702137002480939800,3.934939697265625,18.321800231933594,-11.349982261657715,13.083364486694336
1702137002497931300,3.95193115234375,16.35917091369629,-10.466133117675781,13.585626602172852
1702137002514926300,3.96892626953125,13.10548210144043,-9.660701751708984,15.617000579833984
1702137002531915500,3.98591552734375,10.27181339263916,-8.956804275512695,15.464927673339844
1702137002548912000,4.002912109375,9.507606506347656,-9.200037956237793,14.259608268737793
1702137002565902600,4.019902587890625,10.23186206817627,-10.701337814331055,15.320479393005371
1702137002582894300,4.036894287109375,10.273688316345215,-11.683063507080078,15.867429733276367
1702137002599885000,4.053885009765625,6.288296222686768,-9.889193534851074,16.701045989990234
1702137002616881700,4.070881591796875,-0.16050583124160767,-7.8434014320373535,17.88051986694336
1702137002633873000,4.087872802734375,-6.756168842315674,-9.041288375854492,20.55795669555664
1702137002650863900,4.10486376953125,-6.620166778564453,-12.409574508666992,21.281169891357422
1702137002667857400,4.121857421875,-1.8063002824783325,-14.756650924682617,18.288715362548828
1702137002684848600,4.1388486328125,3.6547975540161133,-14.317037582397461,15.410454750061035
1702137002701842400,4.155842529296875,6.364165306091309,-11.346536636352539,13.62745189666748
1702137002718830000,4.172830078125,5.026849746704102,-8.15246295928955,13.665409088134766
1702137002735827200,4.1898271484375,-0.5472164154052734,-5.96013069152832,15.719684600830078
1702137002752808000,4.206807861328125,-6.696779251098633,-6.126784801483154,16.663368225097656
1702137002769812000,4.22381201171875,-6.445406913757324,-7.411163806915283,13.867130279541016
1702137002786803500,4.240803466796875,-2.449333667755127,-9.131550788879395,10.474481582641602
1702137002803796000,4.2577958984375,1.0642900466918945,-10.784659385681152,9.28073501586914
1702137002820788000,4.2747880859375,3.56773042678833,-12.347347259521484,9.444164276123047
1702137002837779500,4.291779541015625,5.160844326019287,-14.536905288696289,9.3443021774292
1702137002854775300,4.308775390625,9.013708114624023,-13.434048652648926,8.344533920288086
1702137002871758300,4.32575830078125,9.928047180175781,-12.770967483520508,7.7814435958862305
1702137002888756200,4.342756103515625,7.061811447143555,-12.704771041870117,7.186993598937988
1702137002905751300,4.359751220703125,5.197353363037109,-12.540547370910645,5.059634208679199
1702137002922743000,4.376742919921875,6.985198497772217,-11.110053062438965,4.002363204956055
1702137002939736600,4.393736572265625,9.626080513000488,-12.276679992675781,8.25428295135498
1702137002956717000,4.410717041015625,8.402193069458008,-12.704788208007812,12.531583786010742
1702137002973721300,4.427721435546875,2.8827033042907715,-11.421792030334473,12.593255996704102
1702137002990712000,4.444712158203125,1.895461916923523,-10.730279922485352,12.926046371459961
1702137003007699000,4.461698974609375,4.8356146812438965,-11.108675956726074,16.475780487060547
1702137003024709000,4.478709228515625,3.9807188510894775,-11.786358833312988,18.305099487304688
1702137003041688800,4.495688720703125,-1.7292673587799072,-13.81389331817627,18.34911346435547
1702137003058684400,4.512684326171875,-3.948503017425537,-17.05219268798828,18.874425888061523
1702137003075667200,4.529667236328125,1.001936912536621,-18.40349006652832,20.591405868530273
1702137003092667000,4.5466669921875,4.499141693115234,-17.377986907958984,25.40240478515625
1702137003109660400,4.563660400390625,1.633669137954712,-15.72138786315918,31.180883407592773
1702137003126654500,4.580654541015625,-4.482213497161865,-16.39761734008789,34.67909240722656
1702137003143645400,4.5976455078125,-4.338881492614746,-21.481353759765625,38.07366180419922
1702137003160636700,4.61463671875,2.721167802810669,-28.875131607055664,43.52129364013672
1702137003177630500,4.63163037109375,11.17015552520752,-34.53853225708008,47.768218994140625
1702137003194621700,4.64862158203125,17.943096160888672,-33.75361251831055,47.92768096923828
1702137003211604500,4.6656044921875,18.206890106201172,-33.533302307128906,47.30689239501953
1702137003228606500,4.6826064453125,16.851110458374023,-35.89617156982422,42.2598762512207
1702137003245599700,4.699599853515625,18.730436325073242,-39.41193771362305,33.22271728515625
1702137003262583000,4.7165830078125,21.70901870727539,-39.46508026123047,22.374797821044922
1702137003279589400,4.73358935546875,24.21829605102539,-37.07404327392578,15.340516090393066
1702137003296574500,4.750574462890625,23.513460159301758,-33.26555633544922,12.363397598266602
1702137003313571300,4.7675712890625,19.210731506347656,-29.53710174560547,14.166057586669922
1702137003330561000,4.78456103515625,13.798721313476562,-27.037425994873047,15.38230037689209
1702137003347554600,4.801554443359375,9.15078353881836,-24.53758430480957,14.629203796386719
1702137003364545800,4.8185458984375,4.791319847106934,-22.103309631347656,12.353029251098633
1702137003381536800,4.835536865234375,2.2931346893310547,-20.657974243164062,9.909743309020996
1702137003398533400,4.852533447265625,2.24057674407959,-18.730493545532227,9.079569816589355
1702137003415524400,4.8695244140625,2.7017107009887695,-17.092876434326172,9.480831146240234
1702137003432515800,4.886515869140625,2.7518482208251953,-15.735071182250977,9.510916709899902
1702137003449506600,4.903506591796875,2.7819604873657227,-13.765362739562988,8.160562515258789
1702137003466503200,4.920503173828125,2.183971405029297,-13.518634796142578,8.71005630493164
1702137003483481900,4.93748193359375,1.2931575775146484,-12.85289192199707,9.655360221862793
1702137003500475000,4.954474853515625,1.2149662971496582,-12.02033805847168,10.874187469482422
1702137003517479000,4.97147900390625,2.461437463760376,-12.377142906188965,13.70001220703125
1702137003534459600,4.988459716796875,5.132255554199219,-13.34737777709961,14.823015213012695
1702137003551463400,5.00546337890625,7.699079513549805,-14.682273864746094,15.170132637023926
1702137003568455000,5.022454833984375,8.252923011779785,-16.263347625732422,15.777998924255371
1702137003585451300,5.039451171875,7.728360652923584,-17.53367042541504,17.046588897705078
1702137003602437600,5.056437744140625,7.608483791351318,-18.773069381713867,20.461267471313477
1702137003619423200,5.07342333984375,7.255189895629883,-19.30029296875,22.701133728027344
1702137003636424700,5.0904248046875,5.584118843078613,-20.61336898803711,22.266761779785156
1702137003653412000,5.107412109375,4.756538391113281,-23.289413452148438,20.238723754882812
1702137003670404000,5.124404052734375,5.988400936126709,-26.830528259277344,20.53683853149414
1702137003687414800,5.141414794921875,7.307476043701172,-30.422460556030273,25.00806427001953
1702137003704394800,5.158394775390625,5.685471534729004,-30.57608413696289,29.01302719116211
1702137003721387500,5.175387451171875,5.613649368286133,-29.44963264465332,27.221328735351562
1702137003738379300,5.192379150390625,5.90946626663208,-28.246673583984375,24.659109115600586
1702137003755362300,5.2093623046875,3.974949598312378,-30.713977813720703,26.580623626708984
1702137003772353500,5.226353515625,4.493556499481201,-33.16489028930664,27.339420318603516
1702137003789355000,5.24335498046875,11.723960876464844,-31.060237884521484,31.568578720092773
1702137003806351400,5.260351318359375,13.863886833190918,-25.906949996948242,34.116886138916016
1702137003823345000,5.277344970703125,6.530063629150391,-22.11132049560547,33.067142486572266
1702137003840334000,5.294333984375,2.070006847381592,-19.604326248168945,26.888500213623047
1702137003857324800,5.31132470703125,8.2900390625,-16.057771682739258,23.868358612060547
1702137003874321400,5.3283212890625,12.645331382751465,-15.063743591308594,30.24075698852539
1702137003891311900,5.345311767578125,8.616290092468262,-11.920635223388672,31.476905822753906
1702137003908298500,5.362298583984375,2.477546215057373,-8.39773178100586,24.097248077392578
1702137003925297000,5.379296875,2.83301043510437,-6.120972633361816,22.105392456054688
1702137003942285600,5.39628564453125,4.3668012619018555,-3.9018988609313965,23.493728637695312
1702137003959282000,5.413281982421875,3.0083730220794678,-2.6619138717651367,25.46292495727539
1702137003976270600,5.4302705078125,1.2066524028778076,-0.34779325127601624,22.648883819580078
1702137003993269500,5.44726953125,2.166653871536255,1.3433637619018555,18.955915451049805
1702137004010258000,5.4642578125,5.002875328063965,2.0735301971435547,17.696054458618164
1702137004027251500,5.48125146484375,6.125185966491699,2.5244054794311523,16.86294174194336
1702137004044243000,5.498242919921875,3.7887606620788574,2.8596043586730957,15.46265983581543
1702137004061236500,5.515236572265625,0.7972309589385986,3.4129393100738525,14.187460899353027
1702137004078227700,5.532227783203125,-0.4358144998550415,3.123013973236084,12.508736610412598
1702137004095207400,5.54920751953125,0.8495893478393555,2.5581204891204834,9.885331153869629
1702137004112210000,5.5662099609375,2.9241018295288086,1.4681484699249268,6.9851226806640625
1702137004129208300,5.583208251953125,3.1861424446105957,0.6728338003158569,4.801187515258789
1702137004146197500,5.600197509765625,1.593435525894165,-0.5406150817871094,3.813218116760254
1702137004163191000,5.61719091796875,0.3679623603820801,-1.1368024349212646,3.0848045349121094
1702137004180182300,5.634182373046875,0.8258059024810791,-1.5086047649383545,2.5930395126342773
1702137004197175800,5.65117578125,1.701836347579956,-1.9759374856948853,2.3985462188720703
1702137004214167000,5.6681669921875,3.231576442718506,-2.3629651069641113,1.8225221633911133
1702137004231158000,5.685157958984375,3.9676389694213867,-2.8660104274749756,1.111893653869629
1702137004248154600,5.702154541015625,3.3881473541259766,-3.360572338104248,0.1750469207763672
1702137004265145900,5.719145751953125,2.4640798568725586,-3.6082921028137207,-0.2521657943725586
1702137004282136800,5.73613671875,1.6598083972930908,-3.570434093475342,-0.2613811492919922
1702137004299130000,5.753130126953125,1.7975777387619019,-3.0572028160095215,0.001514434814453125
1702137004316111400,5.770111328125,2.740116834640503,-2.5031285285949707,-0.041072845458984375
1702137004333115400,5.787115478515625,3.7401976585388184,-2.038501024246216,-0.31142139434814453
1702137004350106400,5.8041064453125,4.576228141784668,-2.1132311820983887,-0.11600685119628906
1702137004367100200,5.82110009765625,4.754854202270508,-2.1564719676971436,0.047974586486816406
1702137004384091400,5.83809130859375,4.50698709487915,-1.8872973918914795,0.9295988082885742
1702137004401069000,5.855069091796875,3.9360885620117188,-0.6422088742256165,2.9025583267211914
1702137004418073600,5.872073486328125,2.543611764907837,-0.0910920724272728,4.939357757568359
1702137004435061800,5.889061767578125,2.160632371902466,0.5026758909225464,4.933750152587891
1702137004452061200,5.906061279296875,2.4476757049560547,1.2246102094650269,3.871699333190918
1702137004469054500,5.923054443359375,2.1519508361816406,1.5107064247131348,3.5778656005859375
1702137004486046000,5.9400458984375,-0.3485555648803711,1.1820226907730103,3.399907112121582
1702137004503039500,5.95703955078125,-2.7226903438568115,1.0946608781814575,3.7843971252441406
1702137004520031000,5.974031005859375,-3.2794032096862793,1.8984370231628418,3.4692554473876953
1702137004537024300,5.991024169921875,-4.552068710327148,2.1346566677093506,3.4331016540527344
1702137004554015500,6.008015380859375,-4.3699259757995605,2.319345474243164,3.5972213745117188
1702137004571007500,6.025007568359375,-3.545807361602783,2.530250310897827,3.680479049682617
1702137004587997200,6.0419970703125,-2.6833858489990234,3.114224433898926,3.886678695678711
1702137004604991700,6.05899169921875,-2.4521610736846924,2.926699161529541,4.2059783935546875
1702137004621987600,6.075987548828125,-1.5984418392181396,2.5441861152648926,4.9929094314575195
1702137004638979000,6.09297900390625,-1.4278898239135742,2.285175323486328,4.372249126434326
1702137004655971300,6.109971435546875,-1.9344182014465332,2.0937142372131348,1.6354951858520508
1702137004672963600,6.126963623046875,-2.7769575119018555,0.38282251358032227,-0.691978931427002
1702137004689954800,6.143954833984375,-1.6131219863891602,-1.665501594543457,-2.823415756225586
1702137004706948400,6.1609482421875,0.09768104553222656,-3.3552134037017822,-4.978348731994629
1702137004723939800,6.17793994140625,1.3624300956726074,-4.567957878112793,-6.813992023468018
1702137004740933400,6.194933349609375,2.2027416229248047,-5.554924964904785,-8.027304649353027
1702137004757924900,6.2119248046875,2.5532116889953613,-6.125395774841309,-8.996286392211914
1702137004774907600,6.22890771484375,2.116933584213257,-6.509113311767578,-9.410109519958496
1702137004791907000,6.245906982421875,1.824796438217163,-6.620380878448486,-9.463775634765625
1702137004808904400,6.262904541015625,1.2584385871887207,-6.955555438995361,-9.065839767456055
1702137004825882600,6.279882568359375,1.5028340816497803,-7.528261184692383,-8.704133033752441
1702137004842890500,6.296890380859375,0.6558818817138672,-7.868698596954346,-8.433789253234863
1702137004859879400,6.31387939453125,1.9597320556640625,-8.606185913085938,-8.377942085266113
1702137004876862500,6.330862548828125,3.090604782104492,-9.432718276977539,-8.471967697143555
1702137004893864400,6.347864501953125,3.099202871322632,-9.830036163330078,-8.438987731933594
1702137004910856000,6.36485595703125,1.9302924871444702,-10.203904151916504,-7.75813627243042
1702137004927855600,6.381855712890625,0.7479643821716309,-10.416122436523438,-6.803297996520996
1702137004944842500,6.398842529296875,1.0771127939224243,-11.49448013305664,-4.981118679046631
1702137004961833500,6.41583349609375,0.9611105918884277,-12.639518737792969,-4.78456449508667
1702137004978827800,6.432827880859375,0.016150712966918945,-13.554698944091797,-4.4549560546875
1702137004995818800,6.44981884765625,0.3623294532299042,-15.377798080444336,-2.279142379760742
1702137005012812300,6.466812255859375,1.1995325088500977,-16.77789878845215,1.0352363586425781
1702137005029811700,6.483811767578125,-0.1755700707435608,-17.364084243774414,5.051599025726318
1702137005046794500,6.50079443359375,-3.5174708366394043,-17.875333786010742,7.998070240020752
1702137005063785500,6.517785400390625,-4.993544578552246,-18.6954402923584,12.023435592651367
1702137005080781800,6.53478173828125,-3.3830184936523438,-19.004722595214844,17.189613342285156
1702137005097773300,6.551773193359375,-2.8647308349609375,-17.50634765625,21.22385025024414
1702137005114766600,6.5687666015625,-6.0161542892456055,-15.3915433883667,22.665531158447266
1702137005131755800,6.585755859375,-10.35512638092041,-15.0899658203125,24.609535217285156
1702137005148754000,6.60275390625,-10.486921310424805,-17.017290115356445,29.8322696685791
1702137005165743000,6.6197431640625,-7.232857704162598,-17.99486541748047,34.029441833496094
1702137005182733800,6.63673388671875,-3.3194210529327393,-17.073793411254883,34.31150817871094
1702137005199730700,6.653730712890625,-0.47549575567245483,-15.026642799377441,32.863685607910156
1702137005216721200,6.67072119140625,1.786988377571106,-13.460200309753418,32.68061065673828
1702137005233712600,6.687712646484375,3.336229085922241,-12.781679153442383,33.450531005859375
1702137005250706000,6.704705810546875,4.107075214385986,-12.581888198852539,33.94270324707031
1702137005267679500,6.721679443359375,5.848458290100098,-12.952190399169922,33.65718078613281
1702137005284688400,6.7386884765625,8.650426864624023,-13.744595527648926,32.972137451171875
1702137005301684700,6.755684814453125,11.34705924987793,-14.921917915344238,31.777137756347656
1702137005318676000,6.772676025390625,12.022663116455078,-16.871021270751953,29.046363830566406
1702137005335665000,6.789664794921875,11.57319450378418,-19.09237289428711,24.984050750732422
1702137005352662800,6.806662841796875,11.36828327178955,-20.74589729309082,19.898193359375
1702137005369652200,6.82365234375,12.968076705932617,-20.69847297668457,15.441901206970215
1702137005386645500,6.8406455078125,14.288530349731445,-20.191408157348633,13.599530220031738
1702137005403639300,6.857639404296875,14.323314666748047,-19.167858123779297,13.336262702941895
1702137005420630000,6.874630126953125,12.357630729675293,-18.915653228759766,14.864404678344727
1702137005437621800,6.891621826171875,10.357027053833008,-17.97087287902832,15.746932983398438
1702137005454615000,6.908614990234375,9.54686450958252,-16.395816802978516,15.134963035583496
1702137005471596000,6.925595947265625,9.780475616455078,-14.907085418701172,13.930171012878418
1702137005488597500,6.942597412109375,10.395980834960938,-12.827488899230957,10.950243949890137
1702137005505592000,6.959592041015625,10.287275314331055,-11.436323165893555,9.242324829101562
1702137005522586600,6.976586669921875,8.75161361694336,-10.987977027893066,8.493457794189453
1702137005539576300,6.993576416015625,7.128292083740234,-10.94996452331543,10.09078598022461
1702137005556569600,7.010569580078125,4.380983352661133,-12.130046844482422,13.436139106750488
1702137005573560800,7.027560791015625,3.1289784908294678,-13.136478424072266,14.696102142333984
1702137005590554400,7.044554443359375,2.7754933834075928,-13.900653839111328,14.710395812988281
1702137005607545600,7.061545654296875,2.186938762664795,-14.678329467773438,14.306403160095215
1702137005624539400,7.078539306640625,2.3338849544525146,-14.710813522338867,13.82336139678955
1702137005641518300,7.095518310546875,2.183793544769287,-13.93587875366211,13.521930694580078
1702137005658514000,7.112513916015625,0.9078404903411865,-13.85114574432373,14.372602462768555
1702137005675509200,7.12950927734375,0.12761342525482178,-13.280391693115234,14.621626853942871
1702137005692502500,7.14650244140625,0.1742415428161621,-12.97976016998291,13.910215377807617
1702137005709492200,7.1634921875,0.8152205944061279,-12.103365898132324,11.874394416809082
1702137005726484700,7.180484619140625,1.1662235260009766,-10.72736930847168,9.236056327819824
1702137005743476000,7.19747607421875,0.7914209365844727,-9.585151672363281,6.521597862243652
1702137005760481500,7.2144814453125,2.0347084999084473,-7.8187360763549805,4.458759784698486
1702137005777470200,7.23147021484375,3.634124279022217,-6.498917102813721,3.5831236839294434
1702137005794461400,7.24846142578125,4.924782752990723,-6.366074085235596,4.380297660827637
1702137005811457300,7.265457275390625,6.077521324157715,-8.111177444458008,6.061387062072754
1702137005828448300,7.2824482421875,6.344112396240234,-9.845966339111328,6.8293962478637695
1702137005845439700,7.299439697265625,7.258810043334961,-10.093805313110352,6.904055118560791
1702137005862433000,7.31643310546875,9.419575691223145,-11.315987586975098,10.670127868652344
1702137005879415600,7.33341552734375,10.786649703979492,-11.459600448608398,12.552343368530273
1702137005896415500,7.35041552734375,8.627504348754883,-12.557893753051758,10.300467491149902
1702137005913412000,7.367412109375,4.921501159667969,-13.37795639038086,5.083232879638672
1702137005930402800,7.38440283203125,4.153298854827881,-14.439252853393555,3.440060615539551
1702137005947394600,7.40139453125,7.280477523803711,-15.636245727539062,6.199475288391113
1702137005964379600,7.418379638671875,8.10096549987793,-15.5455322265625,10.325757026672363
1702137005981379000,7.435379150390625,6.337162494659424,-17.603546142578125,15.210647583007812
1702137005998372600,7.45237255859375,7.40587854385376,-19.93801498413086,18.273893356323242
1702137006015353300,7.469353271484375,11.252384185791016,-19.185943603515625,19.228193283081055
1702137006032355800,7.48635595703125,12.190364837646484,-17.594478607177734,22.53766632080078
1702137006049350400,7.503350341796875,8.64036750793457,-15.917719841003418,26.723369598388672
1702137006066342100,7.520342041015625,2.1266942024230957,-16.352685928344727,31.43819808959961
1702137006083331000,7.5373310546875,-0.12262725830078125,-18.28639793395996,34.647647857666016
1702137006100329700,7.554329833984375,3.310697078704834,-21.36347007751465,38.98130416870117
1702137006117318700,7.571318603515625,7.614938259124756,-25.046558380126953,41.5452766418457
1702137006134312000,7.58831201171875,11.119807243347168,-27.937965393066406,42.189300537109375
1702137006151292700,7.605292724609375,13.262517929077148,-31.532848358154297,42.35838317871094
1702137006168295200,7.622295166015625,15.562349319458008,-33.06835174560547,42.25165557861328
1702137006185278000,7.63927783203125,16.71548843383789,-32.096126556396484,40.59328842163086
1702137006202274800,7.65627490234375,17.112245559692383,-30.804462432861328,35.827308654785156
1702137006219275300,7.673275146484375,17.103132247924805,-29.7989559173584,31.384109497070312
1702137006236266200,7.690266357421875,16.459278106689453,-29.248767852783203,29.28023910522461
1702137006253257700,7.7072578125,15.08215618133545,-30.076568603515625,28.206798553466797
1702137006270251300,7.724251220703125,12.644037246704102,-31.197864532470703,25.519941329956055
1702137006287232300,7.741232177734375,10.526687622070312,-31.209514617919922,20.7767276763916
1702137006304225300,7.758225341796875,8.78968620300293,-27.88829231262207,16.536901473999023
1702137006321227500,7.7752275390625,6.854995250701904,-23.097003936767578,14.1493501663208
1702137006338221000,7.792220947265625,4.0094451904296875,-20.57084083557129,12.502795219421387
1702137006355216100,7.809216064453125,1.6180200576782227,-17.814416885375977,11.18631362915039
1702137006372205600,7.82620556640625,0.4160928726196289,-16.75438690185547,10.948890686035156
1702137006389196800,7.84319677734375,0.4908905029296875,-14.336555480957031,8.78312873840332
1702137006406190600,7.860190673828125,1.0822811126708984,-12.232483863830566,8.457276344299316
1702137006423182000,7.87718212890625,0.6604351997375488,-11.21021842956543,9.928102493286133
1702137006440175400,7.89417529296875,-0.5747714042663574,-12.396330833435059,10.69076919555664
1702137006457166800,7.911166748046875,-1.1165471076965332,-12.66226863861084,9.448481559753418
1702137006474160400,7.928160400390625,-0.9333503246307373,-11.768686294555664,8.236170768737793
1702137006491138800,7.945138916015625,0.16976523399353027,-11.356924057006836,8.978020668029785
1702137006508136000,7.962135986328125,1.9379205703735352,-11.777499198913574,10.795612335205078
1702137006525129500,7.97912939453125,4.13270378112793,-14.229816436767578,14.847553253173828
1702137006542122000,7.9961220703125,6.739225387573242,-15.985345840454102,17.234806060791016
1702137006559111000,8.01311083984375,8.916250228881836,-16.651609420776367,17.89957046508789
1702137006576104200,8.030104248046875,10.273458480834961,-17.67247200012207,19.092288970947266
1702137006593098800,8.0470986328125,9.637587547302246,-18.953279495239258,20.672367095947266
1702137006610092300,8.06409228515625,6.98037576675415,-21.32107162475586,23.91825294494629
1702137006627081500,8.08108154296875,5.007271766662598,-22.70747184753418,26.29143524169922
1702137006644074800,8.09807470703125,2.827509641647339,-25.173118591308594,27.231550216674805
1702137006661067800,8.11506787109375,2.136899471282959,-27.852771759033203,27.023181915283203
1702137006678062300,8.132062255859376,3.1477556228637695,-28.233383178710938,26.209747314453125
1702137006695049200,8.14904931640625,2.2122411727905273,-30.83696746826172,29.029146194458008
1702137006712045000,8.166045166015625,1.7175612449645996,-31.43735694885254,30.35479164123535
1702137006729037800,8.183037841796875,2.678325891494751,-31.777206420898438,29.57192039489746
1702137006746025000,8.20002490234375,4.895472526550293,-32.46296691894531,27.82493782043457
1702137006763025700,8.217025634765625,9.637615203857422,-31.5408935546875,27.716270446777344
1702137006780021500,8.234021484375,11.0132417678833,-32.6928825378418,36.035972595214844
1702137006797015300,8.251015380859375,10.87387752532959,-26.699369430541992,40.14262771606445
1702137006814008800,8.2680087890625,7.135024070739746,-19.956327438354492,36.27190399169922
1702137006830997000,8.2849970703125,1.9809181690216064,-16.15972137451172,33.56330871582031
1702137006848001800,8.302001708984376,-1.9168864488601685,-15.317465782165527,31.39540672302246
1702137006864984800,8.31898486328125,-1.071518063545227,-14.04603099822998,27.995716094970703
1702137006881967600,8.335967529296875,3.8066904544830322,-11.39645004272461,26.5516357421875
1702137006898969900,8.352969970703125,5.580781936645508,-9.264066696166992,27.67632293701172
1702137006915971000,8.36997119140625,3.4893603324890137,-7.533669948577881,28.426618576049805
1702137006932954400,8.386954345703124,0.23455798625946045,-5.55885648727417,23.638301849365234
1702137006949948000,8.403947998046876,3.125425338745117,-1.952186107635498,19.88141441345215
1702137006966939600,8.420939697265625,4.503231048583984,-1.1779276132583618,23.816242218017578
1702137006983933400,8.437933349609375,3.189894199371338,0.7770135402679443,24.370868682861328
1702137007000924200,8.454924072265625,1.0490549802780151,1.7275478839874268,19.28017234802246
1702137007017917700,8.471917724609375,4.263779640197754,2.813347339630127,12.557360649108887
1702137007034898400,8.4888984375,7.714920520782471,3.222165107727051,12.003556251525879
1702137007051900000,8.50589990234375,6.402676582336426,3.7263245582580566,13.639481544494629
1702137007068896500,8.522896484375,1.6450947523117065,3.8111929893493652,13.338143348693848
1702137007085887200,8.53988720703125,-2.360161781311035,3.7070090770721436,11.154252052307129
1702137007102877000,8.556876953125,-2.5498831272125244,3.0865001678466797,8.367011070251465
1702137007119873800,8.573873779296875,0.034831106662750244,2.123321533203125,5.304177284240723
1702137007136866800,8.59086669921875,2.9262075424194336,1.5042304992675781,2.8433456420898438
1702137007153856800,8.607856689453126,3.392216682434082,1.0940732955932617,1.6554393768310547
1702137007170848000,8.624847900390625,2.433104991912842,0.40314674377441406,1.4580717086791992
1702137007187846400,8.641846435546874,1.4015657901763916,-0.12193655967712402,1.5431747436523438
1702137007204830700,8.658830810546876,1.8723974227905273,-0.22752809524536133,1.7735595703125
1702137007221828900,8.675828857421875,2.372333526611328,-0.4432365894317627,1.7137937545776367
1702137007238818000,8.692818115234376,3.1391761302948,-0.29315853118896484,0.839259147644043
1702137007255811600,8.7098115234375,2.892742156982422,-0.9418866634368896,0.6188192367553711
1702137007272786400,8.726786376953125,3.0327248573303223,-1.6766157150268555,0.4772825241088867
1702137007289796000,8.743796142578125,3.3916893005371094,-2.2983782291412354,0.41810035705566406
1702137007306787600,8.76078759765625,3.4550461769104004,-2.9106597900390625,0.6498136520385742
1702137007323769600,8.77776953125,3.633281707763672,-3.180424690246582,0.49234485626220703
1702137007340768500,8.7947685546875,3.6929097175598145,-3.300232410430908,-0.4744892120361328
1702137007357752800,8.8117529296875,3.7363228797912598,-3.6387815475463867,-0.8363008499145508
1702137007374760000,8.828760009765626,3.8903121948242188,-3.6499502658843994,-1.0041961669921875
1702137007391747800,8.845747802734374,3.956590414047241,-3.911224603652954,-0.9221267700195312
1702137007408744700,8.86274462890625,3.7197020053863525,-4.176077842712402,-1.1982622146606445
1702137007425725200,8.87972509765625,3.499401330947876,-4.502633571624756,-1.7308549880981445
1702137007442727200,8.89672705078125,3.477661609649658,-4.5899763107299805,-2.3934078216552734
1702137007459720700,8.913720703125,3.8347160816192627,-4.57330846786499,-2.7470006942749023
1702137007476711700,8.930711669921875,4.084231376647949,-4.565662384033203,-2.4045495986938477
1702137007493705500,8.94770556640625,3.9719104766845703,-4.793665885925293,-1.8573741912841797
1702137007510696400,8.964696533203124,3.575251340866089,-4.802734851837158,-1.8167510032653809
1702137007527690000,8.98168994140625,3.2223405838012695,-4.571130752563477,-2.358464241027832
1702137007544681500,8.998681396484375,2.6270084381103516,-3.9790711402893066,-2.9726781845092773
1702137007561675000,9.015675048828125,1.8406665325164795,-3.5753965377807617,-2.848726749420166
1702137007578666200,9.032666259765625,1.9527802467346191,-3.2420670986175537,-1.9258317947387695
1702137007595659800,9.04965966796875,2.532365083694458,-3.200803279876709,-0.5277585983276367
1702137007612636700,9.06663671875,2.90375018119812,-2.5740344524383545,-0.10668182373046875
1702137007629642000,9.08364208984375,1.8636200428009033,-1.9365580081939697,-0.10317420959472656
1702137007646638300,9.100638427734374,0.3289797306060791,-1.418323040008545,-0.44646739959716797
1702137007663629300,9.11762939453125,-0.23113203048706055,-0.996106743812561,-0.3350820541381836
1702137007680620800,9.134620849609375,-0.06849408149719238,-0.7472051382064819,0.5960407257080078
1702137007697627400,9.15162744140625,0.7655965089797974,-0.27472126483917236,2.104837417602539
1702137007714605800,9.168605712890624,1.4036895036697388,0.87725830078125,3.740891456604004
1702137007731599000,9.18559912109375,0.7450149059295654,2.1737959384918213,4.975910186767578
1702137007748594400,9.202594482421874,-1.3252549171447754,3.757694959640503,5.9884033203125
1702137007765585200,9.219585205078126,-3.3237204551696777,5.339225769042969,6.999382019042969
1702137007782575000,9.2365751953125,-4.523062705993652,6.746321678161621,7.042448997497559
1702137007799561700,9.253561767578125,-3.6149659156799316,7.885831356048584,7.814902305603027
1702137007816560000,9.27056005859375,-2.772559404373169,8.757068634033203,9.579251289367676
1702137007833553400,9.287553466796876,-3.3028512001037598,9.072975158691406,11.533512115478516
1702137007850543900,9.3045439453125,-5.498674392700195,9.050654411315918,12.65113353729248
1702137007867539700,9.321539794921875,-5.4283576011657715,8.101987838745117,12.036064147949219
1702137007884529700,9.33852978515625,-2.6005544662475586,6.522223472595215,10.182604789733887
1702137007901523700,9.355523681640625,0.3437063694000244,4.526529312133789,7.724580764770508
1702137007918514400,9.372514404296876,1.9290847778320312,2.2504773139953613,5.589045524597168
1702137007935504100,9.389504150390625,2.0408082008361816,-0.46056079864501953,3.2259387969970703
1702137007952501500,9.40650146484375,1.978670597076416,-3.123049259185791,0.2989339828491211
1702137007969494800,9.423494873046875,2.1532418727874756,-5.110994338989258,-2.465871572494507
1702137007986484500,9.440484375,3.3872628211975098,-6.536439418792725,-4.088449478149414
1702137008003477800,9.457477783203124,5.395095348358154,-7.423645973205566,-5.32842493057251
1702137008020469000,9.474468994140626,7.141481399536133,-7.884832382202148,-6.8367204666137695
1702137008037462500,9.491462646484376,7.581178188323975,-7.937378883361816,-8.117124557495117
1702137008054453800,9.508453857421875,7.055110454559326,-7.732924938201904,-8.521865844726562
1702137008071447300,9.525447265625,5.653532028198242,-7.656569480895996,-7.929204940795898
1702137008088439000,9.54243896484375,3.8580985069274902,-7.811146259307861,-7.001791000366211
1702137008105427000,9.559427001953125,2.110568046569824,-7.816348075866699,-6.35960054397583
1702137008122423300,9.57642333984375,2.607847213745117,-8.027904510498047,-6.6061859130859375
1702137008139417000,9.5934169921875,4.299966812133789,-8.038886070251465,-7.937771797180176
1702137008156398000,9.610398193359375,5.618100166320801,-8.288052558898926,-8.890713691711426
1702137008173401900,9.62740185546875,5.860740661621094,-8.628719329833984,-8.880782127380371
1702137008190393000,9.64439306640625,4.9842729568481445,-8.975565910339355,-8.36479377746582
1702137008207376100,9.661376220703126,4.060924530029297,-9.463384628295898,-7.617286205291748
1702137008224378000,9.678378173828126,3.5388686656951904,-10.133034706115723,-6.557263374328613
1702137008241369300,9.695369384765625,3.421315908432007,-11.071170806884766,-5.626612663269043
1702137008258365000,9.712364990234375,3.244083881378174,-12.213754653930664,-4.748857498168945
1702137008275346400,9.729346435546875,3.1716792583465576,-14.06892204284668,-4.496401309967041
1702137008292347600,9.74634765625,3.585238456726074,-16.14459991455078,-4.542380332946777
1702137008309337900,9.763337890625,4.140483379364014,-18.73187255859375,-2.9439306259155273
1702137008326335700,9.780335693359374,3.770580291748047,-21.285634994506836,0.6908402442932129
1702137008343326200,9.797326171875,3.414058208465576,-23.190223693847656,6.10322380065918
1702137008360317400,9.8143173828125,3.509132146835327,-23.09375762939453,11.105244636535645
1702137008377311000,9.83131103515625,0.4974966049194336,-22.510902404785156,13.617839813232422
1702137008394302200,9.84830224609375,-1.1608445644378662,-22.37714195251465,16.080791473388672
1702137008411298300,9.86529833984375,0.6068401336669922,-22.74893569946289,23.140060424804688
1702137008428284400,9.882284423828125,-0.8070902824401855,-20.546377182006836,31.614028930664062
1702137008445280500,9.899280517578125,-8.165679931640625,-17.20102882385254,34.103302001953125
1702137008462269200,9.916269287109374,-11.117844581604004,-18.128881454467773,35.55653381347656
1702137008479257300,9.93325732421875,-5.338862419128418,-20.697589874267578,37.34334945678711
1702137008496256800,9.9502568359375,1.8568692207336426,-20.840362548828125,37.334205627441406
1702137008513250000,9.96725,5.590320587158203,-18.5032958984375,36.91526794433594
1702137008530241300,9.9842412109375,6.212357521057129,-15.362025260925293,36.44775390625
1702137008547232500,10.001232421875,5.53776216506958,-13.406987190246582,36.97029113769531
1702137008564228600,10.018228515625,5.907932281494141,-13.872796058654785,37.267704010009766
1702137008581219600,10.035219482421875,8.35930347442627,-15.42418098449707,35.80241394042969
1702137008598206000,10.0522060546875,11.162148475646973,-17.933252334594727,32.377685546875
1702137008615207000,10.06920703125,14.282763481140137,-19.722511291503906,27.705026626586914
1702137008632196000,10.086196044921875,16.263113021850586,-20.439678192138672,23.731658935546875
1702137008649189400,10.103189453125,16.131423950195312,-20.713991165161133,22.3389892578125
1702137008666172700,10.120172607421875,14.211928367614746,-20.303998947143555,19.977474212646484
1702137008683174100,10.137174072265625,11.919893264770508,-19.152326583862305,17.472646713256836
1702137008700164900,10.154164794921876,11.651341438293457,-17.830490112304688,15.492158889770508
1702137008717160000,10.171159912109376,13.376542091369629,-17.585277557373047,15.243879318237305
1702137008734150100,10.188150146484375,14.11234188079834,-16.652013778686523,14.15080451965332
1702137008751141400,10.205141357421875,12.306288719177246,-14.489046096801758,13.256710052490234
1702137008768127500,10.22212744140625,9.866360664367676,-11.306632041931152,10.09910774230957
1702137008785124400,10.239124267578125,8.023237228393555,-9.533884048461914,8.715291976928711
1702137008802124500,10.25612451171875,7.308653831481934,-8.707782745361328,9.035900115966797
1702137008819113500,10.273113525390626,5.624135971069336,-9.644085884094238,11.245573043823242
1702137008836095200,10.29009521484375,3.5828821659088135,-11.434725761413574,13.36871337890625
1702137008853097500,10.307097412109375,3.7317965030670166,-12.751239776611328,13.713544845581055
1702137008870089700,10.32408984375,4.139125823974609,-13.94012451171875,15.329299926757812
1702137008887083000,10.3410830078125,1.8530473709106445,-13.911056518554688,17.42449188232422
1702137008904074200,10.35807421875,-1.5737409591674805,-14.587024688720703,19.72208023071289
1702137008921058000,10.37505810546875,-3.727149248123169,-15.685321807861328,20.381591796875
1702137008938062600,10.3920625,-3.20843768119812,-16.03985023498535,19.128921508789062
1702137008955039200,10.409039306640626,-2.2388219833374023,-15.222652435302734,17.18990707397461
1702137008972044000,10.4260439453125,-1.939415693283081,-14.439531326293945,16.82364273071289
1702137008989037600,10.44303759765625,-4.468562126159668,-12.555682182312012,15.885433197021484
1702137009006024200,10.460024169921875,-7.448700904846191,-11.897743225097656,14.338188171386719
1702137009023025000,10.47702490234375,-5.700559616088867,-11.751906394958496,11.750784873962402
1702137009040013800,10.494013916015625,-2.796842575073242,-12.759803771972656,10.639667510986328
1702137009056996600,10.51099658203125,0.8635730743408203,-13.764559745788574,8.714744567871094
1702137009073998600,10.52799853515625,3.617004156112671,-13.088743209838867,6.162096977233887
1702137009090994700,10.54499462890625,5.392553806304932,-13.082130432128906,5.798662185668945
1702137009107980300,10.561980224609375,6.592675685882568,-14.359121322631836,10.031698226928711
1702137009124978200,10.578978271484376,7.044818878173828,-14.535299301147461,13.11670207977295
1702137009141964500,10.595964599609376,7.046431541442871,-13.445348739624023,10.420989990234375
1702137009158952000,10.612951904296875,6.610614776611328,-13.048540115356445,7.745492458343506
1702137009175944200,10.629944091796874,7.548477649688721,-13.995866775512695,8.566734313964844
1702137009192941800,10.64694189453125,7.782220840454102,-15.05421257019043,12.863533020019531
1702137009209931300,10.66393115234375,7.608240127563477,-15.59335708618164,15.650662422180176
1702137009226924300,10.68092431640625,6.547736644744873,-15.229528427124023,15.075130462646484
1702137009243913500,10.69791357421875,7.30593204498291,-15.470462799072266,16.400373458862305
1702137009260917800,10.714917724609375,8.351456642150879,-15.40980052947998,21.594852447509766
1702137009277907500,10.731907470703124,6.357579708099365,-15.321915626525879,27.841747283935547
1702137009294901000,10.74890087890625,3.635829448699951,-13.918689727783203,30.749162673950195
1702137009311889700,10.7658896484375,4.176067352294922,-12.766180038452148,31.443647384643555
1702137009328888300,10.782888427734376,5.933182716369629,-12.241029739379883,34.251800537109375
1702137009345876700,10.799876708984375,4.29765510559082,-11.464085578918457,35.75062942504883
1702137009362869500,10.816869384765624,0.4412531852722168,-12.73622989654541,36.69859313964844
1702137009379851000,10.83385107421875,0.7367424964904785,-16.10901641845703,37.80402374267578
1702137009396854300,10.850854248046875,5.621213436126709,-19.31865692138672,40.58357238769531
1702137009413849300,10.867849365234376,11.648002624511719,-20.41938591003418,42.33488464355469
1702137009430839300,10.88483935546875,14.691329002380371,-19.825611114501953,43.41981887817383
1702137009447831600,10.90183154296875,14.430569648742676,-18.878408432006836,41.83001708984375
1702137009464824800,10.918824951171874,13.230428695678711,-19.90171241760254,39.21295166015625
1702137009481820200,10.935820068359375,12.881059646606445,-22.4500789642334,37.649322509765625
1702137009498809600,10.9528095703125,14.172503471374512,-25.52590560913086,36.87120056152344
1702137009515801000,10.969801025390625,15.61901569366455,-29.10936164855957,35.26580047607422
1702137009532794400,10.98679443359375,17.540491104125977,-31.63692283630371,31.568355560302734
1702137009549785900,11.003785888671874,17.917678833007812,-30.596515655517578,24.14962387084961
1702137009566779400,11.020779296875,16.05240821838379,-27.65215492248535,17.44399642944336
1702137009583760600,11.0377607421875,12.56013298034668,-24.958003997802734,14.41442584991455
1702137009600764200,11.05476416015625,8.34505844116211,-23.98554229736328,14.095004081726074
1702137009617755400,11.07175537109375,5.2930989265441895,-23.551733016967773,11.528586387634277
1702137009634748700,11.088748779296875,4.740294456481934,-21.809083938598633,7.441762924194336
1702137009651733200,11.105733154296875,5.098230361938477,-19.276439666748047,5.333461284637451
1702137009668736300,11.122736328125,5.774771690368652,-17.70063018798828,5.904857158660889
1702137009685725400,11.139725341796876,4.819245338439941,-17.187191009521484,8.285726547241211
1702137009702718500,11.156718505859375,3.0637331008911133,-16.25263214111328,8.210508346557617
1702137009719710200,11.173710205078125,1.7977046966552734,-15.427905082702637,6.779641151428223
1702137009736703200,11.190703125,1.7466306686401367,-15.688218116760254,6.28000545501709
1702137009753694700,11.20769482421875,3.6185669898986816,-15.531420707702637,6.974152565002441
1702137009770677800,11.224677734375,5.346103191375732,-15.18658447265625,9.215139389038086
1702137009787675400,11.24167529296875,4.619041919708252,-15.14113712310791,12.696525573730469
1702137009804677000,11.258677001953124,3.2389068603515625,-15.40247917175293,15.269486427307129
1702137009821664500,11.27566455078125,3.4011077880859375,-16.871387481689453,19.041332244873047
1702137009838657800,11.29265771484375,4.388931751251221,-18.698015213012695,22.17534637451172
1702137009855649800,11.30964990234375,4.884537696838379,-20.723262786865234,24.47830581665039
1702137009872640300,11.32664013671875,5.431760787963867,-22.368370056152344,25.523225784301758
1702137009889636400,11.34363623046875,4.613778591156006,-25.020343780517578,25.777544021606445
1702137009906627600,11.360627685546875,3.910768747329712,-27.64516258239746,27.6091365814209
1702137009923618800,11.377618896484375,3.701099157333374,-30.3301944732666,30.023178100585938
1702137009940612000,11.394612060546875,6.271166801452637,-30.981948852539062,30.52389907836914
1702137009957603800,11.411603759765624,6.837874889373779,-28.03786277770996,28.88055419921875
1702137009974584300,11.428584228515625,2.5986785888671875,-29.708724975585938,30.52587127685547
1702137009991579100,11.4455791015625,2.980725049972534,-30.027027130126953,29.392066955566406
1702137010008572200,11.462572265625,5.074621200561523,-30.451644897460938,29.4394474029541
1702137010025561300,11.479561279296876,7.907349109649658,-29.778182983398438,31.379179000854492
1702137010042560300,11.496560302734375,7.474973678588867,-28.643308639526367,32.479881286621094
1702137010059552300,11.51355224609375,5.744206428527832,-26.099952697753906,30.069303512573242
1702137010076541400,11.53054150390625,4.668400764465332,-23.654983520507812,27.90542984008789
1702137010093533200,11.547533203125,5.431461811065674,-22.55691146850586,27.26913833618164
1702137010110528800,11.56452880859375,6.909062385559082,-20.81313705444336,27.698352813720703
1702137010127520800,11.581520751953125,5.25071907043457,-19.88369369506836,30.313941955566406
1702137010144511700,11.59851171875,3.669808864593506,-16.03650665283203,29.728870391845703
1702137010161505300,11.61550537109375,6.1814446449279785,-11.315404891967773,27.392364501953125
1702137010178497800,11.632497802734376,7.3168816566467285,-8.52219295501709,29.398021697998047
1702137010195497500,11.64949755859375,6.115688323974609,-5.315752983093262,29.68740463256836
1702137010212481500,11.6664814453125,2.4102730751037598,-2.1207566261291504,26.1573429107666
1702137010229475000,11.68347509765625,1.3322625160217285,1.0270099639892578,22.955341339111328
1702137010246477600,11.7004775390625,3.579754114151001,3.601121425628662,21.18535614013672
1702137010263466800,11.717466796875,4.879176616668701,5.328841209411621,21.20547103881836
1702137010280460300,11.734460205078125,3.0876119136810303,6.284348487854004,20.523822784423828
1702137010297452300,11.751452392578125,0.2620084285736084,5.888890266418457,18.97219467163086
1702137010314444500,11.768444580078125,0.034338951110839844,5.103126049041748,16.175045013427734
1702137010331434000,11.78543408203125,1.324988842010498,4.063520431518555,13.2240629196167
1702137010348432600,11.8024326171875,2.6108808517456055,3.202195882797241,9.817241668701172
1702137010365420800,11.8194208984375,2.2753610610961914,2.582726240158081,7.6278181076049805
1702137010382414600,11.83641455078125,0.4962754249572754,1.3587982654571533,7.258923530578613
1702137010399404000,11.853404052734374,-1.6105008125305176,0.0001659393310546875,6.781079292297363
1702137010416387300,11.87038720703125,-2.3622922897338867,-0.8356454372406006,5.593972206115723
1702137010433391000,11.88739111328125,-1.9347352981567383,-1.7022030353546143,4.345798492431641
1702137010450384100,11.904384033203126,-0.8056976795196533,-2.585681200027466,2.920220375061035
1702137010467365000,11.921365234375,0.7736549377441406,-3.8788366317749023,1.58294677734375
1702137010484369400,11.938369384765625,2.4000449180603027,-4.647310256958008,0.49175262451171875
1702137010501360600,11.955360595703125,3.151902675628662,-5.485004425048828,-0.09787178039550781
1702137010518354000,11.97235400390625,2.80275821685791,-5.899555206298828,-0.5461416244506836
1702137010535335000,11.9893349609375,2.059767246246338,-6.076562881469727,-0.7483530044555664
1702137010552338700,12.006338623046876,1.4352948665618896,-6.27293586730957,-1.1337661743164062
1702137010569330200,12.023330078125,1.6811742782592773,-6.362581253051758,-1.7803630828857422
1702137010586323700,12.04032373046875,2.1782636642456055,-6.432377338409424,-2.1357650756835938
1702137010603315000,12.05731494140625,2.5232455730438232,-6.4999213218688965,-2.0216846466064453
1702137010620308500,12.07430859375,2.6015305519104004,-6.543098449707031,-1.4659051895141602
1702137010637299700,12.0912998046875,2.547560691833496,-6.342576026916504,-1.0215387344360352
1702137010654283000,12.108282958984375,2.2328643798828125,-6.10228157043457,-0.917424201965332
1702137010671282200,12.1252822265625,2.3485288619995117,-5.799533843994141,-1.076807975769043
1702137010688280600,12.142280517578126,2.494685649871826,-5.289927959442139,-1.4602346420288086
1702137010705269500,12.15926953125,2.5938901901245117,-5.2173261642456055,-1.2918272018432617
1702137010722259200,12.17625927734375,3.2102019786834717,-5.036774635314941,-0.9475746154785156
1702137010739255800,12.193255859375,4.191921234130859,-4.743942737579346,-0.29410457611083984
1702137010756244700,12.21024462890625,4.624907493591309,-4.447015762329102,0.4467449188232422
1702137010773239000,12.227239013671875,4.202725887298584,-3.877285957336426,0.6835308074951172
1702137010790232300,12.244232421875,3.6951398849487305,-3.2669851779937744,0.20699787139892578
1702137010807223800,12.261223876953125,3.224985361099243,-2.7288765907287598,-0.4952831268310547
1702137010824214800,12.27821484375,3.59263277053833,-2.1248865127563477,-0.762939453125
1702137010841211100,12.295211181640624,4.7778000831604,-1.0858573913574219,-0.3940267562866211
1702137010858202000,12.3122021484375,4.804999828338623,-0.5628636479377747,1.0503158569335938
1702137010875207200,12.329207275390624,3.939211845397949,0.2534352242946625,1.7242679595947266
1702137010892176400,12.34617626953125,3.3203225135803223,1.1999857425689697,0.6195402145385742
1702137010909178000,12.36317822265625,3.183131456375122,1.6443445682525635,-0.8334150314331055
1702137010926171600,12.380171630859374,4.545914649963379,1.9807586669921875,-0.6788578033447266
1702137010943163100,12.3971630859375,6.152972221374512,2.2432398796081543,1.3126897811889648
1702137010960156700,12.41415673828125,6.343869686126709,2.863844633102417,2.403697967529297
1702137010977142000,12.43114208984375,5.059738636016846,3.473029613494873,2.1082534790039062
1702137010994141400,12.448141357421875,3.610908031463623,4.1692657470703125,1.0907926559448242
1702137011011130000,12.465130126953126,2.9533352851867676,5.046584606170654,0.8060073852539062
1702137011028128800,12.482128662109375,1.4605555534362793,5.588038921356201,2.25107479095459
1702137011045117400,12.499117431640625,-0.8544812202453613,6.527419090270996,4.298707962036133
1702137011062108200,12.516108154296875,-2.8810744285583496,7.634243488311768,5.59039306640625
1702137011079104800,12.533104736328125,-4.131020545959473,8.144160270690918,6.997547149658203
1702137011096085200,12.550085205078124,-4.868985176086426,8.464510917663574,7.050690650939941
1702137011113087000,12.5670869140625,-4.738858222961426,9.588509559631348,6.256865501403809
1702137011130067200,12.584067138671875,-4.790366172790527,10.390447616577148,6.559727668762207
1702137011147074800,12.60107470703125,-4.210526466369629,10.64066219329834,8.342254638671875
1702137011164065300,12.618065185546875,-4.1958537101745605,10.99188232421875,9.648408889770508
1702137011181056800,12.635056884765625,-5.881513595581055,10.034948348999023,8.349275588989258
1702137011198050300,12.65205029296875,-7.166813373565674,6.963006496429443,3.582869052886963
1702137011215031000,12.669031005859376,-4.647871017456055,3.7004051208496094,-0.4257206916809082
1702137011232035000,12.68603515625,-0.8846936225891113,0.38380956649780273,-2.0992655754089355
1702137011249026300,12.7030263671875,1.9645638465881348,-2.270813465118408,-2.394535779953003
1702137011266019600,12.72001953125,3.4086122512817383,-4.2531538009643555,-3.070492744445801
1702137011283011300,12.73701123046875,4.284223556518555,-5.7458415031433105,-3.610750913619995
1702137011300004900,12.7540048828125,4.691693305969238,-6.625548362731934,-4.215647220611572
1702137011316988700,12.77098876953125,4.535521984100342,-6.8800482749938965,-4.958024024963379
1702137011333989400,12.7879892578125,4.744446754455566,-6.823496341705322,-5.60611629486084
1702137011350983400,12.8049833984375,5.227817535400391,-7.294097423553467,-5.803714752197266
1702137011367967700,12.8219677734375,6.24760627746582,-8.181365013122559,-5.930144309997559
1702137011384968400,12.838968505859375,6.893406867980957,-9.051814079284668,-6.1752753257751465
1702137011401956400,12.855956298828126,6.255826950073242,-9.543066024780273,-6.5988993644714355
1702137011418950400,12.872950439453126,4.869350433349609,-9.797096252441406,-7.2269062995910645
1702137011435933200,12.88993310546875,3.9400832653045654,-9.90152645111084,-7.820160388946533
1702137011452935200,12.90693505859375,3.4533653259277344,-10.486295700073242,-7.512673377990723
1702137011469928700,12.9239287109375,3.297159433364868,-11.682497024536133,-6.766618728637695
1702137011486917400,12.94091748046875,3.0781376361846924,-12.672279357910156,-6.514148712158203
1702137011503915800,12.957915771484375,3.1550216674804688,-13.821629524230957,-6.401182174682617
1702137011520905000,12.974905029296876,3.514608144760132,-15.435174942016602,-5.673703193664551
1702137011537892000,12.99189208984375,3.344224691390991,-17.866294860839844,-3.0579869747161865
1702137011554889500,13.008889404296875,2.6411330699920654,-20.159847259521484,0.6122837066650391
1702137011571880200,13.025880126953124,0.7850081920623779,-21.659547805786133,3.6296072006225586
1702137011588866600,13.042866455078125,-0.7746518850326538,-23.149646759033203,5.6582794189453125
1702137011605867800,13.05986767578125,-0.07235285639762878,-24.42646598815918,8.385165214538574
1702137011622859300,13.076859375,1.1917076110839844,-24.937644958496094,13.775836944580078
1702137011639852500,13.0938525390625,1.2692286968231201,-24.002765655517578,20.07623291015625
1702137011656844000,13.110843994140625,-1.8034712076187134,-21.679767608642578,23.828458786010742
1702137011673837600,13.127837646484375,-7.252196788787842,-19.205615997314453,25.095989227294922
1702137011690821000,13.144821044921875,-11.07769775390625,-18.30400848388672,27.588287353515625
1702137011707823000,13.161822998046874,-9.904191970825195,-18.195981979370117,31.07638931274414
1702137011724811000,13.17881103515625,-6.545098781585693,-18.552091598510742,33.971866607666016
1702137011741809400,13.195809326171876,-3.2179763317108154,-17.763023376464844,35.554405212402344
1702137011758798300,13.21279833984375,-0.42341339588165283,-14.882697105407715,37.853878021240234
1702137011775791900,13.2297919921875,1.9277763366699219,-10.526338577270508,40.010826110839844
1702137011792783000,13.246783203125,2.6995153427124023,-6.277644634246826,39.22590255737305
1702137011809777000,13.26377685546875,4.341893672943115,-4.224053382873535,38.56578063964844
1702137011826767600,13.280767578125,7.913852691650391,-4.357363700866699,37.37390899658203
1702137011843761400,13.297761474609375,12.205926895141602,-5.619495391845703,35.460453033447266
1702137011860753000,13.3147529296875,15.923397064208984,-7.165919303894043,35.912506103515625
1702137011877746200,13.33174609375,15.624513626098633,-8.190234184265137,35.615692138671875
1702137011894737700,13.348737548828124,13.459732055664062,-8.505316734313965,31.888687133789062
1702137011911728000,13.36572802734375,16.252838134765625,-9.757551193237305,27.995386123657227
1702137011928722200,13.38272216796875,21.23587989807129,-9.89250659942627,23.325462341308594
1702137011945715500,13.399715576171875,24.15731430053711,-8.616597175598145,19.72378921508789
1702137011962703000,13.416703125,20.332387924194336,-7.490391731262207,16.97625732421875
1702137011979692300,13.4336923828125,15.392671585083008,-7.05689811706543,14.04835033416748
1702137011996692000,13.45069189453125,13.698346138000488,-8.006587982177734,13.158804893493652
1702137012013685500,13.467685546875,14.841612815856934,-9.917065620422363,12.251282691955566
1702137012030676700,13.4846767578125,15.618637084960938,-11.958218574523926,11.894927024841309
1702137012047670300,13.501670166015625,14.421863555908203,-13.729257583618164,12.193087577819824
1702137012064661500,13.51866162109375,11.394251823425293,-14.313852310180664,12.08942699432373
1702137012081646000,13.53564599609375,7.859251976013184,-15.010269165039062,13.99711799621582
1702137012098646000,13.55264599609375,7.40437650680542,-14.89914321899414,16.201265335083008
1702137012115639800,13.569639892578126,7.991399765014648,-15.843389511108398,16.95709228515625
1702137012132626200,13.586626220703126,9.356307029724121,-16.477088928222656,16.366519927978516
1702137012149629000,13.60362890625,9.892901420593262,-16.001394271850586,15.643052101135254
1702137012166615800,13.62061572265625,8.508016586303711,-15.116830825805664,16.172176361083984
1702137012183591400,13.63759130859375,6.493842124938965,-14.443805694580078,17.58857536315918
1702137012200599000,13.65459912109375,4.589199542999268,-14.011632919311523,18.822988510131836
1702137012217596200,13.67159619140625,2.5711829662323,-13.642181396484375,17.70008087158203
1702137012234585300,13.68858544921875,0.7243561744689941,-13.85521125793457,15.735695838928223
1702137012251579000,13.705578857421875,0.17620134353637695,-13.967153549194336,13.160411834716797
1702137012268571400,13.7225712890625,0.19226741790771484,-14.011215209960938,10.966812133789062
1702137012285564000,13.73956396484375,-0.5490994453430176,-15.057581901550293,9.690288543701172
1702137012302555100,13.75655517578125,0.9925413131713867,-16.24252700805664,7.871216773986816
1702137012319548700,13.773548583984375,2.7741470336914062,-16.8035831451416,7.215983867645264
1702137012336540000,13.790539794921875,4.480873107910156,-15.990211486816406,7.6663384437561035
1702137012353533200,13.807533203125,2.8405566215515137,-16.466121673583984,9.288301467895508
1702137012370518300,13.824518310546875,-0.0021104812622070312,-18.062049865722656,8.959624290466309
1702137012387514000,13.84151416015625,-0.07576370239257812,-18.02982521057129,5.167729377746582
1702137012404513300,13.85851318359375,3.9303627014160156,-16.198482513427734,3.858581066131592
1702137012421503000,13.8755029296875,9.613545417785645,-15.223602294921875,7.678194046020508
1702137012438494500,13.892494384765625,9.769567489624023,-14.477910041809082,16.15237045288086
1702137012455483100,13.909483154296876,3.0516762733459473,-13.722086906433105,23.035615921020508
1702137012472479200,13.926479248046874,-4.5735907554626465,-12.227731704711914,23.350847244262695
1702137012489472500,13.943472412109376,-1.3102614879608154,-12.451919555664062,21.656253814697266
1702137012506464000,13.960464111328125,6.642444133758545,-14.183721542358398,23.793312072753906
1702137012523457000,13.97745703125,7.594767093658447,-14.838897705078125,26.025320053100586
1702137012540448500,13.994448486328125,4.5879340171813965,-14.955255508422852,27.193408966064453
1702137012557428700,14.0114287109375,2.6382691860198975,-14.946648597717285,26.410696029663086
1702137012574425000,14.028425048828124,4.415187835693359,-15.248815536499023,27.608591079711914
1702137012591428400,14.045428466796874,5.430764675140381,-15.05683422088623,30.374828338623047
1702137012608418300,14.062418212890625,3.7235121726989746,-15.452417373657227,33.84735870361328
1702137012625411800,14.079411865234375,4.131134986877441,-17.04979133605957,36.8780517578125
1702137012642402800,14.09640283203125,7.639014720916748,-18.491924285888672,37.74620819091797
1702137012659385600,14.113385498046876,10.923773765563965,-18.9105281829834,38.17548370361328
1702137012676377300,14.13037744140625,9.654825210571289,-19.18746566772461,39.71930694580078
1702137012693381400,14.14738134765625,8.498261451721191,-21.093494415283203,41.09471130371094
1702137012710366500,14.164366455078126,11.160704612731934,-25.18903923034668,39.882102966308594
1702137012727356200,14.181356201171875,16.67070960998535,-29.05596923828125,35.7927131652832
1702137012744347100,14.19834716796875,19.14814567565918,-31.732540130615234,29.176025390625
1702137012761343500,14.215343505859375,18.964393615722656,-31.02743911743164,20.989482879638672
1702137012778339600,14.232339599609375,17.060771942138672,-29.493900299072266,16.804597854614258
1702137012795325000,14.249324951171875,14.687796592712402,-27.406055450439453,15.373861312866211
1702137012812327000,14.266326904296875,11.517925262451172,-25.577306747436523,14.484748840332031
1702137012829320200,14.2833203125,8.872961044311523,-24.830656051635742,11.820365905761719
1702137012846311700,14.300311767578124,7.7800750732421875,-23.089191436767578,8.50629997253418
1702137012863305000,14.317304931640624,6.8551025390625,-21.08757209777832,6.170572280883789
1702137012880295400,14.33429541015625,6.2436933517456055,-18.42840003967285,5.069636344909668
1702137012897290000,14.3512900390625,5.629134178161621,-16.981590270996094,6.298582553863525
1702137012914281000,14.368281005859375,5.118459701538086,-15.299991607666016,7.663357734680176
1702137012931264000,14.385263916015624,2.86313533782959,-14.439239501953125,8.474449157714844
1702137012948264700,14.4022646484375,0.2506551742553711,-14.607415199279785,8.346222877502441
1702137012965260800,14.4192607421875,0.7027120590209961,-14.95576000213623,7.615357398986816
1702137012982250800,14.436250732421875,2.8896217346191406,-14.627523422241211,7.618843078613281
1702137012999241700,14.45324169921875,3.8971853256225586,-15.84981632232666,11.208227157592773
1702137013016227600,14.4702275390625,2.2100963592529297,-16.531539916992188,14.472084045410156
1702137013033223400,14.487223388671875,-0.6006746292114258,-16.24239730834961,14.719482421875
1702137013050220300,14.50422021484375,-0.7634711265563965,-17.07953453063965,14.660860061645508
1702137013067213800,14.5212138671875,1.9111368656158447,-19.15446662902832,15.902498245239258
1702137013084205300,14.538205322265625,5.2751569747924805,-21.7891902923584,20.10033416748047
1702137013101198600,14.555198486328125,7.35611629486084,-22.61592674255371,25.4405460357666
1702137013118189800,14.57218994140625,7.641079425811768,-22.261959075927734,27.904918670654297
1702137013135179500,14.589179443359376,7.1233720779418945,-23.15849494934082,28.31877326965332
1702137013152174800,14.6061748046875,6.342487812042236,-27.030054092407227,28.576087951660156
1702137013169168100,14.623168212890626,9.084482192993164,-29.088207244873047,27.820362091064453
1702137013186159600,14.64015966796875,10.478540420532227,-30.04070281982422,31.028350830078125
1702137013203156500,14.657156494140626,8.050201416015625,-29.934833526611328,36.333438873291016
1702137013220130000,14.674130126953125,5.609057426452637,-29.00726318359375,38.316612243652344
1702137013237138000,14.691137939453125,6.959133148193359,-28.384174346923828,35.229068756103516
1702137013254124800,14.708124755859375,9.2969970703125,-27.780370712280273,33.24065017700195
1702137013271123700,14.725123779296876,9.612226486206055,-28.842899322509766,32.863834381103516
1702137013288116500,14.742116455078126,9.842608451843262,-27.737834930419922,33.90576171875
1702137013305107500,14.759107421875,10.0684175491333,-25.886573791503906,34.098968505859375
1702137013322083800,14.776083740234375,6.773892402648926,-22.562152862548828,32.04485321044922
1702137013339096000,14.793095947265625,3.095440626144409,-20.403900146484375,30.395893096923828
1702137013356073000,14.810072998046875,2.1218199729919434,-17.23316764831543,29.208391189575195
1702137013373076700,14.82707666015625,4.828155517578125,-13.074761390686035,31.61597442626953
1702137013390068000,14.84406787109375,7.810294151306152,-8.184497833251953,34.19792175292969
1702137013407067000,14.86106689453125,6.6324310302734375,-3.1234683990478516,33.551429748535156
1702137013424052700,14.878052734375,5.216103553771973,0.5626349449157715,27.734756469726562
1702137013441045500,14.89504541015625,4.258230209350586,4.0548319816589355,24.233572006225586
1702137013458038800,14.912038818359376,4.314414024353027,6.83311128616333,25.160221099853516
1702137013475018000,14.92901806640625,5.011901378631592,8.698721885681152,25.318424224853516
1702137013492014600,14.9460146484375,5.971461296081543,9.56128215789795,23.876171112060547
1702137013509009400,14.963009521484375,3.3079326152801514,9.64465618133545,21.257762908935547
1702137013525999400,14.979999267578124,-1.3514528274536133,8.895554542541504,18.400314331054688
1702137013542991600,14.99699169921875,-3.8294641971588135,7.251266956329346,14.673707962036133
1702137013559986200,15.013986083984374,-3.2654175758361816,4.690062522888184,11.312826156616211
1702137013576975400,15.030975341796875,-0.8539111614227295,2.260053873062134,7.9968109130859375
1702137013593967400,15.04796728515625,1.9634745121002197,-0.24247020483016968,6.223328590393066
1702137013610960600,15.064960693359374,3.030924081802368,-2.2044503688812256,4.649706840515137
1702137013627955200,15.081955078125,1.3108885288238525,-3.406930923461914,3.382439613342285
1702137013644948000,15.098947998046874,-0.38858604431152344,-4.7315778732299805,2.527273178100586
1702137013661943000,15.115943115234375,-0.7626893520355225,-5.724307537078857,1.4314661026000977
1702137013678933000,15.13293310546875,-0.27610039710998535,-6.589402675628662,0.4170522689819336
1702137013695921000,15.1499208984375,0.7635021209716797,-7.111514091491699,-0.38368797302246094
1702137013712913200,15.1669130859375,1.9852759838104248,-7.668946266174316,-0.5890054702758789
1702137013729909800,15.18390966796875,2.540947675704956,-7.463168144226074,-0.7815780639648438
1702137013746901000,15.20090087890625,1.3579318523406982,-7.349695682525635,-0.2421426773071289
1702137013763902700,15.21790283203125,-0.3228161334991455,-7.248574256896973,0.21909713745117188
1702137013780894000,15.23489404296875,-0.17697882652282715,-6.735921859741211,0.13382625579833984
1702137013797875000,15.251875,0.9740995168685913,-6.468267440795898,-0.46043872833251953
1702137013814879000,15.26887890625,2.5347986221313477,-6.3798675537109375,-1.2063827514648438
1702137013831868000,15.285867919921875,3.8419570922851562,-6.328691005706787,-1.389559268951416
1702137013848866600,15.302866455078124,4.170511722564697,-6.24095344543457,-1.2742629051208496
1702137013865852700,15.319852783203125,3.5047125816345215,-6.254349708557129,-1.0176219940185547
1702137013882850800,15.336850830078125,2.42460560798645,-6.031344413757324,-1.290541172027588
1702137013899852000,15.35385205078125,1.7430729866027832,-5.446722507476807,-2.1184487342834473
1702137013916830700,15.370830810546876,1.3604522943496704,-4.903707027435303,-2.3651185035705566
1702137013933808000,15.38780810546875,1.423554539680481,-4.611224174499512,-2.0021605491638184
1702137013950819800,15.40481982421875,2.0741982460021973,-4.132562637329102,-1.8260588645935059
1702137013967807700,15.421807861328125,2.7641055583953857,-3.4306671619415283,-1.9689416885375977
1702137013984802800,15.438802734375,2.709109306335449,-3.0259792804718018,-1.697669506072998
1702137014001794300,15.455794189453124,2.6368632316589355,-2.4918506145477295,-1.345541000366211
1702137014018787800,15.472787841796874,2.3295559883117676,-1.9404561519622803,-1.1367521286010742
1702137014035787500,15.48978759765625,1.986510992050171,-1.2838560342788696,-0.611720085144043
1702137014052772600,15.506772705078125,2.5201313495635986,-0.44804298877716064,0.366485595703125
1702137014069763600,15.523763671875,2.9886672496795654,0.5136033296585083,0.8087759017944336
1702137014086757000,15.540757080078125,2.2455029487609863,1.17019522190094,0.5573139190673828
1702137014103748600,15.55774853515625,1.2409732341766357,1.705615758895874,0.1403665542602539
1702137014120739300,15.5747392578125,0.8288180828094482,2.5304341316223145,0.07533454895019531
1702137014137726000,15.591725830078126,0.4975740909576416,3.5099430084228516,0.9621133804321289
1702137014154726700,15.6087265625,0.34153175354003906,4.017613887786865,3.3579349517822266
1702137014171719200,15.62571923828125,0.8295638561248779,5.100492477416992,4.452561378479004
1702137014188710400,15.64271044921875,0.31313085556030273,5.947532653808594,3.836520195007324
1702137014205703000,15.659702880859374,0.11434769630432129,6.15812873840332,3.3151731491088867
1702137014222696200,15.6766962890625,1.9197709560394287,6.945285797119141,3.7422409057617188
1702137014239687700,15.693687744140625,2.5685336589813232,7.502432346343994,5.811715126037598
1702137014256681200,15.71068115234375,1.1944730281829834,7.976866722106934,7.16964054107666
1702137014273672400,15.72767236328125,-0.5876507759094238,8.304150581359863,5.429224014282227
1702137014290655500,15.744655517578124,-1.7525877952575684,8.184263229370117,3.05625057220459
1702137014307654400,15.761654296875,-1.350480318069458,7.635910987854004,2.4715137481689453
1702137014324643800,15.778643798828124,-0.814556360244751,6.744293212890625,4.031990051269531
1702137014341642000,15.79564208984375,-1.3002212047576904,6.481410026550293,4.82069206237793
1702137014358635500,15.812635498046875,-3.0431978702545166,6.603649139404297,4.8337202072143555
1702137014375639600,15.8296396484375,-5.525351047515869,6.388636589050293,4.74397087097168
1702137014392617500,15.846617431640626,-5.337157726287842,5.48020601272583,5.236148834228516
1702137014409608000,15.86360791015625,-3.470120906829834,5.003857612609863,5.725645065307617
1702137014426604800,15.880604736328126,-2.219573497772217,4.082913398742676,5.383843421936035
1702137014443596300,15.89759619140625,-1.7499308586120605,2.910780906677246,5.204040050506592
1702137014460589600,15.914589599609375,0.17011117935180664,2.6963908672332764,5.103198051452637
1702137014477581000,15.9315810546875,1.1891446113586426,1.7106504440307617,4.640785217285156
1702137014494574600,15.94857470703125,0.9739875793457031,-0.2380232810974121,3.1520376205444336
1702137014511562200,15.965562255859375,0.5393552780151367,-2.4556403160095215,0.9603972434997559
1702137014528562400,15.9825625,1.7714476585388184,-3.7489452362060547,-1.2805812358856201
1702137014545551000,15.999551025390625,4.325486183166504,-4.6608500480651855,-2.101210832595825
1702137014562543900,16.0165439453125,6.542766571044922,-5.365682601928711,-2.334969997406006
1702137014579535400,16.033535400390626,7.6221537590026855,-5.880146026611328,-3.0926804542541504
1702137014596529000,16.05052880859375,7.335577011108398,-5.929671287536621,-4.026943206787109
1702137014613512200,16.06751220703125,6.75073766708374,-5.925929069519043,-4.3560662269592285
1702137014630511600,16.08451171875,6.285825729370117,-6.32276725769043,-4.116689205169678
1702137014647507000,16.1015068359375,5.714677333831787,-6.8630452156066895,-4.038410663604736
1702137014664498700,16.118498779296875,5.442788600921631,-7.455789566040039,-4.198494911193848
1702137014681490000,16.135489990234376,5.561557769775391,-8.098246574401855,-4.708977699279785
1702137014698489900,16.15248974609375,5.710354328155518,-8.941097259521484,-5.750423431396484
1702137014715474400,16.169474365234375,6.083944797515869,-9.417936325073242,-7.076407432556152
1702137014732466000,16.1864658203125,6.14145040512085,-9.962890625,-7.310237884521484
1702137014749461200,16.203461181640623,5.522635459899902,-10.490358352661133,-6.8348388671875
1702137014766452700,16.22045263671875,4.439875602722168,-11.113748550415039,-5.855157375335693
1702137014783444000,16.23744384765625,3.540414571762085,-11.928438186645508,-5.098998069763184
1702137014800435700,16.254435791015624,3.463803768157959,-13.62995719909668,-4.427425861358643
1702137014817428700,16.2714287109375,4.48787260055542,-15.788601875305176,-3.442434787750244
1702137014834422500,16.288422607421875,5.50710916519165,-17.582866668701172,-1.7612643241882324
1702137014851413500,16.30541357421875,5.000804424285889,-18.68109893798828,0.9269270896911621
1702137014868404500,16.322404541015626,2.3136677742004395,-19.683650970458984,4.671422958374023
1702137014885400800,16.33940087890625,0.511404275894165,-21.26468276977539,10.310352325439453
1702137014902392000,16.35639208984375,-1.5377304553985596,-21.559059143066406,13.62659740447998
1702137014919383300,16.37338330078125,-2.5309410095214844,-21.65289306640625,16.489303588867188
1702137014936383200,16.39038330078125,-1.603440523147583,-20.4666748046875,19.842525482177734
1702137014953367800,16.407367919921874,-2.0784101486206055,-18.19066047668457,25.31627655029297
1702137014970350800,16.424350830078126,-5.953810691833496,-15.562284469604492,30.400020599365234
1702137014987347700,16.44134765625,-11.207026481628418,-13.851938247680664,33.1449089050293
1702137015004343600,16.458343505859375,-13.022229194641113,-14.70939826965332,33.78240203857422
1702137015021340000,16.47533984375,-8.47868537902832,-17.370725631713867,35.856231689453125
1702137015038331000,16.492330810546875,-2.346046209335327,-18.965665817260742,37.53602981567383
1702137015055311000,16.50931103515625,2.0150346755981445,-18.335224151611328,38.111793518066406
1702137015072316400,16.52631640625,4.985608100891113,-15.74062728881836,36.65993118286133
1702137015089307000,16.543306884765624,6.8706159591674805,-12.942811012268066,35.14860534667969
1702137015106300400,16.560300537109374,7.326266288757324,-11.71031379699707,34.14274978637695
1702137015123292000,16.5772919921875,7.955992698669434,-11.301874160766602,32.52772903442383
1702137015140285200,16.59428515625,10.03503704071045,-11.800536155700684,30.953275680541992
1702137015157276400,16.6112763671875,11.28149700164795,-13.397500991821289,29.72334861755371
1702137015174269700,16.628269775390624,11.552541732788086,-14.721428871154785,27.83621597290039
1702137015191250400,16.64525048828125,11.402488708496094,-15.476251602172852,26.68743133544922
1702137015208251400,16.66225146484375,10.645421981811523,-16.272933959960938,26.056262969970703
1702137015225249300,16.679249267578125,9.786832809448242,-18.56206703186035,26.037378311157227
1702137015242239500,16.696239501953126,11.070006370544434,-19.633895874023438,22.44430160522461
1702137015259230700,16.713230712890624,12.950963020324707,-18.812458038330078,18.23347282409668
1702137015276224300,16.730224365234374,15.968452453613281,-16.717754364013672,14.430538177490234
1702137015293213000,16.747212890625,16.870546340942383,-14.011722564697266,12.04421615600586
1702137015310211600,16.764211669921874,14.746574401855469,-12.317901611328125,10.061385154724121
1702137015327200500,16.781200439453126,11.695108413696289,-11.577624320983887,9.283000946044922
1702137015344193500,16.798193603515625,9.837669372558594,-10.617578506469727,9.325340270996094
1702137015361171000,16.8151708984375,8.380735397338867,-10.809807777404785,11.556234359741211
1702137015378178300,16.83217822265625,6.24482536315918,-11.868398666381836,14.419143676757812
1702137015395164200,16.8491640625,3.93680477142334,-11.778642654418945,15.863065719604492
1702137015412155600,16.86615576171875,1.4021061658859253,-11.802825927734375,17.063690185546875
1702137015429154600,16.883154541015625,-1.5171160697937012,-11.482121467590332,17.788333892822266
1702137015446147800,16.90014794921875,-3.2624659538269043,-11.550714492797852,18.210350036621094
1702137015463128600,16.917128662109373,-4.224630832672119,-12.104121208190918,20.061260223388672
1702137015480132900,16.9341328125,-4.128631114959717,-13.80715560913086,21.346891403198242
1702137015497124000,16.9511240234375,-2.013014554977417,-14.384618759155273,20.02490997314453
1702137015514117600,16.96811767578125,-0.0023903250694274902,-13.364887237548828,17.534313201904297
1702137015531106300,16.985106201171874,0.22733807563781738,-11.73482608795166,16.04526138305664
1702137015548094500,17.002094482421874,-1.2660349607467651,-10.310598373413086,15.357780456542969
1702137015565093600,17.01909375,-2.75742244720459,-10.25442123413086,14.759148597717285
1702137015582087200,17.036087158203124,-1.4155430793762207,-10.756233215332031,13.06373119354248
1702137015599078100,17.053078125,1.1557331085205078,-10.339582443237305,11.331357955932617
1702137015616057300,17.070057373046875,1.64137601852417,-11.686466217041016,10.546217918395996
1702137015633067000,17.08706689453125,3.38565731048584,-12.288579940795898,9.337823867797852
1702137015650054100,17.10405419921875,4.1929931640625,-12.931952476501465,8.668212890625
1702137015667050200,17.12105029296875,5.7425031661987305,-13.442628860473633,10.58182144165039
1702137015684041500,17.13804150390625,6.3253583908081055,-13.798107147216797,13.494681358337402
1702137015701032700,17.15503271484375,4.050191879272461,-14.427363395690918,14.570392608642578
1702137015718015500,17.172015380859374,0.8731317520141602,-14.464258193969727,8.958261489868164
1702137015735012000,17.18901220703125,2.7455177307128906,-15.039648056030273,4.9015045166015625
1702137015752003300,17.20600341796875,8.580832481384277,-16.992755889892578,9.235681533813477
1702137015769004800,17.2230048828125,12.059093475341797,-15.842462539672852,16.807954788208008
1702137015785995500,17.23999560546875,9.1697416305542,-12.590335845947266,19.458709716796875
1702137015802987000,17.256987060546876,3.5598249435424805,-11.356167793273926,18.6153621673584
1702137015819979500,17.2739794921875,4.28012752532959,-11.91529369354248,20.595474243164062
1702137015836970000,17.290969970703124,5.136327743530273,-13.44980525970459,24.829936981201172
1702137015853967600,17.307967529296874,4.374725341796875,-12.584405899047852,26.739850997924805
1702137015870956800,17.324956787109375,2.911374568939209,-11.354524612426758,27.111482620239258
1702137015887947000,17.341947021484376,0.25991296768188477,-12.081835746765137,28.94043731689453
1702137015904943900,17.35894384765625,0.10083365440368652,-13.41485595703125,31.224029541015625
1702137015921934600,17.3759345703125,2.351594924926758,-15.030182838439941,34.130977630615234
1702137015938926600,17.392926513671874,4.939788818359375,-16.886940002441406,35.77009582519531
1702137015955920600,17.409920654296876,5.789255619049072,-20.08649253845215,37.409523010253906
1702137015972910600,17.42691064453125,6.6622467041015625,-23.28068733215332,39.3297233581543
1702137015989904000,17.44390380859375,11.036165237426758,-24.09874725341797,39.47477340698242
1702137016006895000,17.46089501953125,14.17014217376709,-22.862653732299805,39.879302978515625
1702137016023899000,17.47789892578125,14.25008487701416,-21.299070358276367,38.969512939453125
1702137016040880000,17.494880126953124,14.233635902404785,-21.555191040039062,38.43071746826172
1702137016057874400,17.51187451171875,14.701597213745117,-22.994869232177734,36.485191345214844
1702137016074863900,17.52886376953125,15.221084594726562,-24.68096923828125,32.84608459472656
1702137016091856000,17.54585595703125,17.12561798095703,-25.892032623291016,28.640283584594727
1702137016108841700,17.562841796875,16.971433639526367,-26.249692916870117,24.86097526550293
1702137016125843000,17.579843017578124,14.785987854003906,-25.53786849975586,20.589967727661133
1702137016142831900,17.596831787109377,12.797664642333984,-23.96582794189453,16.761863708496094
1702137016159818000,17.61381787109375,9.24366569519043,-22.843063354492188,16.404056549072266
1702137016176808400,17.630808349609374,6.28766393661499,-22.543460845947266,15.118130683898926
1702137016193812200,17.647812255859375,4.3179426193237305,-22.06056022644043,12.558513641357422
1702137016210793500,17.66479345703125,4.289741516113281,-20.009315490722656,8.991527557373047
1702137016227792400,17.68179248046875,3.8785600662231445,-18.636165618896484,7.9076972007751465
1702137016244780800,17.69878076171875,3.1589784622192383,-17.19536590576172,7.563929557800293
1702137016261772500,17.7157724609375,2.113011360168457,-15.63048267364502,7.4813714027404785
1702137016278775300,17.732775390625,0.5542659759521484,-13.672026634216309,7.319729804992676
1702137016295766800,17.749766845703125,-1.1027374267578125,-12.90588665008545,7.212731838226318
1702137016312758000,17.766758056640626,-1.1437525749206543,-13.831337928771973,8.40194034576416
1702137016329749800,17.783749755859375,0.32472944259643555,-14.745454788208008,9.837808609008789
1702137016346734000,17.800734130859375,2.2383604049682617,-14.93626594543457,11.671854019165039
1702137016363736600,17.817736572265623,4.100921630859375,-15.661270141601562,13.337480545043945
1702137016380727600,17.8347275390625,6.3266448974609375,-17.367820739746094,15.14523983001709
1702137016397721000,17.85172119140625,7.782777309417725,-18.92392921447754,17.309337615966797
1702137016414712600,17.868712646484376,8.151564598083496,-20.575376510620117,20.743606567382812
1702137016431703000,17.885703125,7.786587238311768,-21.791454315185547,24.07733154296875
1702137016448699400,17.902699462890624,6.632931232452393,-22.46218490600586,25.345428466796875
1702137016465690600,17.919690673828125,4.235550880432129,-24.742137908935547,25.32828140258789
1702137016482682000,17.93668212890625,4.344480514526367,-27.43232536315918,23.411434173583984
1702137016499675400,17.95367529296875,6.548609256744385,-29.074569702148438,25.61621856689453
1702137016516666600,17.97066650390625,3.205155611038208,-30.313865661621094,33.03599166870117
1702137016533660200,17.98766015625,3.532007932662964,-28.53365707397461,32.02605056762695
1702137016550651400,18.0046513671875,4.570199489593506,-26.664031982421875,30.736587524414062
1702137016567645000,18.02164501953125,4.347637176513672,-27.858366012573242,32.64474105834961
1702137016584635400,18.038635498046876,3.830366373062134,-28.020767211914062,33.78901672363281
1702137016601630200,18.055630126953126,4.074845314025879,-25.295902252197266,33.32268142700195
1702137016618621000,18.072620849609375,7.2181243896484375,-20.03763198852539,30.20445442199707
1702137016635614200,18.0896142578125,8.532285690307617,-18.876605987548828,31.153013229370117
1702137016652605400,18.10660546875,6.417925834655762,-15.652170181274414,31.55355453491211
1702137016669599000,18.123598876953125,4.748943328857422,-11.579961776733398,30.37392807006836
1702137016686590500,18.140590576171874,6.887707710266113,-8.405229568481445,28.879777908325195
1702137016703583700,18.157583740234376,7.598993301391602,-5.82310676574707,27.781375885009766
1702137016720572700,18.17457275390625,5.97857666015625,-3.842306613922119,25.674589157104492
1702137016737570800,18.19157080078125,2.684697389602661,-1.6008501052856445,24.026668548583984
1702137016754560000,18.20856005859375,1.2245585918426514,0.6691837310791016,20.848709106445312
1702137016771550500,18.225550537109374,2.9208250045776367,1.8183387517929077,20.794795989990234
1702137016788536600,18.24253662109375,4.901731491088867,2.9002208709716797,20.376544952392578
1702137016805538000,18.2595380859375,4.383388519287109,3.0513296127319336,19.195106506347656
1702137016822529500,18.276529541015623,3.3737378120422363,3.884033679962158,15.7111234664917
1702137016839522800,18.293522705078125,2.6819019317626953,4.189584255218506,13.417926788330078
1702137016856502500,18.31050244140625,3.10756254196167,3.552583932876587,12.587146759033203
1702137016873508400,18.32750830078125,3.4902572631835938,2.7543411254882812,11.947687149047852
1702137016890498600,18.34449853515625,2.7584023475646973,1.2493460178375244,10.659667015075684
1702137016907488000,18.361488037109375,2.403632402420044,-0.05576387047767639,7.822140693664551
1702137016924483300,18.3784833984375,2.404503583908081,-1.0092403888702393,5.198033332824707
1702137016941476900,18.395476806640627,2.1492362022399902,-2.0379509925842285,3.8932933807373047
1702137016958468000,18.412468017578124,1.5642626285552979,-2.8566837310791016,2.826775550842285
1702137016975448800,18.42944873046875,0.6532788276672363,-3.5831613540649414,1.9117612838745117
1702137016992445700,18.44644580078125,-0.38961148262023926,-4.245092391967773,1.0768089294433594
1702137017009438000,18.46343798828125,-0.499090313911438,-5.069490909576416,0.1291828155517578
1702137017026427100,18.48042724609375,0.527066707611084,-5.764271259307861,-0.8022909164428711
1702137017043421400,18.49742138671875,1.943921446800232,-6.288182735443115,-1.2992973327636719
1702137017060416500,18.51441650390625,2.866901397705078,-6.5954270362854,-1.1244783401489258
1702137017077407700,18.53140771484375,2.7291243076324463,-6.628143787384033,-0.7257900238037109
1702137017094402000,18.548402099609376,1.6587857007980347,-6.317620277404785,-0.6779212951660156
1702137017111390200,18.56539013671875,0.9750643372535706,-5.658910751342773,-1.1784067153930664
1702137017128387300,18.58238720703125,0.6022173762321472,-4.9975457191467285,-1.7164030075073242
1702137017145378000,18.5993779296875,0.6902527213096619,-4.562216281890869,-2.110138416290283
1702137017162368500,18.616368408203126,1.4258835315704346,-3.9916019439697266,-2.2922120094299316
1702137017179360300,18.6333603515625,2.638364791870117,-3.6854615211486816,-2.0183467864990234
1702137017196350200,18.65035009765625,3.5890872478485107,-3.0227088928222656,-1.7693686485290527
1702137017213347000,18.66734716796875,3.7575786113739014,-2.310237407684326,-1.5199775695800781
1702137017230339600,18.684339599609373,3.4102509021759033,-1.7467859983444214,-1.458033561706543
1702137017247342000,18.701342041015625,3.1191134452819824,-1.1784067153930664,-1.098978042602539
1702137017264331000,18.7183310546875,3.4283065795898438,-0.45454341173171997,0.024465560913085938
1702137017281324500,18.735324462890624,3.6163692474365234,0.4217400848865509,0.7345705032348633
1702137017298315800,18.752315673828125,3.2381105422973633,0.9349589943885803,1.6953039169311523
1702137017315298600,18.769298583984376,2.0827829837799072,1.2529000043869019,2.143948554992676
1702137017332300300,18.78630029296875,1.8607888221740723,1.457573413848877,1.9037151336669922
1702137017349293800,18.8032939453125,2.4977431297302246,1.7633355855941772,0.9808425903320312
1702137017366285300,18.820285400390624,3.1453027725219727,1.9928306341171265,0.8843984603881836
1702137017383278600,18.837278564453126,3.685542583465576,1.8289504051208496,2.323960304260254
1702137017400269600,18.85426953125,3.717649459838867,2.055675983428955,3.76029109954834
1702137017417254000,18.87125390625,3.0843420028686523,2.792647361755371,3.6638307571411133
1702137017434254600,18.888254638671874,1.8561012744903564,3.408416271209717,3.3820743560791016
1702137017451248400,18.905248291015624,0.7351348400115967,3.592353105545044,3.162212371826172
1702137017468239400,18.9222392578125,0.5601961612701416,3.3314332962036133,3.331155776977539
1702137017485230300,18.939230224609375,1.86440110206604,3.3456664085388184,4.085192680358887
1702137017502224400,18.956224365234377,3.0598857402801514,3.758112907409668,4.1366071701049805
1702137017519220500,18.973220458984375,3.281053304672241,4.732097148895264,3.0437870025634766
1702137017536209400,18.99020947265625,1.4097352027893066,5.6652302742004395,1.9978208541870117
1702137017553202400,19.007202392578126,-1.1426210403442383,6.187567710876465,2.0128488540649414
1702137017570193700,19.024193603515624,-4.620876312255859,6.378807067871094,2.250920295715332
1702137017587187200,19.041187255859374,-4.995625019073486,6.627509117126465,2.6895742416381836
1702137017604176000,19.05817578125,-4.783442974090576,7.126400470733643,3.089146614074707
1702137017621174500,19.075174560546873,-5.175059795379639,7.107588768005371,3.9319543838500977
1702137017638163200,19.0921630859375,-6.035498142242432,6.7339768409729,4.526673316955566
1702137017655147800,19.109147705078126,-5.978275299072266,5.741323471069336,5.400539398193359
1702137017672147700,19.126147705078125,-5.584992408752441,5.141096115112305,6.108850479125977
1702137017689141000,19.14314111328125,-5.02090311050415,4.384268760681152,6.017056465148926
1702137017706132700,19.1601328125,-4.063952922821045,2.948983669281006,4.366473197937012
1702137017723126000,19.1771259765625,-1.284533977508545,1.1146974563598633,2.6450247764587402
1702137017740117500,19.194117431640624,0.5281805992126465,-1.0540237426757812,1.1588044166564941
1702137017757110800,19.21111083984375,1.7078359127044678,-2.919226884841919,-0.49927520751953125
1702137017774105000,19.22810498046875,2.4072837829589844,-4.56060266494751,-2.1255314350128174
1702137017791095800,19.245095703125,2.5191500186920166,-5.707681655883789,-3.8162219524383545
1702137017808087300,19.26208740234375,2.9521889686584473,-6.674966812133789,-4.798892021179199
1702137017825082000,19.27908203125,3.613422393798828,-7.426052093505859,-5.636746406555176
1702137017842071300,19.2960712890625,4.267724514007568,-7.84236478805542,-6.427095413208008
1702137017859046100,19.313046142578123,4.522861957550049,-8.211756706237793,-6.657433032989502
1702137017876049000,19.330048828125,4.009287357330322,-8.58248519897461,-6.456164360046387
1702137017893049600,19.347049560546875,3.046128749847412,-8.91914176940918,-6.133241176605225
1702137017910041000,19.364041015625,1.879065990447998,-9.339336395263672,-5.997043609619141
1702137017927034400,19.381034423828126,0.8097565174102783,-9.990846633911133,-5.742779731750488
1702137017944025900,19.39802587890625,0.5150754451751709,-10.261731147766113,-4.36001443862915
1702137017961019100,19.41501904296875,0.0038945674896240234,-10.676797866821289,-4.629823207855225
1702137017978010400,19.43201025390625,-0.17284607887268066,-10.917142868041992,-5.620049476623535
1702137017995012000,19.44901220703125,-0.15276575088500977,-11.761580467224121,-6.578219890594482
1702137018011980000,19.46597998046875,0.46445441246032715,-13.75852108001709,-4.608219623565674
1702137018028988700,19.48298876953125,0.35230010747909546,-14.888290405273438,-1.5982000827789307
1702137018045967600,19.499967529296875,-1.6272461414337158,-15.683101654052734,1.0455565452575684
1702137018062973400,19.516973388671875,-4.271792888641357,-16.487777709960938,2.6789417266845703
1702137018079964700,19.533964599609376,-5.959681034088135,-17.707162857055664,4.387480735778809
1702137018096958200,19.550958251953126,-4.96791934967041,-18.529273986816406,7.313336372375488
1702137018113949200,19.56794921875,-4.07293176651001,-18.257339477539062,11.867288589477539
1702137018130940200,19.584940185546873,-5.066957473754883,-17.313514709472656,16.39529037475586
1702137018147932700,19.6019326171875,-7.58593225479126,-16.531448364257812,20.968887329101562
1702137018164931800,19.618931884765626,-9.59877872467041,-16.126291275024414,25.179441452026367
1702137018181918700,19.635918701171875,-9.80829906463623,-16.221290588378906,29.16545867919922
1702137018198903000,19.652903076171874,-8.685616493225098,-16.773027420043945,32.54329299926758
1702137018215888400,19.669888427734374,-6.738227844238281,-17.649486541748047,35.402156829833984
1702137018232897000,19.68689697265625,-4.590120315551758,-17.48097038269043,37.681968688964844
1702137018249888300,19.70388818359375,-2.3617687225341797,-16.049806594848633,39.12214660644531
1702137018266873600,19.72087353515625,-0.4469592273235321,-14.582784652709961,38.68791198730469
1702137018283873000,19.737873046875,2.8012514114379883,-13.305041313171387,37.13254165649414
1702137018300864000,19.754864013671874,4.938634395599365,-13.045770645141602,36.48027420043945
1702137018317860400,19.7718603515625,7.430410385131836,-12.745731353759766,36.26713943481445
1702137018334851000,19.78885107421875,10.2076416015625,-12.823568344116211,34.393795013427734
1702137018351829200,19.805829345703124,10.33895492553711,-12.772218704223633,32.65637969970703
1702137018368838700,19.822838623046874,8.587900161743164,-15.345914840698242,31.25968360900879
1702137018385824800,19.83982470703125,9.564961433410645,-18.765913009643555,29.29027557373047
1702137018402810000,19.85681005859375,13.048768997192383,-20.341232299804688,26.24720573425293
1702137018419814700,19.873814697265626,14.368498802185059,-19.78630828857422,24.07244300842285
1702137018436805400,19.890805419921875,14.070146560668945,-17.369205474853516,20.201322555541992
1702137018453796600,19.907796630859377,13.41549015045166,-15.04446029663086,16.80914878845215
1702137018470787600,19.92478759765625,12.645162582397461,-12.852503776550293,14.8622465133667
1702137018487784200,19.9417841796875,11.284931182861328,-12.694748878479004,15.08596420288086
1702137018504775000,19.95877490234375,11.109487533569336,-13.58543586730957,14.908642768859863
1702137018521766100,19.97576611328125,11.168390274047852,-13.955531120300293,13.418204307556152
1702137018538759700,19.992759765625,9.862868309020996,-14.79493522644043,12.297979354858398
1702137018555751000,20.0097509765625,6.700324058532715,-15.351106643676758,12.11113452911377
1702137018572733700,20.026733642578126,4.204233646392822,-14.144693374633789,12.43337631225586
1702137018589735400,20.0437353515625,2.59979510307312,-13.11170768737793,13.152412414550781
1702137018606727700,20.060727783203124,1.6539536714553833,-12.707944869995117,16.018753051757812
1702137018623721700,20.0777216796875,0.3598220646381378,-13.633398056030273,18.159072875976562
1702137018640713700,20.094713623046875,-2.316274642944336,-14.117914199829102,18.310924530029297
1702137018657705000,20.111705078125,-4.3541364669799805,-14.64499282836914,17.972545623779297
1702137018674698500,20.128698486328126,-4.839433193206787,-15.103790283203125,17.75487518310547
1702137018691687200,20.145687255859375,-3.8578221797943115,-15.242898941040039,17.60466766357422
1702137018708685800,20.162685791015626,-2.4687938690185547,-15.71602725982666,17.564144134521484
1702137018725674500,20.179674560546875,-1.8967175483703613,-16.077775955200195,16.941665649414062
1702137018742667800,20.196667724609377,-0.541907787322998,-15.563213348388672,14.761370658874512
1702137018759659300,20.2136591796875,0.7190806865692139,-14.54389762878418,13.399295806884766
1702137018776652800,20.23065283203125,-1.123795509338379,-14.442880630493164,12.67255687713623
1702137018793642200,20.247642333984373,-2.9308128356933594,-15.452610969543457,11.314817428588867
1702137018810639400,20.264639404296876,-1.1436347961425781,-15.687393188476562,9.831377029418945
1702137018827628800,20.28162890625,1.2009859085083008,-15.511899948120117,10.733987808227539
1702137018844621800,20.298621826171875,2.7119719982147217,-15.54700756072998,12.181615829467773
1702137018861613300,20.31561328125,3.5730972290039062,-14.37769889831543,10.880203247070312
1702137018878606600,20.332606689453126,6.495919704437256,-13.04153060913086,10.881638526916504
1702137018895583200,20.349583251953124,6.845775604248047,-13.212004661560059,14.011274337768555
1702137018912591600,20.366591552734373,6.000748157501221,-13.415891647338867,17.028274536132812
1702137018929569800,20.38356982421875,5.216649532318115,-11.468528747558594,17.631595611572266
1702137018946568200,20.400568115234375,3.7221596240997314,-11.221749305725098,19.867923736572266
1702137018963567400,20.4175673828125,2.2849345207214355,-11.607379913330078,22.925474166870117
1702137018980558000,20.43455810546875,2.102360248565674,-11.389081001281738,25.082374572753906
1702137018997555000,20.451554931640626,2.551861524581909,-11.08320140838623,28.001432418823242
1702137019014546400,20.46854638671875,1.9715542793273926,-10.085537910461426,30.844423294067383
1702137019031536400,20.485536376953124,-0.5319809913635254,-9.364605903625488,31.246185302734375
1702137019048530200,20.5025302734375,-1.525415062904358,-9.114128112792969,30.57737159729004
1702137019065511200,20.51951123046875,0.16369938850402832,-10.308504104614258,33.71513366699219
1702137019082515200,20.53651513671875,3.209742546081543,-11.236824035644531,38.052921295166016
1702137019099506400,20.55350634765625,4.439226150512695,-11.982622146606445,39.254150390625
1702137019116499700,20.570499755859377,5.1797332763671875,-14.844744682312012,41.44658660888672
1702137019133482800,20.587482666015624,6.968918800354004,-16.93844985961914,42.88333511352539
1702137019150484500,20.604484375,9.546947479248047,-15.96347427368164,43.953521728515625
1702137019167475700,20.621475830078126,11.637762069702148,-17.338178634643555,44.622867584228516
1702137019184470500,20.638470458984376,13.258087158203125,-20.291215896606445,44.88124084472656
1702137019201460700,20.655460693359377,15.015239715576172,-24.08908462524414,43.601261138916016
1702137019218454000,20.6724541015625,14.7203369140625,-26.289648056030273,38.02032470703125
1702137019235445500,20.689445556640624,13.86528205871582,-29.218212127685547,30.743797302246094
1702137019252438300,20.706438232421874,15.045180320739746,-30.104368209838867,24.629514694213867
1702137019269430000,20.723429931640624,14.208026885986328,-29.937644958496094,22.71241569519043
1702137019286412800,20.740412841796875,12.867774963378906,-28.47406005859375,20.23968505859375
1702137019303414800,20.757414794921875,9.923595428466797,-26.371322631835938,17.919082641601562
1702137019320409000,20.7744091796875,5.6918792724609375,-24.519357681274414,15.480728149414062
1702137019337398300,20.791398193359374,1.9762458801269531,-23.613243103027344,12.765299797058105
1702137019354382300,20.80838232421875,1.3616981506347656,-20.72321319580078,8.80905818939209
1702137019371383800,20.8253837890625,2.9240236282348633,-17.614044189453125,7.842160224914551
1702137019388377300,20.84237744140625,2.976024627685547,-16.09680938720703,10.216656684875488
1702137019405368600,20.85936865234375,0.12424182891845703,-15.38407039642334,10.484025955200195
1702137019422362000,20.876362060546874,-2.6135811805725098,-15.235697746276855,8.753922462463379
1702137019439353600,20.893353515625,-4.170337200164795,-14.189136505126953,5.055739879608154
1702137019456347000,20.910346923828126,-1.9493560791015625,-12.850862503051758,4.418670177459717
1702137019473335800,20.927335693359375,2.426558494567871,-12.713140487670898,8.383631706237793
1702137019490334000,20.944333984375,5.472914218902588,-13.257940292358398,13.814441680908203
1702137019507323000,20.961322998046874,7.677378177642822,-14.016157150268555,17.7159423828125
1702137019524316400,20.97831640625,7.9878692626953125,-14.9266357421875,17.799652099609375
1702137019541307600,20.9953076171875,7.7906293869018555,-16.308032989501953,16.755252838134766
1702137019558290400,21.01229052734375,7.545280456542969,-19.235015869140625,18.77631187438965
1702137019575282000,21.029281982421875,8.031606674194336,-21.62946891784668,23.78896713256836
1702137019592283100,21.046283203125,8.206869125366211,-23.67389678955078,29.70083999633789
1702137019609279500,21.063279541015625,8.127785682678223,-24.600269317626953,34.326622009277344
1702137019626270700,21.080270751953126,8.037397384643555,-24.02008628845215,33.483638763427734
1702137019643261700,21.09726171875,6.935879230499268,-25.08355140686035,32.81158447265625
1702137019660255200,21.114255126953125,5.506087303161621,-27.635557174682617,34.75608444213867
1702137019677233700,21.131233642578124,3.5091891288757324,-29.13132095336914,36.74628829956055
1702137019694229500,21.1482294921875,5.221834659576416,-28.48087501525879,34.86720657348633
1702137019711233800,21.16523388671875,6.848219871520996,-29.27191162109375,36.3707160949707
1702137019728214800,21.18221484375,7.326474189758301,-29.530277252197266,37.20637130737305
1702137019745207600,21.19920751953125,9.832746505737305,-28.620113372802734,38.182029724121094
1702137019762200800,21.216200927734373,10.487480163574219,-25.889842987060547,39.29209899902344
1702137019779190300,21.233190185546874,7.812540531158447,-21.57904624938965,37.338478088378906
1702137019796185900,21.250185791015625,6.454193115234375,-18.140140533447266,34.154300689697266
1702137019813185300,21.267185302734376,9.60000991821289,-16.298843383789062,32.0220832824707
1702137019830178600,21.284178466796874,12.979026794433594,-15.388361930847168,32.96340560913086
1702137019847170000,21.301170166015623,13.116583824157715,-13.079302787780762,32.90045166015625
1702137019864163600,21.31816357421875,10.169050216674805,-7.396380424499512,28.124582290649414
1702137019881164300,21.335164306640625,6.759914398193359,-3.916109085083008,26.247760772705078
1702137019898148400,21.3521484375,6.353396415710449,-1.6626020669937134,27.358524322509766
1702137019915139300,21.369139404296874,7.275854587554932,-0.2879831790924072,27.108844757080078
1702137019932130300,21.38613037109375,9.255922317504883,2.95693302154541,22.760883331298828
1702137019949126400,21.40312646484375,10.06496524810791,4.328928470611572,19.614883422851562
1702137019966117400,21.420117431640627,10.173760414123535,5.821688175201416,18.193016052246094
1702137019983098400,21.437098388671874,7.835601806640625,6.527669429779053,17.61581802368164
1702137020000102400,21.454102294921874,5.138493537902832,6.604067325592041,16.357568740844727
1702137020017091300,21.47109130859375,3.5704197883605957,6.354661464691162,13.734879493713379
1702137020034089500,21.48808935546875,3.584824562072754,5.267975807189941,11.423480033874512
1702137020051065000,21.505065185546876,5.261770248413086,4.092278003692627,9.297469139099121
1702137020068074200,21.52207421875,6.787827491760254,3.035238265991211,7.489917755126953
1702137020085063200,21.539063232421874,5.976263999938965,1.9671127796173096,6.477967262268066
1702137020102056700,21.556056640625,3.690779209136963,0.7803796529769897,5.687623023986816
1702137020119037200,21.573037109375,0.8307929039001465,-0.5680254697799683,5.3326520919799805
1702137020136022500,21.5900224609375,-0.28389811515808105,-1.6552766561508179,4.407233238220215
1702137020153032200,21.6070322265625,0.5402541160583496,-2.400188446044922,2.661503791809082
1702137020170032400,21.624032470703124,1.9644720554351807,-3.509202480316162,1.1232538223266602
1702137020187016200,21.64101611328125,2.962589979171753,-4.509390354156494,0.1684703826904297
1702137020204000000,21.658,2.505567789077759,-5.403103828430176,0.6796560287475586
