time,seconds_elapsed,z,y,x
1702137057408539000,0.106538818359375,2.776644706726074,2.021365165710449,0.6169968843460083
1702137057425524200,0.123524169921875,3.3381600379943848,2.379920482635498,1.0659962892532349
1702137057442524400,0.1405244140625,3.2338814735412598,2.71854829788208,1.1748197078704834
1702137057459507200,0.157507080078125,3.0863828659057617,2.8834681510925293,0.9941436052322388
1702137057476502000,0.174501953125,3.233341693878174,2.7367148399353027,0.35163044929504395
1702137057493500700,0.191500732421875,3.779871940612793,2.3265628814697266,-0.36195307970046997
1702137057510481400,0.2084814453125,3.6459689140319824,1.747476577758789,-0.6418551206588745
1702137057527480000,0.22547998046875,2.213531494140625,0.8828067779541016,-0.347123920917511
1702137057544477000,0.242476806640625,0.3556218147277832,0.049802303314208984,-0.478630006313324
1702137057561466600,0.259466552734375,-1.5055065155029297,-0.8367714881896973,-0.5273739099502563
1702137057578461200,0.276461181640625,-2.9899508953094482,-1.674656867980957,-0.7985122799873352
1702137057595446300,0.2934462890625,-4.615589141845703,-2.4038453102111816,-0.795822262763977
1702137057612436000,0.31043603515625,-5.211848258972168,-3.145608901977539,-1.2810050249099731
1702137057629437200,0.327437255859375,-4.554619789123535,-3.983166217803955,-1.991017460823059
1702137057646423300,0.34442333984375,-4.0286712646484375,-4.873813152313232,-2.8945772647857666
1702137057663427600,0.361427490234375,-4.092447757720947,-5.611870765686035,-3.3595757484436035
1702137057680409300,0.378409423828125,-5.073750019073486,-6.064261436462402,-3.235440254211426
1702137057697402000,0.395402099609375,-6.020689487457275,-6.500057220458984,-3.1049492359161377
1702137057714398500,0.4123984375,-7.019711494445801,-6.705979347229004,-2.6650848388671875
1702137057731391200,0.42939111328125,-7.096290588378906,-6.9618754386901855,-2.4567742347717285
1702137057748380400,0.44638037109375,-6.173379898071289,-7.410752296447754,-2.5074141025543213
1702137057765372200,0.4633720703125,-5.558732032775879,-8.085137367248535,-2.888068675994873
1702137057782365000,0.480364990234375,-5.070545196533203,-8.842016220092773,-3.9485232830047607
1702137057799358700,0.497358642578125,-4.532977104187012,-9.446398735046387,-4.699324607849121
1702137057816356900,0.51435693359375,-3.3851606845855713,-10.156991958618164,-3.830500841140747
1702137057833334000,0.531333984375,-1.6242363452911377,-10.030409812927246,-2.2549002170562744
1702137057850323000,0.548322998046875,-1.0201246738433838,-9.80729866027832,-0.5571413040161133
1702137057867317000,0.56531689453125,-1.878199577331543,-9.84852409362793,0.7511863708496094
1702137057884309200,0.582309326171875,-3.0001888275146484,-10.519371032714844,2.475594997406006
1702137057901303000,0.599302978515625,-3.9429969787597656,-11.162382125854492,4.447812080383301
1702137057918295600,0.616295654296875,-3.123274564743042,-11.533143997192383,7.717282772064209
1702137057935286500,0.63328662109375,-1.8079259395599365,-11.083382606506348,9.805509567260742
1702137057952278800,0.65027880859375,-2.715494155883789,-10.433284759521484,11.417956352233887
1702137057969273600,0.667273681640625,-4.0788044929504395,-9.122745513916016,13.519693374633789
1702137057986260700,0.6842607421875,-6.48386812210083,-8.984580039978027,17.88351821899414
1702137058003260200,0.70126025390625,-6.944952964782715,-8.68522834777832,21.116744995117188
1702137058020246800,0.718246826171875,-6.968216896057129,-8.261940002441406,21.43316650390625
1702137058037242600,0.73524267578125,-6.898131370544434,-9.120455741882324,22.528926849365234
1702137058054231600,0.7522314453125,-4.712709903717041,-9.986186981201172,23.85795783996582
1702137058071224800,0.769224853515625,0.23411870002746582,-8.816971778869629,24.27310562133789
1702137058088215800,0.7862158203125,4.496420383453369,-6.469933986663818,25.260683059692383
1702137058105209000,0.803208984375,6.0342512130737305,-3.4133689403533936,27.090999603271484
1702137058122202000,0.8202021484375,4.8379716873168945,-0.8415133953094482,27.508939743041992
1702137058139194400,0.8371943359375,1.244879961013794,-0.6553905010223389,28.683109283447266
1702137058156191700,0.854191650390625,0.437297523021698,-2.841512680053711,32.69855499267578
1702137058173186000,0.87118603515625,4.2323455810546875,-5.571916103363037,35.25199508666992
1702137058190189300,0.888189208984375,8.614628791809082,-9.00248908996582,35.39019012451172
1702137058207168500,0.90516845703125,13.51626968383789,-11.493062973022461,31.67440414428711
1702137058224163600,0.92216357421875,17.956878662109375,-12.472095489501953,25.81766700744629
1702137058241154800,0.93915478515625,20.707740783691406,-13.438881874084473,21.47256851196289
1702137058258149000,0.956149169921875,21.53169822692871,-14.185064315795898,17.953184127807617
1702137058275127000,0.973126953125,20.27685546875,-14.81295394897461,14.655000686645508
1702137058292134400,0.990134521484375,18.86642074584961,-15.649484634399414,12.950940132141113
1702137058309125400,1.00712548828125,18.529268264770508,-16.86625862121582,13.064480781555176
1702137058326113800,1.02411376953125,18.449548721313477,-17.98556137084961,13.879945755004883
1702137058343108400,1.0411083984375,17.60882568359375,-18.74907875061035,14.306400299072266
1702137058360095000,1.058094970703125,15.743518829345703,-18.64297103881836,13.773748397827148
1702137058377090000,1.075090087890625,13.502252578735352,-18.790756225585938,14.25143051147461
1702137058394086100,1.092086181640625,11.32642650604248,-18.486656188964844,15.966634750366211
1702137058411067000,1.10906689453125,9.056903839111328,-15.776721954345703,15.807304382324219
1702137058428071000,1.12607080078125,9.076648712158203,-10.509370803833008,12.585081100463867
1702137058445058600,1.14305859375,10.431855201721191,-7.795652389526367,11.698230743408203
1702137058462053400,1.160053466796875,9.676228523254395,-6.554893970489502,11.925440788269043
1702137058479048000,1.1770478515625,7.542036533355713,-4.474649429321289,10.46025562286377
1702137058496041000,1.194041015625,5.755800724029541,-1.7062129974365234,8.317415237426758
1702137058513028000,1.211028076171875,3.702263116836548,-2.962777853012085,11.63326358795166
1702137058530026200,1.228026123046875,1.897973895072937,-5.253812789916992,14.530006408691406
1702137058547012000,1.24501220703125,2.3816518783569336,-8.224191665649414,16.846881866455078
1702137058564009000,1.262009033203125,4.24928092956543,-10.726319313049316,18.328296661376953
1702137058580997400,1.278997314453125,4.874085426330566,-12.4451265335083,18.103836059570312
1702137058597993200,1.2959931640625,4.23666524887085,-13.787683486938477,16.402223587036133
1702137058614981000,1.312981201171875,4.314863204956055,-13.197007179260254,13.666728973388672
1702137058631965200,1.329965087890625,2.673906087875366,-12.549880981445312,11.656002044677734
1702137058648969000,1.346968994140625,-0.36246347427368164,-12.04434871673584,7.986056327819824
1702137058665958000,1.3639580078125,-0.8512773513793945,-11.172165870666504,3.473597764968872
1702137058682952700,1.38095263671875,0.618504524230957,-12.266555786132812,2.5941731929779053
1702137058699947500,1.397947509765625,1.965965747833252,-14.849604606628418,6.13399600982666
1702137058716941300,1.41494140625,1.2299842834472656,-17.483936309814453,9.536694526672363
1702137058733920800,1.431920654296875,1.281205177307129,-19.026344299316406,8.261658668518066
1702137058750920400,1.44892041015625,0.5423293113708496,-19.862991333007812,5.140618324279785
1702137058767914200,1.465914306640625,1.7815885543823242,-21.01148223876953,2.313169240951538
1702137058784905000,1.482905029296875,7.882481575012207,-22.25480079650879,3.807065010070801
1702137058801899500,1.4998994140625,15.622971534729004,-17.101581573486328,11.17570686340332
1702137058818892300,1.516892333984375,12.130467414855957,-13.124269485473633,19.749164581298828
1702137058835879700,1.533879638671875,0.3805668354034424,-11.040105819702148,19.775026321411133
1702137058852874000,1.5508740234375,-9.250889778137207,-12.822846412658691,17.993696212768555
1702137058869868300,1.567868408203125,-3.8512771129608154,-16.356006622314453,22.327281951904297
1702137058886853600,1.584853515625,5.385474681854248,-17.39375877380371,28.729745864868164
1702137058903854300,1.601854248046875,7.774842262268066,-16.24740219116211,32.750606536865234
1702137058920842800,1.6188427734375,5.381301403045654,-14.859291076660156,32.4834098815918
1702137058937837000,1.635837158203125,3.67995548248291,-14.735239028930664,34.0462646484375
1702137058954825700,1.65282568359375,5.920215606689453,-16.157432556152344,38.63252258300781
1702137058971809300,1.669809326171875,8.27562141418457,-19.586368560791016,42.93391418457031
1702137058988813300,1.686813232421875,11.345200538635254,-23.03803825378418,43.6963996887207
1702137059005801700,1.7038017578125,15.928106307983398,-25.159841537475586,41.569725036621094
1702137059022786000,1.7207861328125,21.269996643066406,-25.57815170288086,40.1303825378418
1702137059039789800,1.737789794921875,20.656644821166992,-26.436153411865234,39.781166076660156
1702137059056778000,1.754778076171875,17.760608673095703,-29.405715942382812,38.601837158203125
1702137059073773800,1.77177392578125,18.633005142211914,-32.45807647705078,35.67506408691406
1702137059090765000,1.78876513671875,20.722278594970703,-35.05779266357422,29.99738311767578
1702137059107756300,1.80575634765625,21.033489227294922,-36.379852294921875,23.518714904785156
1702137059124752100,1.822752197265625,20.421964645385742,-33.324188232421875,16.602582931518555
1702137059141742000,1.8397421875,18.793909072875977,-29.65778350830078,15.27548599243164
1702137059158739000,1.856739013671875,15.048460960388184,-27.691383361816406,17.701412200927734
1702137059175720000,1.873719970703125,8.905021667480469,-28.216840744018555,19.206424713134766
1702137059192717800,1.8907177734375,2.738166332244873,-28.19230079650879,15.43673324584961
1702137059209712400,1.90771240234375,1.0810132026672363,-25.908721923828125,8.646347999572754
1702137059226700300,1.9247001953125,3.615938186645508,-22.750675201416016,5.550168037414551
1702137059243693000,1.941693115234375,6.108121871948242,-19.36643409729004,6.938798427581787
1702137059260690400,1.9586904296875,3.6600661277770996,-17.376628875732422,10.179742813110352
1702137059277685200,1.975685302734375,0.10268592834472656,-16.817974090576172,11.165733337402344
1702137059294672600,1.992672607421875,-0.6687498092651367,-16.4791316986084,9.005261421203613
1702137059311653600,2.009653564453125,1.9841299057006836,-15.922087669372559,8.02733039855957
1702137059328657700,2.02665771484375,4.850600719451904,-15.646507263183594,9.993638038635254
1702137059345633000,2.043633056640625,5.920178413391113,-15.700447082519531,13.898030281066895
1702137059362641200,2.06064111328125,5.7714643478393555,-16.25640869140625,16.3833065032959
1702137059379635700,2.0776357421875,5.825516700744629,-18.03171157836914,17.271987915039062
1702137059396618800,2.09461865234375,5.920452117919922,-20.595327377319336,17.514535903930664
1702137059413612500,2.111612548828125,5.719618797302246,-22.23455047607422,17.434614181518555
1702137059430607600,2.128607666015625,5.156113147735596,-23.691482543945312,20.177684783935547
1702137059447600000,2.14560009765625,5.265727996826172,-25.693761825561523,26.122085571289062
1702137059464599600,2.162599609375,6.127569675445557,-26.824729919433594,29.97882080078125
1702137059481586700,2.179586669921875,6.342288970947266,-27.65899085998535,28.64143180847168
1702137059498567400,2.1965673828125,6.809892654418945,-30.282508850097656,26.034631729125977
1702137059515567600,2.213567626953125,8.997207641601562,-33.09855270385742,27.58622169494629
1702137059532562000,2.23056201171875,8.740757942199707,-29.1728572845459,31.24017906188965
1702137059549556000,2.247555908203125,6.261148452758789,-28.740928649902344,31.67780113220215
1702137059566547700,2.264547607421875,7.638227462768555,-26.679359436035156,26.997385025024414
1702137059583532800,2.28153271484375,9.82335376739502,-26.701801300048828,26.972686767578125
1702137059600530700,2.29853076171875,10.730405807495117,-27.690807342529297,30.572603225708008
1702137059617519400,2.315519287109375,11.572590827941895,-26.736984252929688,32.84425735473633
1702137059634518500,2.3325185546875,12.47265625,-22.324325561523438,34.079978942871094
1702137059651497500,2.34949755859375,10.2613525390625,-18.62861442565918,33.6157112121582
1702137059668501000,2.3665009765625,5.701752662658691,-16.226627349853516,31.63092803955078
1702137059685489700,2.38348974609375,4.8612260818481445,-13.501384735107422,29.22895050048828
1702137059702484200,2.400484130859375,7.269894123077393,-11.365372657775879,29.833850860595703
1702137059719478000,2.41747802734375,11.531341552734375,-9.730270385742188,33.60221481323242
1702137059736466000,2.4344658203125,7.835090637207031,-6.905442237854004,32.89315414428711
1702137059753461800,2.451461669921875,0.6919949054718018,-4.929374694824219,26.549224853515625
1702137059770442800,2.46844287109375,-0.36614990234375,-2.0509226322174072,20.76634979248047
1702137059787438800,2.48543896484375,3.2003512382507324,-1.275657296180725,20.83446502685547
1702137059804440300,2.5024404296875,6.565638065338135,-0.7619009017944336,22.70591926574707
1702137059821443000,2.519443115234375,4.69193172454834,0.288698673248291,23.16539764404297
1702137059838423600,2.536423583984375,0.3638570308685303,1.3546329736709595,19.59156608581543
1702137059855411500,2.553411376953125,-0.5189046859741211,2.2744226455688477,14.701162338256836
1702137059872406000,2.570406005859375,1.253974199295044,2.6320180892944336,12.481761932373047
1702137059889400300,2.587400390625,3.3945467472076416,2.4489965438842773,11.54104232788086
1702137059906380800,2.604380859375,2.348104476928711,2.306647300720215,10.897796630859375
1702137059923383000,2.621383056640625,-0.4830284118652344,2.017319440841675,9.631900787353516
1702137059940375800,2.638375732421875,-2.6069130897521973,2.0888748168945312,7.836512565612793
1702137059957365000,2.655364990234375,-2.7788095474243164,2.3103175163269043,6.080134391784668
1702137059974349800,2.672349853515625,-1.8261693716049194,2.2286603450775146,4.590276718139648
1702137059991352600,2.6893525390625,-0.3483741283416748,2.2152020931243896,3.9508724212646484
1702137060008345300,2.706345458984375,0.3856532573699951,2.2208685874938965,4.572155952453613
1702137060025334000,2.723333984375,-0.658759593963623,1.9231483936309814,5.0632781982421875
1702137060042327300,2.740327392578125,-1.7675018310546875,1.7931632995605469,4.138202667236328
1702137060059321900,2.75732177734375,-1.9947271347045898,1.613708734512329,2.99800968170166
1702137060076310000,2.77431005859375,-1.197995662689209,1.3488259315490723,2.1097278594970703
1702137060093292800,2.791292724609375,-0.15403389930725098,1.503273606300354,1.4900331497192383
1702137060110281700,2.80828173828125,0.25965332984924316,1.286643385887146,1.8057661056518555
1702137060127284500,2.825284423828125,0.4315507411956787,1.1583952903747559,1.7641172409057617
1702137060144284200,2.8422841796875,0.32712745666503906,0.836510419845581,1.3333683013916016
1702137060161272000,2.85927197265625,0.9766472578048706,0.46285438537597656,0.6719903945922852
1702137060178269000,2.87626904296875,2.340989112854004,1.3685134649276733,0.5022735595703125
1702137060195255600,2.893255615234375,0.7938055992126465,1.8005163669586182,1.3732728958129883
1702137060212249900,2.910249755859375,-0.7248578071594238,1.4116133451461792,2.4336719512939453
1702137060229244200,2.927244140625,-0.2991963326931,1.2166773080825806,1.9599132537841797
1702137060246228000,2.94422802734375,1.3369929790496826,0.9919867515563965,1.367539405822754
1702137060263231000,2.96123095703125,3.4435720443725586,1.5362565517425537,1.3858537673950195
1702137060280220400,2.978220458984375,3.8302457332611084,2.4500551223754883,2.492764472961426
1702137060297209000,2.995208984375,1.2392702102661133,2.443943500518799,4.655834197998047
1702137060314193700,3.012193603515625,-1.3776828050613403,1.8571425676345825,7.3065948486328125
1702137060331195600,3.029195556640625,-1.8994264602661133,1.5679357051849365,8.565630912780762
1702137060348189200,3.046189208984375,0.7862495183944702,1.0108177661895752,9.078533172607422
1702137060365177900,3.063177734375,3.173701286315918,1.8633031845092773,8.023221015930176
1702137060382172200,3.080172119140625,0.2629331350326538,0.8446085453033447,8.379257202148438
1702137060399164400,3.097164306640625,-2.752694606781006,0.7013030052185059,8.535548210144043
1702137060416152800,3.11415283203125,-3.893305778503418,0.18350553512573242,7.363018989562988
1702137060433150000,3.13114990234375,-0.8998630046844482,0.11847782135009766,5.382797718048096
1702137060450133800,3.1481337890625,1.0330873727798462,-1.1890788078308105,3.3856449127197266
1702137060467134200,3.16513427734375,1.5682532787322998,-2.736528158187866,0.2659783363342285
1702137060484115500,3.182115478515625,1.4333233833312988,-4.173946380615234,-2.8181543350219727
1702137060501119000,3.199118896484375,2.5420868396759033,-5.173312664031982,-4.017117500305176
1702137060518111000,3.216111083984375,2.8288235664367676,-6.056285381317139,-4.967385768890381
1702137060535103200,3.233103271484375,1.1793125867843628,-6.987087249755859,-5.814170837402344
1702137060552082400,3.25008251953125,-0.4922292232513428,-7.529264450073242,-6.484986305236816
1702137060569076500,3.267076416015625,-1.551088809967041,-7.982759475708008,-6.889688491821289
1702137060586080500,3.28408056640625,-1.891690731048584,-8.443381309509277,-7.387735366821289
1702137060603073300,3.3010732421875,-1.7940683364868164,-9.180597305297852,-7.403914928436279
1702137060620063500,3.3180634765625,-0.37346410751342773,-9.862374305725098,-6.007723331451416
1702137060637046300,3.33504638671875,-0.7940607070922852,-10.274354934692383,-7.734424591064453
1702137060654048500,3.352048583984375,0.5875464677810669,-10.406159400939941,-6.6207146644592285
1702137060671040500,3.36904052734375,1.1388850212097168,-10.558445930480957,-6.265204906463623
1702137060688015400,3.386015380859375,0.4057645797729492,-10.741460800170898,-6.838238716125488
1702137060705025500,3.403025634765625,-1.4206911325454712,-10.860567092895508,-6.628549575805664
1702137060722016800,3.420016845703125,-3.813009262084961,-11.752222061157227,-6.392974853515625
1702137060739009000,3.437009033203125,-5.480005741119385,-12.928496360778809,-6.055630683898926
1702137060756001500,3.45400146484375,-4.0194621086120605,-14.272342681884766,-5.833880424499512
1702137060772983600,3.470983642578125,-1.9497721195220947,-15.618648529052734,-5.567855358123779
1702137060789986000,3.487986083984375,-1.1458529233932495,-16.40472412109375,-4.839232921600342
1702137060806975700,3.504975830078125,-1.1137685775756836,-17.63028335571289,-2.856689929962158
1702137060823972400,3.521972412109375,-2.201920509338379,-18.7885684967041,2.1767706871032715
1702137060840960500,3.53896044921875,-2.366842269897461,-19.915481567382812,8.53828239440918
1702137060857954600,3.55595458984375,-3.7023496627807617,-19.901142120361328,14.133279800415039
1702137060874935600,3.572935546875,-3.686638832092285,-19.542360305786133,15.953035354614258
1702137060891930000,3.58993017578125,-2.6274075508117676,-18.628456115722656,19.03365135192871
1702137060908924400,3.60692431640625,-2.0144853591918945,-17.400949478149414,26.641935348510742
1702137060925923000,3.623923095703125,-3.7944071292877197,-15.2777099609375,34.654666900634766
1702137060942918100,3.640918212890625,-9.281490325927734,-12.470171928405762,37.069087982177734
1702137060959907800,3.657907958984375,-11.71452522277832,-11.300972938537598,34.851871490478516
1702137060976900600,3.674900634765625,-6.608419895172119,-12.290550231933594,36.36085510253906
1702137060993892400,3.691892333984375,-1.3655213117599487,-12.805274963378906,38.45713424682617
1702137061010884400,3.70888427734375,2.0937185287475586,-11.049785614013672,38.78009796142578
1702137061027876400,3.72587646484375,4.289594650268555,-8.323446273803711,39.45595169067383
1702137061044868900,3.742868896484375,5.301334381103516,-5.575137138366699,41.531524658203125
1702137061061861000,3.759861083984375,5.193892955780029,-6.000519275665283,43.38580322265625
1702137061078853400,3.776853271484375,6.636450290679932,-8.273308753967285,43.43157196044922
1702137061095845400,3.793845458984375,10.67300033569336,-11.499561309814453,42.936012268066406
1702137061112837600,3.810837646484375,14.099052429199219,-14.056057929992676,39.2236328125
1702137061129829400,3.827829345703125,15.414484977722168,-16.509883880615234,35.70585250854492
1702137061146822700,3.84482275390625,13.692277908325195,-18.985820770263672,32.41223907470703
1702137061163814100,3.861814208984375,11.933462142944336,-20.82663345336914,29.584009170532227
1702137061180806700,3.878806640625,11.693666458129883,-21.79848861694336,27.212642669677734
1702137061197798700,3.895798583984375,13.015806198120117,-20.849149703979492,26.25469970703125
1702137061214791000,3.912791015625,13.908927917480469,-18.554012298583984,25.290664672851562
1702137061231772700,3.929772705078125,13.471039772033691,-15.392574310302734,23.339406967163086
1702137061248775400,3.946775390625,10.17134952545166,-12.758585929870605,22.631126403808594
1702137061265756700,3.963756591796875,6.493340492248535,-10.674041748046875,22.555509567260742
1702137061282759700,3.980759765625,3.8990273475646973,-9.838337898254395,22.710886001586914
1702137061299748900,3.997748779296875,2.8292198181152344,-10.775803565979004,22.42399787902832
1702137061316744400,4.014744384765625,5.0321431159973145,-10.167825698852539,18.99363136291504
1702137061333726000,4.031725830078125,3.4486217498779297,-10.298405647277832,18.6260986328125
1702137061350733800,4.04873388671875,2.1086387634277344,-9.793275833129883,18.37919044494629
1702137061367714300,4.06571435546875,0.8921834230422974,-9.283832550048828,19.6920166015625
1702137061384708600,4.08270849609375,-2.3128647804260254,-9.105785369873047,22.289501190185547
1702137061401698300,4.0996982421875,-7.486322402954102,-9.02393913269043,24.506589889526367
1702137061418688800,4.116688720703125,-10.909414291381836,-9.43835163116455,23.515117645263672
1702137061435681300,4.133681396484375,-10.970759391784668,-10.286752700805664,21.03009796142578
1702137061452672800,4.1506728515625,-8.032546043395996,-10.248948097229004,18.016101837158203
1702137061469667000,4.1676669921875,-5.035419940948486,-9.28114128112793,16.067829132080078
1702137061486658300,4.184658203125,-2.179426670074463,-7.369548797607422,15.09523868560791
1702137061503651600,4.201651611328125,-2.7109251022338867,-6.024688720703125,13.934991836547852
1702137061520643000,4.21864306640625,-2.670522689819336,-6.0975542068481445,11.477577209472656
1702137061537632500,4.235632568359375,-1.3482980728149414,-6.427183151245117,8.965627670288086
1702137061554629400,4.25262939453125,-0.13952922821044922,-8.833572387695312,7.695828437805176
1702137061571608800,4.26960888671875,1.7447700500488281,-12.414453506469727,8.348047256469727
1702137061588614700,4.28661474609375,2.54463529586792,-16.28278923034668,8.178715705871582
1702137061605607400,4.303607421875,3.9927725791931152,-19.29014015197754,6.849301338195801
1702137061622601200,4.320601318359375,6.501950740814209,-19.835599899291992,7.117773532867432
1702137061639584500,4.33758447265625,7.029637813568115,-20.372215270996094,12.396567344665527
1702137061656572700,4.35457275390625,6.611130714416504,-19.490798950195312,17.04837417602539
1702137061673573000,4.371572998046875,7.955694675445557,-16.744306564331055,17.054237365722656
1702137061690562600,4.3885625,9.219757080078125,-15.316720962524414,17.461868286132812
1702137061707558000,4.405557861328125,8.208102226257324,-15.74234390258789,19.866531372070312
1702137061724555300,4.42255517578125,6.26182746887207,-15.158885955810547,20.429643630981445
1702137061741538300,4.439538330078125,5.118869781494141,-13.538983345031738,21.12886619567871
1702137061758538500,4.45653857421875,3.074800491333008,-12.973138809204102,27.06476593017578
1702137061775535900,4.473535888671875,-1.806027889251709,-12.33539867401123,33.94792175292969
1702137061792525800,4.49052587890625,-3.3162834644317627,-11.15152645111084,36.83264923095703
1702137061809517800,4.507517822265625,-0.2785604000091553,-11.295978546142578,37.57072067260742
1702137061826509600,4.524509521484375,2.5488710403442383,-13.620161056518555,40.344966888427734
1702137061843501800,4.541501708984375,4.093379974365234,-16.516521453857422,41.976966857910156
1702137061860494600,4.55849462890625,7.450326919555664,-19.161666870117188,42.84934997558594
1702137061877465300,4.57546533203125,11.525970458984375,-20.789409637451172,45.68967819213867
1702137061894470100,4.59247021484375,13.282188415527344,-22.24704933166504,47.779972076416016
1702137061911472400,4.609472412109375,14.384963989257812,-23.165311813354492,47.81412124633789
1702137061928461800,4.6264619140625,15.751959800720215,-24.605953216552734,46.00752639770508
1702137061945455000,4.643455078125,16.91927146911621,-27.977519989013672,41.66740417480469
1702137061962447400,4.660447265625,18.57912254333496,-30.51580238342285,36.37950897216797
1702137061979439600,4.677439697265625,19.026947021484375,-30.177398681640625,32.367000579833984
1702137061996432000,4.694431884765625,16.838653564453125,-31.713159561157227,30.74689483642578
1702137062013424000,4.711424072265625,13.701732635498047,-32.788124084472656,27.086355209350586
1702137062030405600,4.728405517578125,9.960405349731445,-33.09720993041992,23.320816040039062
1702137062047407000,4.745406982421875,6.618741989135742,-32.07993698120117,20.164587020874023
1702137062064401700,4.762401611328125,3.5795836448669434,-30.23123550415039,15.645631790161133
1702137062081393000,4.779392822265625,1.010098934173584,-27.256153106689453,10.192429542541504
1702137062098385000,4.796385009765625,-0.48296117782592773,-22.070030212402344,7.809795379638672
1702137062115363800,4.81336376953125,-1.8614530563354492,-18.125642776489258,9.022241592407227
1702137062132369700,4.83036962890625,-2.269998550415039,-15.54345989227295,10.513412475585938
1702137062149363200,4.84736328125,-1.271653175354004,-13.542427062988281,9.189017295837402
1702137062166352000,4.864351806640625,0.15028667449951172,-11.769402503967285,7.71806001663208
1702137062183345700,4.881345703125,0.2630634307861328,-10.24257755279541,8.71150016784668
1702137062200334600,4.89833447265625,0.15480756759643555,-8.552924156188965,11.161930084228516
1702137062217334000,4.915333984375,0.7756567001342773,-7.909982681274414,13.406173706054688
1702137062234325000,4.932324951171875,1.8253746032714844,-8.314138412475586,13.689788818359375
1702137062251312000,4.94931201171875,2.2131032943725586,-9.62745189666748,13.62082576751709
1702137062268296700,4.966296630859375,2.335510492324829,-9.871366500854492,12.404215812683105
1702137062285299000,4.983298828125,3.087820529937744,-10.046806335449219,11.871002197265625
1702137062302291500,5.00029150390625,3.162322998046875,-10.936795234680176,13.252952575683594
1702137062319283000,5.017282958984375,2.7266225814819336,-12.703676223754883,19.172574996948242
1702137062336275700,5.034275634765625,2.324613094329834,-14.023938179016113,22.735042572021484
1702137062353267700,5.051267822265625,2.364560604095459,-14.789855003356934,21.68924331665039
1702137062370257400,5.06825732421875,1.5820378065109253,-17.908849716186523,19.537677764892578
1702137062387244800,5.085244873046875,2.368234872817993,-22.954792022705078,18.85788345336914
1702137062404245200,5.102245361328125,5.244526386260986,-30.159372329711914,24.162118911743164
1702137062421236500,5.119236572265625,10.77270793914795,-31.949573516845703,30.72406768798828
1702137062438228700,5.136228759765625,10.537799835205078,-28.749401092529297,31.105722427368164
1702137062455220700,5.153220703125,4.689417839050293,-28.248220443725586,28.610754013061523
1702137062472213500,5.170213623046875,0.18422508239746094,-29.371295928955078,26.69449806213379
1702137062489206300,5.187206298828125,2.0371432304382324,-32.41948318481445,25.560230255126953
1702137062506194000,5.20419384765625,6.260654926300049,-36.89561462402344,32.05575942993164
1702137062523191800,5.22119189453125,15.676753997802734,-33.792236328125,39.899253845214844
1702137062540182000,5.23818212890625,17.048683166503906,-28.14936637878418,37.791473388671875
1702137062557163800,5.255163818359375,10.530316352844238,-24.17445945739746,31.998981475830078
1702137062574166300,5.272166259765625,3.321317195892334,-24.320556640625,29.718835830688477
1702137062591158300,5.289158203125,1.5371270179748535,-22.203161239624023,26.56774139404297
1702137062608150800,5.30615087890625,7.2178850173950195,-21.043411254882812,28.17671012878418
1702137062625138400,5.323138427734375,11.665938377380371,-19.66761016845703,33.63004684448242
1702137062642139400,5.340139404296875,12.305211067199707,-17.13520622253418,32.89545440673828
1702137062659127000,5.357126953125,8.00250244140625,-12.536689758300781,25.350671768188477
1702137062676119600,5.37411962890625,3.436147689819336,-11.301469802856445,24.115848541259766
1702137062693111800,5.39111181640625,1.963857650756836,-9.388275146484375,24.100505828857422
1702137062710095000,5.40809521484375,3.294961929321289,-8.688302040100098,26.0189151763916
1702137062727095800,5.425095703125,9.222549438476562,-7.132660865783691,23.40015411376953
1702137062744085800,5.442085693359375,13.62717056274414,-3.4954514503479004,18.885393142700195
1702137062761083400,5.45908349609375,10.664266586303711,-0.395538330078125,19.05990982055664
1702137062778072800,5.47607275390625,3.9503235816955566,1.413062572479248,21.190481185913086
1702137062795064600,5.493064697265625,0.28872203826904297,4.274543762207031,20.214853286743164
1702137062812057300,5.510057373046875,0.5929360389709473,5.265017986297607,18.129520416259766
1702137062829049300,5.52704931640625,4.922800540924072,5.261967658996582,14.07761287689209
1702137062846038500,5.54403857421875,9.422910690307617,6.184381484985352,9.87678337097168
1702137062863036200,5.5610361328125,8.76053237915039,5.510106563568115,8.251029968261719
1702137062880026400,5.5780263671875,4.552180290222168,4.583452224731445,7.768808364868164
1702137062897018000,5.59501806640625,-0.31494033336639404,3.806903600692749,8.474586486816406
1702137062914010400,5.61201025390625,-2.3459460735321045,3.5698909759521484,8.435409545898438
1702137062931002000,5.629002197265625,-1.450956106185913,3.536952495574951,6.493649482727051
1702137062947995000,5.645994873046875,-0.36343085765838623,2.771181344985962,4.323154449462891
1702137062964990500,5.662990478515625,0.43580174446105957,2.101567029953003,2.4446468353271484
1702137062981979000,5.679978759765625,0.6496509313583374,1.7057826519012451,1.1090607643127441
1702137062998967600,5.696967529296875,0.38956117630004883,1.3921406269073486,0.4956512451171875
1702137063015966700,5.713966796875,-0.010434508323669434,0.9364142417907715,0.9472160339355469
1702137063032955600,5.73095556640625,0.20125824213027954,0.9547080993652344,1.067122459411621
1702137063049947600,5.74794775390625,0.4947342872619629,1.0826797485351562,1.3935394287109375
1702137063066940400,5.7649404296875,0.6588048338890076,1.4183950424194336,1.4508962631225586
1702137063083922000,5.781921875,0.7272416353225708,1.4103660583496094,1.556138038635254
1702137063100924700,5.798924560546875,1.1431005001068115,1.3998732566833496,2.124924659729004
1702137063117916700,5.815916748046875,1.6281766891479492,1.2699706554412842,3.3040361404418945
1702137063134908200,5.832908203125,1.5264952182769775,1.2335236072540283,4.4455156326293945
1702137063151901200,5.849901123046875,1.7048548460006714,1.4429681301116943,5.120382308959961
1702137063168893200,5.86689306640625,3.274553060531616,1.1573927402496338,4.6934003829956055
1702137063185883100,5.883883056640625,5.445954322814941,-0.4266338348388672,4.567203521728516
1702137063202879200,5.900879150390625,7.723763465881348,-2.1700246334075928,4.730219841003418
1702137063219869700,5.91786962890625,9.1837739944458,-3.3189635276794434,4.320197105407715
1702137063236861700,5.93486181640625,9.042009353637695,-4.0000104904174805,3.526717185974121
1702137063253854000,5.95185400390625,7.945768356323242,-4.484851360321045,2.6585750579833984
1702137063270846000,5.968845947265625,6.534600734710693,-4.570339679718018,1.4775819778442383
1702137063287838500,5.98583837890625,4.992495536804199,-4.851891040802002,0.8303909301757812
1702137063304830700,6.002830810546875,4.391989231109619,-5.2414774894714355,0.0991964340209961
1702137063321822700,6.01982275390625,4.066832542419434,-5.8621931076049805,-1.1165509223937988
1702137063338814700,6.036814697265625,4.001983165740967,-6.374034881591797,-2.6390461921691895
1702137063355807700,6.053807861328125,3.5537712574005127,-6.035035133361816,-4.17240047454834
1702137063372796700,6.070796630859375,1.5204743146896362,-5.679333209991455,-4.8891282081604
1702137063389790200,6.087790283203125,-0.8695063591003418,-5.221433162689209,-5.520633220672607
1702137063406785800,6.104785888671875,-2.248283863067627,-4.949771404266357,-6.11252498626709
1702137063423776000,6.12177587890625,-2.0398330688476562,-4.600305557250977,-6.270880699157715
1702137063440766000,6.138765869140625,-0.8622184991836548,-3.8748984336853027,-5.7847418785095215
1702137063457760500,6.155760498046875,-0.08304029703140259,-2.5826163291931152,-5.145745277404785
1702137063474745900,6.172745849609375,-0.26410794258117676,-1.1741843223571777,-3.737295627593994
1702137063491734800,6.18973486328125,-1.8152955770492554,0.35788846015930176,-1.9509577751159668
1702137063508730600,6.206730712890625,-3.1730518341064453,2.100342035293579,-0.5581264495849609
1702137063525729500,6.2237294921875,-3.212352752685547,4.271724700927734,0.9757490158081055
1702137063542720800,6.240720703125,-2.7722182273864746,6.441951751708984,2.575556755065918
1702137063559713500,6.257713623046875,-2.134866714477539,8.87369155883789,4.561544418334961
1702137063576705800,6.274705810546875,-1.7380424737930298,11.388484954833984,7.562681198120117
1702137063593697800,6.29169775390625,-0.9562488198280334,14.231175422668457,11.135947227478027
1702137063610689800,6.308689697265625,-0.9364495277404785,16.613353729248047,15.408821105957031
1702137063627682300,6.325682373046875,-1.7884732484817505,17.787193298339844,17.457839965820312
1702137063644674300,6.34267431640625,-1.3492546081542969,16.778305053710938,18.28960418701172
1702137063661666800,6.359666748046875,2.799612045288086,14.14187240600586,15.983531951904297
1702137063678660600,6.37666064453125,5.84483003616333,10.474370956420898,11.6423921585083
1702137063695641900,6.393641845703125,6.170867443084717,6.168631076812744,10.5672607421875
1702137063712632600,6.410632568359375,4.460368633270264,1.5642876625061035,8.521306037902832
1702137063729635000,6.427635009765625,2.564281940460205,-3.2455527782440186,5.492302894592285
1702137063746633700,6.4446337890625,1.856468915939331,-7.404904365539551,2.1055212020874023
1702137063763612000,6.46161181640625,2.1231908798217773,-10.112533569335938,-1.1577143669128418
1702137063780612000,6.478612060546875,3.0170669555664062,-11.453933715820312,-3.4734456539154053
1702137063797601500,6.4956015625,4.489354133605957,-11.885074615478516,-4.538118839263916
1702137063814589700,6.512589599609375,4.785712718963623,-12.026212692260742,-5.3587446212768555
1702137063831588600,6.529588623046875,3.7286133766174316,-11.990790367126465,-6.056485176086426
1702137063848580600,6.54658056640625,2.195582866668701,-12.179023742675781,-5.78166389465332
1702137063865572900,6.56357275390625,1.2027254104614258,-12.320154190063477,-5.666871070861816
1702137063882567400,6.5805673828125,1.2174592018127441,-12.496698379516602,-5.718985080718994
1702137063899554800,6.597554931640625,2.1695568561553955,-12.984468460083008,-5.810312271118164
1702137063916549600,6.614549560546875,2.275238513946533,-13.682449340820312,-6.054910659790039
1702137063933541600,6.631541748046875,1.5205073356628418,-14.20745849609375,-6.609877586364746
1702137063950547000,6.648546875,0.268967866897583,-15.35745906829834,-6.791575908660889
1702137063967523300,6.6655234375,0.5607333183288574,-17.160579681396484,-7.910032272338867
1702137063984520700,6.682520751953125,1.6178843975067139,-18.62930679321289,-5.434406757354736
1702137064001510400,6.699510498046875,1.7997798919677734,-18.823867797851562,-3.552527904510498
1702137064018502100,6.716502197265625,1.6254150867462158,-19.961544036865234,-1.4776535034179688
1702137064035491300,6.7334912109375,0.311126172542572,-21.34082794189453,0.654747486114502
1702137064052476700,6.7504765625,-1.7009649276733398,-23.070148468017578,2.9208712577819824
1702137064069482200,6.767482177734375,-2.245500087738037,-26.038238525390625,6.4901580810546875
1702137064086467800,6.7844677734375,0.9006268978118896,-26.335683822631836,12.629889488220215
1702137064103453400,6.801453369140625,0.8544826507568359,-24.565078735351562,16.790163040161133
1702137064120455400,6.818455322265625,-3.057581901550293,-22.778547286987305,19.385902404785156
1702137064137437200,6.835437255859375,-7.16535758972168,-21.85610008239746,23.408733367919922
1702137064154440000,6.85243994140625,-8.064983367919922,-20.923446655273438,29.415054321289062
1702137064171422500,6.86942236328125,-7.947495460510254,-18.522262573242188,35.64509582519531
1702137064188424400,6.886424560546875,-10.92200756072998,-15.640365600585938,36.64396286010742
1702137064205416700,6.903416748046875,-12.411409378051758,-16.281503677368164,37.58912658691406
1702137064222405600,6.920405517578125,-7.909276008605957,-19.305347442626953,40.7091064453125
1702137064239393000,6.93739306640625,-0.7188683748245239,-20.103145599365234,43.377159118652344
1702137064256387300,6.95438720703125,3.1634345054626465,-17.792236328125,44.453338623046875
1702137064273385200,6.97138525390625,4.674380779266357,-14.524463653564453,45.90396499633789
1702137064290364000,6.988364013671875,5.4582929611206055,-11.91939926147461,46.47735595703125
1702137064307375600,7.005375732421875,6.566546440124512,-12.4268217086792,45.976402282714844
1702137064324358400,7.0223583984375,10.426291465759277,-15.003710746765137,43.97612762451172
1702137064341354000,7.03935400390625,15.263077735900879,-18.445823669433594,41.017269134521484
1702137064358333700,7.056333740234375,18.4538631439209,-21.61882781982422,36.69049835205078
1702137064375328800,7.073328857421875,18.77730941772461,-25.02676773071289,31.395517349243164
1702137064392321300,7.0903212890625,18.864837646484375,-26.691987991333008,26.13591957092285
1702137064409313000,7.10731298828125,17.427452087402344,-25.800010681152344,23.566492080688477
1702137064426315000,7.12431494140625,14.773553848266602,-23.676681518554688,22.285354614257812
1702137064443309600,7.1413095703125,14.191807746887207,-22.110401153564453,22.501567840576172
1702137064460299300,7.15829931640625,14.744440078735352,-20.688919067382812,23.328123092651367
1702137064477294600,7.175294677734375,14.689348220825195,-19.647235870361328,21.856353759765625
1702137064494280200,7.1922802734375,13.556497573852539,-18.83051872253418,18.678386688232422
1702137064511276000,7.209276123046875,11.03303050994873,-16.51478385925293,14.607538223266602
1702137064528268300,7.226268310546875,7.326954364776611,-13.912840843200684,13.047526359558105
1702137064545260000,7.243260009765625,6.21699333190918,-12.01137924194336,14.00411605834961
1702137064562252300,7.260252197265625,8.884848594665527,-12.180513381958008,17.907014846801758
1702137064579245000,7.2772451171875,9.044788360595703,-14.516532897949219,21.206836700439453
1702137064596236800,7.29423681640625,5.85933256149292,-15.077871322631836,21.893972396850586
1702137064613229000,7.31122900390625,1.5145866870880127,-13.90459156036377,20.573287963867188
1702137064630220800,7.328220703125,-2.866715431213379,-12.438039779663086,19.968082427978516
1702137064647216600,7.345216552734375,-6.1097025871276855,-11.868301391601562,21.594146728515625
1702137064664205600,7.36220556640625,-6.1041975021362305,-12.654997825622559,22.379270553588867
1702137064681197800,7.37919775390625,-4.4128313064575195,-13.312063217163086,21.29683494567871
1702137064698189300,7.396189208984375,-2.252028465270996,-12.675628662109375,18.737346649169922
1702137064715182300,7.413182373046875,-0.7791357040405273,-9.978090286254883,15.585256576538086
1702137064732174300,7.43017431640625,-1.3594069480895996,-7.360285758972168,14.036571502685547
1702137064749166600,7.44716650390625,-4.730729579925537,-7.121121883392334,14.673510551452637
1702137064766155800,7.46415576171875,-6.772290229797363,-8.941669464111328,14.727295875549316
1702137064783153700,7.481153564453125,-4.214964389801025,-10.5643310546875,11.450065612792969
1702137064800143000,7.49814306640625,-0.32709789276123047,-12.474041938781738,8.002949714660645
1702137064817132500,7.515132568359375,2.9359421730041504,-14.90233325958252,6.252875328063965
1702137064834116900,7.532116943359375,4.864045143127441,-17.05385398864746,6.810769557952881
1702137064851122200,7.5491220703125,7.484675884246826,-14.91797161102295,9.356195449829102
1702137064868098300,7.566098388671875,3.4387993812561035,-15.25387191772461,13.679564476013184
1702137064885095400,7.583095458984375,-3.6357507705688477,-16.044384002685547,8.008148193359375
1702137064902086000,7.6000859375,-1.7897224426269531,-18.21210289001465,0.8913531303405762
1702137064919080700,7.617080810546875,9.310781478881836,-18.373294830322266,3.9634170532226562
1702137064936073000,7.634072998046875,12.763854026794434,-17.18304443359375,11.18217658996582
1702137064953064700,7.651064697265625,6.675406455993652,-16.685138702392578,14.420173645019531
1702137064970057200,7.66805712890625,-0.39962315559387207,-17.160898208618164,14.184979438781738
1702137064987047000,7.685046875,3.709822654724121,-18.494735717773438,18.22350311279297
1702137065004043800,7.702043701171875,11.54613208770752,-17.46049690246582,27.035919189453125
1702137065021032700,7.71903271484375,9.6611328125,-15.390848159790039,32.054039001464844
1702137065038025500,7.736025390625,6.417953968048096,-15.193976402282715,34.833377838134766
1702137065055017500,7.753017578125,5.409473419189453,-18.744924545288086,37.849395751953125
1702137065072007200,7.770007080078125,11.336326599121094,-20.696714401245117,38.79195785522461
1702137065089000400,7.78700048828125,16.753158569335938,-20.897415161132812,42.04984664916992
1702137065105990400,7.803990478515625,15.651641845703125,-21.15640640258789,45.00593566894531
1702137065122994700,7.82099462890625,13.91535472869873,-23.353845596313477,45.96540832519531
1702137065139983400,7.8379833984375,16.96705436706543,-26.618223190307617,46.7720947265625
1702137065156971800,7.8549716796875,19.60231590270996,-27.612930297851562,45.58866500854492
1702137065173964500,7.871964599609375,20.99393081665039,-28.164703369140625,43.462249755859375
1702137065190953700,7.88895361328125,21.217397689819336,-29.733680725097656,41.52874755859375
1702137065207955200,7.905955078125,20.03612518310547,-32.28166198730469,38.71989059448242
1702137065224946000,7.92294580078125,17.599346160888672,-34.487606048583984,34.30015182495117
1702137065241939200,7.939939208984375,14.632007598876953,-36.161075592041016,31.199565887451172
1702137065258932700,7.9569326171875,11.78675651550293,-37.249332427978516,25.03885269165039
1702137065275922700,7.973922607421875,8.79050064086914,-35.756202697753906,18.67814064025879
1702137065292917200,7.990917236328125,6.966750621795654,-32.31947326660156,14.974105834960938
1702137065309908000,8.007907958984376,4.991843223571777,-25.547420501708984,14.03823471069336
1702137065326900700,8.024900634765626,0.7395439147949219,-22.000526428222656,12.222660064697266
1702137065343890200,8.04189013671875,-0.9666810035705566,-19.279691696166992,8.336174964904785
1702137065360887000,8.058886962890625,1.4301881790161133,-16.485464096069336,7.928986549377441
1702137065377866200,8.0758662109375,1.7295923233032227,-15.002934455871582,10.398755073547363
1702137065394869200,8.092869140625,-0.0573577880859375,-13.67167854309082,11.589672088623047
1702137065411861200,8.109861328125,-0.9398746490478516,-13.105888366699219,11.893978118896484
1702137065428853500,8.126853515625,-0.38452959060668945,-12.55689811706543,11.776273727416992
1702137065445845500,8.143845458984375,0.9585881233215332,-11.15407943725586,11.85869312286377
1702137065462838000,8.160838134765624,1.1209821701049805,-11.028946876525879,13.708433151245117
1702137065479830300,8.177830322265624,1.1128578186035156,-11.87216567993164,17.022525787353516
1702137065496822000,8.194822021484375,3.0676190853118896,-12.977272987365723,18.798419952392578
1702137065513814000,8.21181396484375,5.583446025848389,-12.44032096862793,21.81652069091797
1702137065530806800,8.228806884765625,5.457157135009766,-12.61759090423584,23.737606048583984
1702137065547798500,8.245798583984374,2.890882968902588,-14.239605903625488,24.120704650878906
1702137065564780800,8.26278076171875,0.7480155825614929,-17.299509048461914,25.86127281188965
1702137065581782800,8.27978271484375,1.6099681854248047,-19.975587844848633,27.284149169921875
1702137065598775800,8.29677587890625,4.454315185546875,-22.25082778930664,29.68467140197754
1702137065615765000,8.313764892578124,6.121554851531982,-22.972307205200195,30.844982147216797
1702137065632761900,8.330761962890625,5.6104583740234375,-23.6866455078125,30.034149169921875
1702137065649741300,8.3477412109375,2.4032793045043945,-24.28180694580078,29.233890533447266
1702137065666741200,8.3647412109375,-2.191265821456909,-26.483089447021484,29.686321258544922
1702137065683738600,8.381738525390626,-0.9798077344894409,-24.456947326660156,31.832195281982422
1702137065700720000,8.39872021484375,0.09926599264144897,-24.150217056274414,37.67433547973633
1702137065717718300,8.41571826171875,0.10661673545837402,-23.49758529663086,39.334625244140625
1702137065734710000,8.4327099609375,2.1493992805480957,-24.674396514892578,39.29325485229492
1702137065751694300,8.4496943359375,6.171653747558594,-21.014619827270508,36.26237106323242
1702137065768694500,8.466694580078125,7.378316879272461,-18.789608001708984,35.74601745605469
1702137065785691400,8.48369140625,3.4192779064178467,-17.009063720703125,35.338356018066406
1702137065802681300,8.500681396484374,-0.48326706886291504,-12.987554550170898,32.21336364746094
1702137065819673600,8.517673583984376,1.3505966663360596,-8.91431999206543,31.236656188964844
1702137065836665600,8.53466552734375,5.780259132385254,-7.902416229248047,32.10985565185547
1702137065853657600,8.55165771484375,7.558274269104004,-7.412726879119873,32.17095184326172
1702137065870650400,8.568650390625,3.56227445602417,-3.6244044303894043,25.604557037353516
1702137065887642400,8.585642333984374,-0.31013572216033936,-1.086066484451294,21.763126373291016
1702137065904634400,8.60263427734375,1.7581121921539307,1.2479007244110107,21.788333892822266
1702137065921626000,8.619626220703125,3.803518533706665,0.37843823432922363,25.026920318603516
1702137065938601500,8.6366015625,4.982254981994629,1.0921710729599,24.307037353515625
1702137065955611000,8.65361083984375,3.960655689239502,3.3343753814697266,19.538694381713867
1702137065972601300,8.670601318359376,3.991750717163086,4.4801344871521,14.983509063720703
1702137065989596400,8.687596435546874,5.164071083068848,4.437630653381348,13.65838623046875
1702137066006580200,8.704580322265626,6.033092498779297,4.711081504821777,12.60547161102295
1702137066023579600,8.72157958984375,4.572571277618408,5.274137496948242,12.075803756713867
1702137066040572400,8.738572509765625,1.691406011581421,5.478989601135254,11.591429710388184
1702137066057563000,8.75556298828125,0.5256010890007019,4.987597465515137,11.135885238647461
1702137066074565600,8.772565673828124,1.251015067100525,4.695689678192139,9.134469032287598
1702137066091537700,8.78953759765625,2.949754238128662,3.654587745666504,7.047658920288086
1702137066108540700,8.806540771484375,4.540809154510498,2.3735885620117188,4.998354911804199
1702137066125532400,8.823532470703125,4.19583797454834,1.3332544565200806,3.2683277130126953
1702137066142525200,8.840525146484374,2.764608383178711,0.06132102012634277,2.5233545303344727
1702137066159517200,8.85751708984375,1.5633244514465332,-0.731104850769043,2.5491867065429688
1702137066176509000,8.874509033203125,0.9226161241531372,-1.2245748043060303,2.8552751541137695
1702137066193501200,8.891501220703125,1.7994847297668457,-1.1718266010284424,2.3880529403686523
1702137066210483200,8.908483154296874,1.8315283060073853,-1.2826597690582275,1.5856761932373047
1702137066227483100,8.925483154296876,1.0483494997024536,-1.4744452238082886,1.058852195739746
1702137066244470000,8.942469970703126,0.9304425120353699,-1.8015319108963013,1.2332229614257812
1702137066261470000,8.959469970703125,1.5530507564544678,-2.1902847290039062,1.8584165573120117
1702137066278462200,8.976462158203125,2.4709560871124268,-2.2159247398376465,3.010697364807129
1702137066295454000,8.993453857421875,1.8499720096588135,-2.110049247741699,3.3505430221557617
1702137066312446500,9.010446533203124,2.099242687225342,-1.725816249847412,3.018498420715332
1702137066329438500,9.0274384765625,2.535431146621704,-1.7216236591339111,2.789443016052246
1702137066346431200,9.04443115234375,2.7021243572235107,-2.0117974281311035,2.926542282104492
1702137066363422700,9.061422607421875,2.567316770553589,-2.455958604812622,3.058431625366211
1702137066380415000,9.0784150390625,2.3182477951049805,-2.399435043334961,2.947763442993164
1702137066397401600,9.095401611328125,2.324388027191162,-2.3718132972717285,2.851778030395508
1702137066414400800,9.11240087890625,2.2365803718566895,-2.7080368995666504,2.452425956726074
1702137066431391500,9.1293916015625,3.516916036605835,-3.144495725631714,1.5030364990234375
1702137066448383700,9.1463837890625,4.626199245452881,-3.51544189453125,0.26801013946533203
1702137066465357800,9.16335791015625,4.771448135375977,-4.3861799240112305,-1.25754976272583
1702137066482368300,9.1803681640625,5.304864406585693,-4.749571800231934,-2.827932834625244
1702137066499360500,9.197360595703126,5.595918655395508,-4.731032848358154,-4.3642988204956055
1702137066516352500,9.2143525390625,5.4887566566467285,-4.570420265197754,-4.702332496643066
1702137066533344500,9.231344482421875,4.6565022468566895,-4.556256294250488,-4.088973045349121
1702137066550323700,9.24832373046875,4.080657958984375,-4.753391265869141,-3.87638258934021
1702137066567327000,9.265326904296876,4.058643341064453,-4.915641784667969,-5.058564186096191
1702137066584323300,9.2823232421875,4.519620418548584,-4.759718894958496,-6.6949920654296875
1702137066601313000,9.29931298828125,4.90489387512207,-4.0220232009887695,-7.679275035858154
1702137066618305800,9.316305908203125,4.897762775421143,-3.345534324645996,-7.140024662017822
1702137066635297800,9.3332978515625,4.198408603668213,-2.9901533126831055,-3.6242856979370117
1702137066652290000,9.3502900390625,2.32425594329834,-2.2862863540649414,-0.7388644218444824
1702137066669282000,9.367281982421876,1.3103141784667969,-1.6252665519714355,-0.5490689277648926
1702137066686272000,9.38427197265625,1.0590726137161255,-0.5818307399749756,-1.6828022003173828
1702137066703268600,9.4012685546875,0.3110175132751465,0.6009917259216309,-2.53420352935791
1702137066720258600,9.418258544921875,-1.553636074066162,1.885483980178833,0.070526123046875
1702137066737250300,9.435250244140626,-4.134289741516113,2.911630630493164,5.128035545349121
1702137066754243000,9.4522431640625,-4.568809986114502,3.7590065002441406,9.334237098693848
1702137066771235000,9.469235107421875,-1.3364408016204834,5.548378944396973,9.809944152832031
1702137066788229000,9.48622900390625,0.8712788820266724,7.781500816345215,8.607138633728027
1702137066805217300,9.50321728515625,-0.1769864857196808,8.732257843017578,9.010905265808105
1702137066822211800,9.5202119140625,-1.8206685781478882,8.783592224121094,9.855680465698242
1702137066839203600,9.53720361328125,-2.168060779571533,9.323861122131348,10.694942474365234
1702137066856195800,9.55419580078125,-1.2133656740188599,9.32909107208252,11.701799392700195
1702137066873187800,9.571187744140625,-0.3364952802658081,8.991813659667969,12.013930320739746
1702137066890189000,9.58818896484375,-0.6429124474525452,9.122562408447266,10.623320579528809
1702137066907172600,9.605172607421874,-2.5742311477661133,8.56663990020752,9.965145111083984
1702137066924151600,9.622151611328125,-2.7208762168884277,6.63477897644043,8.422540664672852
1702137066941146600,9.639146728515625,0.09798729419708252,4.015406131744385,5.750881195068359
1702137066958151000,9.65615087890625,2.5428693294525146,0.32456064224243164,1.7311482429504395
1702137066975141000,9.67314111328125,3.345942974090576,-3.0459485054016113,-2.4410858154296875
1702137066992133000,9.690133056640626,3.1380112171173096,-5.454468727111816,-5.199888229370117
1702137067009124900,9.707124755859375,2.506147861480713,-6.940728664398193,-6.26526403427124
1702137067026117600,9.72411767578125,1.618277907371521,-7.87006950378418,-6.359260082244873
1702137067043110000,9.74110986328125,0.9749855995178223,-8.383852005004883,-6.2787041664123535
1702137067060102100,9.75810205078125,1.078066110610962,-8.684593200683594,-6.381000995635986
1702137067077093600,9.77509375,1.2485482692718506,-9.471977233886719,-5.537736892700195
1702137067094086400,9.79208642578125,1.3472073078155518,-9.729719161987305,-5.5499091148376465
1702137067111078700,9.80907861328125,0.0646216869354248,-10.747431755065918,-5.799597263336182
1702137067128070100,9.826070068359375,0.5165185928344727,-11.229988098144531,-6.863501071929932
1702137067145062400,9.8430625,0.988998293876648,-11.656744956970215,-7.664710998535156
1702137067162055200,9.86005517578125,0.8492454290390015,-11.407307624816895,-7.722019195556641
1702137067179053600,9.877053466796875,-0.9093532562255859,-11.798208236694336,-7.1206464767456055
1702137067196039400,9.894039306640625,-2.9819650650024414,-12.311965942382812,-6.673552513122559
1702137067213031200,9.91103125,-3.6990714073181152,-13.397699356079102,-6.433079719543457
1702137067230024000,9.92802392578125,-2.709597110748291,-14.433229446411133,-6.091130256652832
1702137067247023900,9.94502392578125,-1.3066776990890503,-15.910924911499023,-5.113753795623779
1702137067264008000,9.962008056640625,-0.4340362548828125,-17.1878662109375,-3.829956531524658
1702137067281000000,9.979,-0.5092072486877441,-18.531938552856445,-2.0709571838378906
1702137067297992400,9.995992431640625,-1.1637120246887207,-19.969871520996094,2.1874966621398926
1702137067314984400,10.012984375,-1.8350579738616943,-20.551382064819336,8.035329818725586
1702137067331976400,10.0299765625,-2.43369722366333,-20.59836196899414,12.903097152709961
1702137067348968200,10.04696826171875,-3.214851140975952,-19.93115997314453,15.046865463256836
1702137067365961000,10.0639609375,-3.5665128231048584,-19.142459869384766,17.814990997314453
1702137067382953000,10.080952880859375,-2.8583412170410156,-18.152996063232422,23.5573673248291
1702137067399945200,10.0979453125,-4.603521347045898,-15.990568161010742,28.567623138427734
1702137067416937200,10.114937255859376,-8.868942260742188,-14.066710472106934,31.26237678527832
1702137067433919200,10.131919189453125,-12.569149017333984,-14.499044418334961,33.27370834350586
1702137067450921500,10.14892138671875,-10.636861801147461,-16.046649932861328,36.11341857910156
1702137067467914000,10.1659140625,-3.7880091667175293,-16.517820358276367,37.22222900390625
1702137067484905500,10.182905517578124,1.4274876117706299,-14.600387573242188,37.133277893066406
1702137067501898200,10.199898193359376,1.8400390148162842,-12.592713356018066,37.70661163330078
1702137067518890200,10.21689013671875,1.7576993703842163,-11.523335456848145,39.610172271728516
1702137067535882500,10.233882568359375,3.73923397064209,-10.871350288391113,42.20721435546875
1702137067552874200,10.250874267578125,7.2268853187561035,-12.020024299621582,43.72590637207031
1702137067569867000,10.267866943359374,12.269397735595703,-14.246113777160645,41.34220886230469
1702137067586859000,10.28485888671875,16.773391723632812,-17.438379287719727,36.71140670776367
1702137067603849500,10.301849365234375,19.13204574584961,-19.607078552246094,32.00471878051758
1702137067620844300,10.31884423828125,18.785676956176758,-20.648555755615234,30.060644149780273
1702137067637828900,10.335828857421875,16.22830581665039,-21.810855865478516,29.44487190246582
1702137067654827300,10.3528271484375,16.7763729095459,-22.096050262451172,26.50914192199707
1702137067671809000,10.36980908203125,19.869733810424805,-20.578895568847656,22.123001098632812
1702137067688811500,10.3868115234375,20.279855728149414,-17.424861907958984,19.688125610351562
1702137067705804000,10.403803955078125,17.023717880249023,-14.84603500366211,19.057920455932617
1702137067722796300,10.42079638671875,12.344072341918945,-11.936260223388672,16.559110641479492
1702137067739788300,10.437788330078124,9.143416404724121,-10.657354354858398,15.304710388183594
1702137067756780000,10.454780029296876,7.598727703094482,-10.957111358642578,14.96274185180664
1702137067773772800,10.471772705078125,7.6617302894592285,-11.095907211303711,14.768479347229004
1702137067790764800,10.488764892578125,7.569413185119629,-11.25443172454834,15.051630020141602
1702137067807756800,10.5057568359375,7.366434097290039,-12.198372840881348,16.963573455810547
1702137067824749000,10.5227490234375,5.610127925872803,-12.775163650512695,19.02901840209961
1702137067841741800,10.539741943359376,0.7159066796302795,-12.970788955688477,20.119441986083984
1702137067858723800,10.556723876953125,-4.3882598876953125,-13.372231483459473,21.68262481689453
1702137067875715600,10.573715576171875,-7.143394470214844,-13.293289184570312,22.38248634338379
1702137067892707300,10.590707275390624,-6.266495704650879,-14.966642379760742,23.971782684326172
1702137067909712100,10.607712158203125,-2.4032740592956543,-16.78812599182129,23.316242218017578
1702137067926702300,10.624702392578126,1.5582151412963867,-15.879387855529785,20.73044776916504
1702137067943694300,10.6416943359375,2.8822426795959473,-13.412384986877441,18.54796600341797
1702137067960686300,10.658686279296875,0.9512693881988525,-11.16690731048584,17.855587005615234
1702137067977678800,10.675678955078125,-3.559964179992676,-9.300238609313965,17.384601593017578
1702137067994660000,10.69266015625,-6.709539890289307,-8.866960525512695,15.68450927734375
1702137068011654000,10.70965380859375,-6.2713141441345215,-9.352567672729492,11.5819673538208
1702137068028654800,10.72665478515625,-3.000720500946045,-11.178235054016113,7.901122093200684
1702137068045647600,10.743647705078125,0.43976831436157227,-12.803306579589844,5.171212196350098
1702137068062639400,10.760639404296874,3.4500560760498047,-14.696436882019043,5.4313063621521
1702137068079631600,10.777631591796874,6.367971420288086,-16.67342185974121,9.214603424072266
1702137068096623600,10.79462353515625,7.7412238121032715,-16.378026962280273,13.027222633361816
1702137068113616100,10.8116162109375,7.840815544128418,-13.483348846435547,13.475101470947266
1702137068130607900,10.82860791015625,4.264498233795166,-12.210258483886719,13.523019790649414
1702137068147600100,10.84560009765625,-0.9620692729949951,-13.61241340637207,13.510396957397461
1702137068164592000,10.862592041015626,-1.4093149900436401,-16.057279586791992,12.80839729309082
1702137068181584600,10.879584716796876,3.208984851837158,-18.150970458984375,15.501707077026367
1702137068198573800,10.89657373046875,5.706897258758545,-18.173377990722656,19.187273025512695
1702137068215571500,10.913571533203125,4.369807243347168,-18.755680084228516,23.72433853149414
1702137068232560600,10.930560546875,2.773862361907959,-18.748085021972656,27.268936157226562
1702137068249553400,10.947553466796874,3.1321380138397217,-18.85581398010254,31.311527252197266
1702137068266545200,10.964545166015625,3.3843774795532227,-17.21932029724121,34.742862701416016
1702137068283537400,10.981537353515625,1.285226821899414,-16.331892013549805,37.70494079589844
1702137068300526800,10.99852685546875,-0.4655759334564209,-17.06603240966797,39.550777435302734
1702137068317522000,11.01552197265625,1.1189203262329102,-19.626304626464844,41.956626892089844
1702137068334503700,11.032503662109375,4.417328357696533,-23.942440032958984,46.44034957885742
1702137068351499500,11.04949951171875,9.85555648803711,-25.567840576171875,48.894989013671875
1702137068368497000,11.066496826171875,12.551848411560059,-24.833194732666016,48.58427429199219
1702137068385482200,11.083482177734375,12.823943138122559,-25.38390350341797,46.869380950927734
1702137068402473000,11.100472900390624,13.7626371383667,-29.10188865661621,45.102928161621094
1702137068419468500,11.117468505859375,17.154695510864258,-33.561336517333984,41.843013763427734
1702137068436458200,11.134458251953125,21.028268814086914,-33.37583541870117,35.55305862426758
1702137068453450200,11.1514501953125,21.592510223388672,-31.113292694091797,31.562397003173828
1702137068470440200,11.168440185546874,18.28813934326172,-28.346033096313477,28.984132766723633
1702137068487432700,11.1854326171875,13.502507209777832,-27.518035888671875,26.4462833404541
1702137068504425200,11.20242529296875,9.196782112121582,-27.83918571472168,22.77734375
1702137068521424000,11.219423828125,6.738945484161377,-27.74114990234375,17.99407386779785
1702137068538411300,11.236411376953125,4.418859004974365,-26.18810272216797,13.483602523803711
1702137068555402800,11.25340283203125,2.98012113571167,-22.814882278442383,10.500683784484863
1702137068572392700,11.270392822265626,2.3659238815307617,-18.94753646850586,10.454828262329102
1702137068589390300,11.287390380859375,0.1447134017944336,-16.705528259277344,12.055895805358887
1702137068606380300,11.30438037109375,-2.183231830596924,-16.316190719604492,12.760211944580078
1702137068623371000,11.32137109375,-1.7206883430480957,-15.671018600463867,10.660272598266602
1702137068640365600,11.338365478515625,0.4239921569824219,-13.721388816833496,7.837302207946777
1702137068657366800,11.35536669921875,1.304917812347412,-13.269279479980469,8.556960105895996
1702137068674356700,11.372356689453126,-0.10263395309448242,-13.837626457214355,11.466111183166504
1702137068691349000,11.389348876953125,-0.21423673629760742,-13.867582321166992,12.298907279968262
1702137068708340700,11.4063408203125,1.6839847564697266,-14.022834777832031,11.913934707641602
1702137068725333500,11.42333349609375,2.5297281742095947,-14.382844924926758,11.981781005859375
1702137068742325800,11.44032568359375,2.1809287071228027,-15.705455780029297,13.282730102539062
1702137068759317500,11.4573173828125,1.626124382019043,-17.17230224609375,14.889801025390625
1702137068776309200,11.474309326171875,2.516817569732666,-18.891630172729492,17.951337814331055
1702137068793302000,11.491302001953125,4.238597869873047,-20.487316131591797,21.709171295166016
1702137068810280200,11.5082802734375,4.729036331176758,-21.1124324798584,23.542247772216797
1702137068827285000,11.525284912109376,3.7902820110321045,-23.06134033203125,23.372695922851562
1702137068844279600,11.542279541015626,4.308770656585693,-25.116411209106445,21.084196090698242
1702137068861271000,11.55927099609375,6.3170270919799805,-29.325000762939453,21.583332061767578
1702137068878262800,11.5762626953125,9.01175308227539,-32.368858337402344,28.980390548706055
1702137068895254800,11.5932548828125,6.856546878814697,-30.59174919128418,32.000736236572266
1702137068912246800,11.610246826171876,7.429016590118408,-26.506591796875,27.726619720458984
1702137068929239300,11.6272392578125,6.074485778808594,-26.274234771728516,27.552532196044922
1702137068946228700,11.644228759765625,2.9827868938446045,-28.223121643066406,29.359546661376953
1702137068963226000,11.66122607421875,2.256882905960083,-30.319580078125,32.235294342041016
1702137068980215600,11.678215576171874,5.563942909240723,-28.14354705810547,37.25807189941406
1702137068997205500,11.69520556640625,4.759728908538818,-25.03875160217285,36.043907165527344
1702137069014202400,11.712202392578124,1.7128710746765137,-22.22894859313965,29.400169372558594
1702137069031192000,11.729192138671875,2.0113322734832764,-19.546241760253906,27.44806671142578
1702137069048184000,11.74618408203125,2.9390902519226074,-18.185256958007812,28.595935821533203
1702137069065177900,11.763177734375,5.1992998123168945,-15.87276840209961,29.297710418701172
1702137069082168600,11.78016845703125,6.798217296600342,-13.63075065612793,28.441322326660156
1702137069099160800,11.797160888671876,5.593715190887451,-11.274843215942383,27.96830940246582
1702137069116152600,11.814152587890625,0.4023228883743286,-9.894868850708008,27.660598754882812
1702137069133145300,11.831145263671875,-2.4284894466400146,-7.207468509674072,22.8597469329834
1702137069150123800,11.848123779296875,3.746539354324341,-3.9350154399871826,21.33930206298828
1702137069167133400,11.865133544921875,9.148893356323242,-2.2317652702331543,25.559066772460938
1702137069184121000,11.88212109375,8.020188331604004,-0.20140361785888672,27.889564514160156
1702137069201113900,11.89911376953125,1.3137086629867554,1.90818452835083,24.72393035888672
1702137069218105600,11.916105712890625,-3.4594268798828125,3.4704771041870117,19.213565826416016
1702137069235097900,11.933097900390624,-0.9403424859046936,5.159574031829834,14.003072738647461
1702137069252089900,11.95008984375,4.563047885894775,5.559981346130371,13.945754051208496
1702137069269082400,11.967082275390625,6.9976935386657715,5.419243335723877,14.461345672607422
1702137069286074000,11.98407421875,3.8443961143493652,5.118796348571777,13.733789443969727
1702137069303066400,12.00106640625,-0.6159746050834656,4.983701229095459,11.636293411254883
1702137069320058400,12.018058349609374,-2.803140163421631,4.486279487609863,9.87562370300293
1702137069337051000,12.03505078125,-1.9822735786437988,4.178529262542725,7.718771934509277
1702137069354042600,12.052042724609375,-0.1012105941772461,3.3167831897735596,6.037104606628418
1702137069371032300,12.0690322265625,1.5079824924468994,2.3595499992370605,4.1668291091918945
1702137069388016600,12.0860166015625,2.546536684036255,1.189030408859253,2.463144302368164
1702137069405019600,12.10301953125,2.8811609745025635,-0.026598453521728516,1.329477310180664
1702137069422011600,12.12001171875,2.407805919647217,-1.1838898658752441,0.6428947448730469
1702137069439003400,12.13700341796875,2.4738657474517822,-1.760225772857666,0.6024665832519531
1702137069455991000,12.153990966796876,2.734306812286377,-2.300922393798828,2.073685646057129
1702137069472988200,12.17098828125,3.4787487983703613,-3.0358493328094482,3.6741790771484375
1702137069489980000,12.18797998046875,3.9595541954040527,-3.7397961616516113,3.996725082397461
1702137069506972200,12.20497216796875,4.059715270996094,-4.315007209777832,2.9264659881591797
1702137069523964200,12.221964111328125,3.898380756378174,-5.054831504821777,2.133626937866211
1702137069540957000,12.23895703125,3.9551379680633545,-5.040587425231934,2.017941474914551
1702137069557948700,12.25594873046875,4.280134201049805,-5.3936543464660645,2.8728208541870117
1702137069574940700,12.272940673828124,4.453788757324219,-5.697675704956055,3.133707046508789
1702137069591922400,12.28992236328125,3.973747730255127,-6.480521202087402,2.2566041946411133
1702137069608925200,12.30692529296875,3.2939372062683105,-7.125486373901367,0.33184242248535156
1702137069625907500,12.323907470703125,3.5109152793884277,-7.718924045562744,-1.330611228942871
1702137069642912000,12.340912109375,5.006363868713379,-7.562939643859863,-2.8671789169311523
1702137069659901400,12.3579013671875,6.245449542999268,-7.464792251586914,-2.6481475830078125
1702137069676894000,12.37489404296875,6.381285667419434,-7.226381301879883,-2.646496295928955
1702137069693885700,12.3918857421875,5.195410251617432,-6.8815107345581055,-3.492732524871826
1702137069710878000,12.4088779296875,3.7165331840515137,-6.204555034637451,-4.782315254211426
1702137069727870000,12.425869873046874,2.9464073181152344,-5.4752092361450195,-6.1345343589782715
1702137069744862500,12.442862548828124,3.18255615234375,-5.14214563369751,-6.8921637535095215
1702137069761854200,12.459854248046875,4.252445697784424,-4.688520908355713,-7.398237228393555
1702137069778844200,12.47684423828125,5.27581262588501,-4.484665870666504,-7.276442527770996
1702137069795840800,12.4938408203125,5.621445655822754,-4.277052879333496,-7.208451271057129
1702137069812831000,12.5108310546875,5.703172206878662,-4.109777927398682,-7.066071510314941
1702137069829820400,12.5278203125,5.692390441894531,-3.9682369232177734,-6.989546298980713
1702137069846817300,12.5448173828125,5.590593338012695,-3.9147768020629883,-6.773667812347412
1702137069863807000,12.561806884765625,5.053178310394287,-3.548069715499878,-6.206275939941406
1702137069880799700,12.5787998046875,4.9227776527404785,-2.800468921661377,-4.474861145019531
1702137069897794800,12.595794921875,4.46350622177124,-1.7237298488616943,-2.8502368927001953
1702137069914780400,12.612780517578125,2.509439706802368,-0.9272404909133911,-0.10584640502929688
1702137069931765200,12.62976513671875,-0.36003732681274414,-0.1819065809249878,2.8973817825317383
1702137069948768300,12.646768310546875,-2.769666910171509,0.5264579057693481,5.79524040222168
1702137069965760000,12.663760009765625,-1.0522255897521973,1.7354100942611694,7.717868804931641
1702137069982748200,12.680748046875,1.8434265851974487,3.6623928546905518,8.834515571594238
1702137069999751000,12.6977509765625,1.9131017923355103,4.9639739990234375,10.750164031982422
1702137070016734000,12.71473388671875,-0.9600117206573486,6.4751973152160645,10.537233352661133
1702137070033728800,12.731728759765625,-4.7700886726379395,7.5812835693359375,9.160326957702637
1702137070050720800,12.748720703125,-5.568698883056641,7.946415901184082,7.8434295654296875
1702137070067710500,12.76571044921875,-3.45304536819458,8.830371856689453,7.150774955749512
1702137070084707800,12.782707763671874,-1.6367459297180176,10.36341381072998,6.309417724609375
1702137070101697000,12.799697021484375,-0.6949338912963867,11.696694374084473,7.0253753662109375
1702137070118687200,12.816687255859375,-2.5557689666748047,13.07418155670166,10.402329444885254
1702137070135671800,12.833671875,-5.575079917907715,13.370318412780762,14.399648666381836
1702137070152673800,12.850673828125,-6.897777557373047,12.24024486541748,14.0015230178833
1702137070169649000,12.86764892578125,-4.580188751220703,10.075939178466797,10.178468704223633
1702137070186659300,12.884659423828126,-0.7427679896354675,6.9312615394592285,6.380117416381836
1702137070203649800,12.90164990234375,1.9929614067077637,3.8368725776672363,5.603218078613281
1702137070220642300,12.918642333984375,1.9217556715011597,0.39361143112182617,4.2594428062438965
1702137070237637000,12.93563720703125,0.14179158210754395,-3.1923575401306152,0.865485668182373
1702137070254626600,12.95262646484375,-0.4390242099761963,-6.32135534286499,-2.716487407684326
1702137070271607800,12.96960791015625,0.38672828674316406,-8.152657508850098,-5.591407299041748
1702137070288611300,12.986611328125,2.231374740600586,-9.06248664855957,-7.104281902313232
1702137070305603000,13.00360302734375,3.4587793350219727,-9.525402069091797,-8.032115936279297
1702137070322595000,13.020594970703126,4.186032295227051,-10.048331260681152,-8.530157089233398
1702137070339587000,13.037587158203126,3.997407913208008,-10.428800582885742,-8.249914169311523
1702137070356579800,13.054579833984375,3.526860237121582,-10.599743843078613,-7.824365615844727
1702137070373571300,13.0715712890625,2.777400255203247,-10.668822288513184,-7.355504035949707
1702137070390563600,13.0885634765625,1.460902452468872,-11.321663856506348,-6.857348442077637
1702137070407554600,13.105554443359376,1.3756957054138184,-11.973824501037598,-6.891057014465332
1702137070424551000,13.122551025390624,2.1322760581970215,-12.667068481445312,-6.9523515701293945
1702137070441540000,13.1395400390625,2.5845773220062256,-13.938350677490234,-4.939822196960449
1702137070458532000,13.156531982421875,1.3269455432891846,-14.200882911682129,-3.8971378803253174
1702137070475513600,13.173513671875,0.45121705532073975,-15.163108825683594,-3.8049137592315674
1702137070492514300,13.190514404296875,0.5987685322761536,-16.778034210205078,-4.232070446014404
1702137070509511200,13.20751123046875,1.039414882659912,-18.524703979492188,-2.8554956912994385
1702137070526511000,13.224510986328125,-0.045898258686065674,-20.810230255126953,0.8933010101318359
1702137070543495700,13.24149560546875,-2.302926540374756,-23.297313690185547,5.215567111968994
1702137070560485400,13.2584853515625,-4.445865631103516,-24.454702377319336,7.311458587646484
1702137070577477400,13.275477294921876,-5.823721885681152,-23.78369140625,8.147445678710938
1702137070594469400,13.292469482421875,-5.125742435455322,-22.738340377807617,14.350330352783203
1702137070611461000,13.309461181640625,-4.133627891540527,-20.755512237548828,24.813255310058594
1702137070628444200,13.326444091796875,-7.228001117706299,-17.288414001464844,32.55267333984375
1702137070645446000,13.34344580078125,-12.612438201904297,-14.609500885009766,35.94082260131836
1702137070662437600,13.360437744140626,-13.459797859191895,-14.485739707946777,37.054901123046875
1702137070679427000,13.377427001953125,-7.177563667297363,-16.220914840698242,38.390159606933594
1702137070696422700,13.394422607421875,-0.8934323787689209,-17.2249813079834,38.10253143310547
1702137070713411600,13.41141162109375,2.33915376663208,-15.631038665771484,36.12758255004883
1702137070730398500,13.4283984375,5.135842800140381,-12.31760311126709,36.19307327270508
1702137070747384000,13.445384033203124,5.903555870056152,-8.761241912841797,38.781742095947266
1702137070764390400,13.462390380859375,5.453643798828125,-7.710689067840576,41.757041931152344
1702137070781386800,13.47938671875,6.61708927154541,-9.142884254455566,41.885921478271484
1702137070798375000,13.496375,8.91644287109375,-12.328184127807617,38.92279052734375
1702137070815367000,13.513366943359374,13.933552742004395,-16.22281265258789,36.703857421875
1702137070832359400,13.530359375,18.72963523864746,-20.3480167388916,35.63098907470703
1702137070849351700,13.5473515625,21.497957229614258,-22.42814826965332,33.19575500488281
1702137070866343400,13.564343505859375,22.047725677490234,-22.06983757019043,28.419307708740234
1702137070883335200,13.581335205078124,23.332721710205078,-20.51207733154297,25.29547691345215
1702137070900328000,13.598327880859374,22.288536071777344,-18.146629333496094,22.1408634185791
1702137070917320000,13.61531982421875,20.67662811279297,-15.683571815490723,18.25234031677246
1702137070934312200,13.632312255859375,18.94461441040039,-14.548635482788086,15.582776069641113
1702137070951304000,13.649303955078125,16.99568748474121,-13.761070251464844,14.12688159942627
1702137070968296700,13.666296630859375,14.155017852783203,-13.39365291595459,13.88763427734375
1702137070985288200,13.6832880859375,11.959490776062012,-13.768638610839844,15.476614952087402
1702137071002280400,13.700280517578125,11.294002532958984,-13.912408828735352,17.398571014404297
1702137071019272400,13.7172724609375,9.623470306396484,-14.711109161376953,20.544483184814453
1702137071036265200,13.73426513671875,6.3081889152526855,-14.953706741333008,22.568519592285156
1702137071053257000,13.751257080078124,1.8860485553741455,-14.534405708312988,22.846027374267578
1702137071070246400,13.768246337890625,-1.836190104484558,-14.535808563232422,23.217975616455078
1702137071087243500,13.785243408203126,-2.9830780029296875,-14.374177932739258,23.014631271362305
1702137071104230400,13.80223046875,-1.290926218032837,-15.430044174194336,23.20740509033203
1702137071121225500,13.8192255859375,1.088531732559204,-16.165142059326172,23.99704360961914
1702137071138217500,13.836217529296874,2.8042027950286865,-15.980361938476562,23.661094665527344
1702137071155198700,13.85319873046875,3.0543627738952637,-15.073421478271484,20.974538803100586
1702137071172202200,13.8702021484375,2.781874418258667,-13.297863006591797,17.958343505859375
1702137071189194200,13.8871943359375,0.6101903915405273,-12.672015190124512,16.558673858642578
1702137071206183700,13.90418359375,-0.012658119201660156,-13.067174911499023,15.617462158203125
1702137071223180800,13.921180908203125,0.5848302841186523,-13.744277000427246,14.894115447998047
1702137071240170500,13.93817041015625,1.0685715675354004,-14.639876365661621,13.76983642578125
1702137071257162800,13.955162841796875,1.5348930358886719,-15.685011863708496,11.766388893127441
1702137071274153000,13.972153076171875,1.9020733833312988,-15.57572078704834,9.420327186584473
1702137071291148500,13.9891484375,1.897623062133789,-14.799254417419434,9.330053329467773
1702137071308139300,14.00613916015625,0.4103536605834961,-17.075590133666992,10.873891830444336
1702137071325131000,14.023131103515626,1.0555977821350098,-18.55962371826172,6.5436506271362305
1702137071342110700,14.04011083984375,6.390089988708496,-17.742164611816406,4.470419406890869
1702137071359107600,14.057107666015625,9.44070053100586,-16.951011657714844,10.956489562988281
1702137071376098300,14.074098388671874,6.559146881103516,-15.993154525756836,18.358661651611328
1702137071393090800,14.0910908203125,-0.4635743498802185,-14.152862548828125,18.93731117248535
1702137071410094000,14.108093994140624,-0.9134625196456909,-14.090082168579102,20.273937225341797
1702137071427083500,14.12508349609375,3.989298105239868,-15.070756912231445,25.92439079284668
1702137071444077000,14.1420771484375,4.488445281982422,-14.4975004196167,30.55904197692871
1702137071461068300,14.159068359375,1.4350025653839111,-13.725974082946777,30.59039306640625
1702137071478060000,14.17606005859375,1.0746304988861084,-14.935855865478516,31.412464141845703
1702137071495052000,14.193052001953125,2.844545602798462,-16.17736053466797,34.850059509277344
1702137071512043300,14.210043212890625,4.195187091827393,-16.380632400512695,41.364158630371094
1702137071529038000,14.2270380859375,4.262506484985352,-14.771042823791504,47.526790618896484
1702137071546014000,14.244013916015625,3.174807071685791,-15.287995338439941,49.731842041015625
1702137071563024600,14.261024658203125,4.453411102294922,-19.346302032470703,49.67887878417969
1702137071580013300,14.278013427734376,9.149388313293457,-21.669048309326172,46.56048583984375
1702137071597002500,14.29500244140625,13.744494438171387,-22.04338836669922,45.674835205078125
1702137071614000000,14.312000244140625,14.54687786102295,-21.522890090942383,44.4815788269043
1702137071630989000,14.328989013671874,11.497136116027832,-22.0798397064209,42.932395935058594
1702137071647981800,14.34598193359375,9.091653823852539,-25.638126373291016,40.02574920654297
1702137071664973600,14.3629736328125,11.611613273620605,-28.626598358154297,34.58177947998047
1702137071681965800,14.3799658203125,15.154708862304688,-29.98996353149414,29.285480499267578
1702137071698957800,14.396957763671875,17.421825408935547,-30.235458374023438,25.905025482177734
1702137071715964000,14.4139638671875,15.162864685058594,-26.533897399902344,22.496686935424805
1702137071732947200,14.430947265625,8.965006828308105,-23.331066131591797,20.091400146484375
1702137071749931800,14.447931884765625,3.7137417793273926,-22.20002555847168,18.079055786132812
1702137071766928600,14.4649287109375,2.0510401725769043,-20.438884735107422,12.984457015991211
1702137071783918800,14.4819189453125,2.6094021797180176,-17.172245025634766,9.759024620056152
1702137071800910600,14.49891064453125,3.369378089904785,-16.14687728881836,11.433462142944336
1702137071817902600,14.515902587890626,4.7202253341674805,-15.32013988494873,13.280627250671387
1702137071834884400,14.53288427734375,2.995682716369629,-12.702613830566406,13.348134994506836
1702137071851874800,14.549874755859374,-0.3274421691894531,-12.77912425994873,13.543575286865234
1702137071868879000,14.566879150390625,-1.935326099395752,-13.737566947937012,12.593070030212402
1702137071885868500,14.58386865234375,-0.6739015579223633,-13.32196044921875,11.352590560913086
1702137071902852900,14.600852783203125,0.4400315284729004,-12.951033592224121,11.127197265625
1702137071919846400,14.617846435546875,1.1780195236206055,-13.228588104248047,12.107275009155273
1702137071936836900,14.6348369140625,0.9334750175476074,-13.250240325927734,13.397315979003906
1702137071953831200,14.6518310546875,1.3854076862335205,-14.152116775512695,14.642190933227539
1702137071970822000,14.66882177734375,2.8135924339294434,-15.186875343322754,15.01459789276123
1702137071987816400,14.68581640625,5.578680038452148,-16.591222763061523,15.463929176330566
1702137072004808700,14.70280859375,8.078710556030273,-18.580440521240234,19.233491897583008
1702137072021797400,14.71979736328125,8.045567512512207,-20.352680206298828,25.236385345458984
1702137072038792000,14.7367919921875,5.320722579956055,-21.568387985229492,29.136077880859375
1702137072055781400,14.753781494140625,2.420459747314453,-22.58835220336914,30.660505294799805
1702137072072775200,14.770775146484375,1.6471037864685059,-22.322067260742188,29.44748878479004
1702137072089769200,14.787769287109375,-0.1643654704093933,-22.18377113342285,27.519954681396484
1702137072106759700,14.804759765625,-0.861504316329956,-23.734527587890625,24.33980369567871
1702137072123752400,14.82175244140625,1.7657215595245361,-25.770545959472656,24.869041442871094
1702137072140744400,14.838744384765626,4.870486259460449,-28.17969512939453,28.390291213989258
1702137072157747700,14.855747802734374,6.503788471221924,-29.10895538330078,30.48969078063965
1702137072174737200,14.872737060546875,6.378844261169434,-28.475608825683594,33.329856872558594
1702137072191719400,14.889719482421874,3.964740514755249,-26.987802505493164,35.50284194946289
1702137072208721700,14.9067216796875,0.5973794460296631,-25.7124080657959,33.79785919189453
1702137072225695700,14.92369580078125,1.799216628074646,-21.97553062438965,27.861583709716797
1702137072242703000,14.940703125,5.845712184906006,-20.76055908203125,29.683631896972656
1702137072259700700,14.95770068359375,7.9575886726379395,-18.47830581665039,33.49394989013672
1702137072276697000,14.974697021484374,6.422799110412598,-13.758670806884766,34.814430236816406
1702137072293682200,14.99168212890625,3.5961802005767822,-8.475898742675781,30.37718963623047
1702137072310664000,15.008663818359375,3.4258501529693604,-6.066008567810059,27.52645492553711
1702137072327664400,15.025664306640625,4.395139694213867,-4.764838218688965,28.33313751220703
1702137072344661200,15.0426611328125,5.030338287353516,-4.165399551391602,27.800376892089844
1702137072361650700,15.059650634765624,5.908425331115723,-0.44866088032722473,23.782947540283203
1702137072378643000,15.076642822265624,6.116431713104248,1.827031135559082,22.496482849121094
1702137072395624700,15.093624755859375,7.1732988357543945,4.244189739227295,20.259456634521484
1702137072412625400,15.11062548828125,8.578156471252441,5.693097114562988,20.257238388061523
1702137072429618400,15.127618408203125,5.620395660400391,6.523870468139648,18.96367645263672
1702137072446604300,15.144604248046875,1.2109390497207642,6.583222389221191,16.07199478149414
1702137072463604000,15.16160400390625,0.444111704826355,5.82244348526001,12.813420295715332
1702137072480593200,15.17859326171875,4.070291519165039,4.907755374908447,10.61866569519043
1702137072497590500,15.195590576171876,7.600739479064941,3.723660945892334,9.547605514526367
1702137072514580000,15.212580078125,8.261114120483398,2.952420234680176,8.670733451843262
1702137072531582000,15.22958203125,5.2594828605651855,1.7974518537521362,7.764423370361328
1702137072548553500,15.246553466796875,1.9777220487594604,1.0973331928253174,6.391862869262695
1702137072565553200,15.26355322265625,0.2410351037979126,0.3153613805770874,5.137889862060547
1702137072582548200,15.28054833984375,1.009913444519043,-0.5291256904602051,4.064990997314453
1702137072599552800,15.297552734375,2.739698886871338,-1.5067520141601562,3.083770751953125
1702137072616530200,15.3145302734375,4.158162593841553,-2.7858450412750244,2.0390758514404297
1702137072633527300,15.33152734375,4.428525924682617,-4.192623138427734,1.1320915222167969
1702137072650505200,15.348505126953125,3.8730220794677734,-5.621721267700195,0.9137020111083984
1702137072667508000,15.365508056640625,2.873206615447998,-6.4429802894592285,0.2928314208984375
1702137072684493300,15.382493408203125,1.9483897686004639,-6.574104309082031,-0.8231315612792969
1702137072701493500,15.399493408203124,1.316482424736023,-6.383297443389893,-1.7267379760742188
1702137072718485000,15.416485107421876,0.7420886754989624,-6.188417911529541,-2.322835922241211
1702137072735473000,15.433472900390624,0.8526335954666138,-5.7133049964904785,-2.7028160095214844
1702137072752469800,15.4504697265625,1.2002860307693481,-5.179437637329102,-2.9662485122680664
1702137072769459200,15.467459228515626,1.466638207435608,-4.646611213684082,-3.021918773651123
1702137072786456300,15.484456298828125,1.535857915878296,-4.2812347412109375,-2.8900904655456543
1702137072803443500,15.501443359375,1.5665733814239502,-3.8096468448638916,-3.2407193183898926
1702137072820440800,15.51844091796875,2.0486209392547607,-3.2144007682800293,-3.626216411590576
1702137072837430300,15.53543017578125,3.012392044067383,-2.7722957134246826,-3.5882468223571777
1702137072854422300,15.55242236328125,4.170082092285156,-2.5291717052459717,-2.8403773307800293
1702137072871410700,15.56941064453125,4.6848249435424805,-2.586246967315674,-1.4065160751342773
1702137072888401700,15.586401611328125,4.546544551849365,-2.3859434127807617,-1.3772411346435547
1702137072905398000,15.60339794921875,3.979152202606201,-2.2183351516723633,-2.091907024383545
1702137072922391300,15.620391357421875,4.264570236206055,-2.1180500984191895,-2.355076789855957
1702137072939383300,15.63738330078125,5.405588150024414,-2.0667827129364014,-1.7117481231689453
1702137072956372700,15.654372802734375,5.620049953460693,-2.145719051361084,-0.45229530334472656
1702137072973369900,15.671369873046874,5.298681259155273,-1.857163906097412,0.07835578918457031
1702137072990367200,15.6883671875,4.877849578857422,-1.3845117092132568,-0.2078866958618164
1702137073007348700,15.7053486328125,4.446812152862549,-0.8186729550361633,-0.6353282928466797
1702137073024346600,15.7223466796875,3.730128288269043,-0.05435788631439209,-0.10603713989257812
1702137073041336000,15.739336181640626,3.16448974609375,0.8473031520843506,0.7950668334960938
1702137073058327600,15.75632763671875,2.595588207244873,1.620957374572754,1.5067081451416016
1702137073075320000,15.773320068359375,1.7848643064498901,3.0727503299713135,1.8857755661010742
1702137073092314400,15.790314453125,-0.6752934455871582,4.386125564575195,2.6383543014526367
1702137073109302000,15.807302001953126,-2.328047752380371,5.420653343200684,3.296398162841797
1702137073126296600,15.824296630859376,-0.8018300533294678,6.731414318084717,4.4232892990112305
1702137073143288600,15.84128857421875,2.0578837394714355,8.097522735595703,6.402573585510254
1702137073160276200,15.858276123046876,3.339493751525879,9.62834644317627,8.387932777404785
1702137073177277200,15.875277099609375,1.6793546676635742,10.73336410522461,9.21042251586914
1702137073194263000,15.892262939453126,-1.1977933645248413,11.406761169433594,10.132433891296387
1702137073211270000,15.909269775390625,-3.2686808109283447,11.797893524169922,11.278614044189453
1702137073228249000,15.9262490234375,-2.951204538345337,11.829257011413574,13.192944526672363
1702137073245241000,15.943240966796875,-0.9775635004043579,10.582944869995117,15.166361808776855
1702137073262234000,15.960234130859375,1.5513277053833008,8.513654708862305,14.43809700012207
1702137073279223300,15.977223388671876,2.7627663612365723,5.696244716644287,11.403996467590332
1702137073296209200,15.994209228515626,2.522169589996338,3.163635730743408,8.004161834716797
1702137073313197300,16.011197265625,1.591264009475708,0.8623514175415039,6.057158470153809
1702137073330203100,16.028203125,-0.12476742267608643,-2.096567153930664,5.244162559509277
1702137073347192600,16.045192626953124,0.3522167205810547,-5.397260665893555,3.1326074600219727
1702137073364186000,16.06218603515625,1.6536756753921509,-8.251104354858398,-0.3985576629638672
1702137073381178000,16.07917822265625,2.689822196960449,-10.74551010131836,-3.2231688499450684
1702137073398170000,16.096170166015625,3.1447556018829346,-12.261682510375977,-5.403770923614502
1702137073415162600,16.11316259765625,2.435957431793213,-12.760512351989746,-6.611545085906982
1702137073432154600,16.130154541015624,1.1832501888275146,-12.39277458190918,-7.134018898010254
1702137073449136000,16.14713623046875,-1.1144075393676758,-12.187774658203125,-7.117897033691406
1702137073466135600,16.164135498046875,-3.176168441772461,-12.457784652709961,-6.61044979095459
1702137073483133700,16.1811337890625,-4.879735946655273,-13.237442016601562,-6.615721702575684
1702137073500123100,16.198123046875,-5.096199035644531,-13.208065032958984,-8.488615036010742
1702137073517115100,16.215115234375,-4.320852279663086,-12.816685676574707,-10.106249809265137
1702137073534096400,16.232096435546875,-4.714731216430664,-12.625103950500488,-8.90640640258789
1702137073551099600,16.249099609375,-5.717540740966797,-12.085649490356445,-4.673154354095459
1702137073568091600,16.266091552734373,-6.380111217498779,-12.493807792663574,-2.827749252319336
1702137073585069600,16.283069580078124,-5.839284896850586,-13.470291137695312,-2.3101608753204346
1702137073602075600,16.30007568359375,-3.9670827388763428,-14.552377700805664,-1.7544004917144775
1702137073619057400,16.317057373046875,-2.3830573558807373,-15.09911823272705,-1.6623523235321045
1702137073636060000,16.334059814453123,-2.140377998352051,-15.569036483764648,-1.8923344612121582
1702137073653051400,16.351051513671877,-3.354428768157959,-16.43016242980957,-1.6199432611465454
1702137073670044200,16.368044189453126,-5.18482780456543,-17.617408752441406,0.2970144748687744
1702137073687036700,16.38503662109375,-5.692691326141357,-19.485340118408203,4.801396369934082
1702137073704028200,16.402028076171874,-4.2877960205078125,-19.908782958984375,8.82560920715332
1702137073721020400,16.4190205078125,-1.8005146980285645,-19.738412857055664,11.846268653869629
1702137073738009900,16.436009765625,-0.07903289794921875,-18.46353530883789,14.633278846740723
1702137073755007700,16.4530078125,-1.215073585510254,-17.35477066040039,18.701900482177734
1702137073771997000,16.469996826171876,-2.3950448036193848,-16.027341842651367,26.142173767089844
1702137073788986400,16.486986328125,-2.6154980659484863,-12.50145149230957,33.98575973510742
1702137073805983500,16.5039833984375,-7.320931434631348,-8.875801086425781,35.714691162109375
1702137073822973400,16.520973388671877,-12.076820373535156,-9.1517333984375,35.30910873413086
1702137073839965200,16.537965087890626,-8.95667839050293,-12.326275825500488,35.86669158935547
1702137073856957200,16.554957275390624,-1.585205316543579,-15.948221206665039,37.47858428955078
1702137073873955600,16.57195556640625,5.477421760559082,-16.368574142456055,37.386016845703125
1702137073890942000,16.58894189453125,9.560952186584473,-13.950284957885742,36.72978591918945
1702137073907933700,16.60593359375,11.092561721801758,-11.340880393981934,36.8204231262207
1702137073924926000,16.622926025390626,11.768193244934082,-9.388650894165039,38.408851623535156
1702137073941917700,16.639917724609376,11.245536804199219,-9.89332389831543,40.0905876159668
1702137073958923500,16.656923583984376,11.79010009765625,-12.38803482055664,39.686912536621094
1702137073975902200,16.673902099609375,15.133085250854492,-16.08033561706543,36.9532470703125
1702137073992896500,16.690896484375,18.301790237426758,-19.834890365600586,32.33050537109375
1702137074009884200,16.70788427734375,19.95564079284668,-21.576791763305664,28.561887741088867
1702137074026878700,16.724878662109376,20.43670654296875,-21.60436248779297,27.793128967285156
1702137074043870700,16.74187060546875,18.270950317382812,-21.157005310058594,26.554330825805664
1702137074060862700,16.75886279296875,15.539730072021484,-20.820419311523438,23.86762237548828
1702137074077853400,16.775853515625,13.8651123046875,-18.75933074951172,21.46384620666504
1702137074094844400,16.792844482421874,13.285902976989746,-16.504640579223633,22.24139976501465
1702137074111842300,16.80984228515625,12.942092895507812,-14.645479202270508,21.938879013061523
1702137074128831000,16.8268310546875,11.541009902954102,-12.993677139282227,20.422626495361328
1702137074145823200,16.8438232421875,9.162299156188965,-11.959569931030273,18.25525665283203
1702137074162812400,16.8608125,7.062597274780273,-12.102814674377441,16.495281219482422
1702137074179807000,16.877806884765626,5.940279006958008,-11.384014129638672,13.673821449279785
1702137074196800300,16.89480029296875,4.834393501281738,-11.540060043334961,13.746282577514648
1702137074213791500,16.91179150390625,3.6153392791748047,-10.719657897949219,14.211465835571289
1702137074230784000,16.928783935546875,1.4688053131103516,-10.297809600830078,17.197704315185547
1702137074247776000,16.94577587890625,-1.1338223218917847,-10.059869766235352,20.322246551513672
1702137074264768000,16.96276806640625,-5.862128734588623,-8.519990921020508,21.529220581054688
1702137074281759700,16.979759765625,-10.68941879272461,-7.8056640625,22.172527313232422
1702137074298744800,16.996744873046875,-10.587681770324707,-8.507482528686523,21.47978973388672
1702137074315744800,17.013744873046875,-6.247459888458252,-9.138581275939941,20.572160720825195
1702137074332736500,17.030736572265624,-2.9301600456237793,-9.124850273132324,20.583402633666992
1702137074349718000,17.047718017578124,-1.7800198793411255,-7.897794246673584,20.658428192138672
1702137074366721000,17.064720947265624,-4.015741348266602,-6.312437534332275,20.047977447509766
1702137074383712800,17.081712646484377,-8.145956039428711,-5.761845588684082,17.9061336517334
1702137074400704800,17.098704833984375,-9.815790176391602,-6.652894973754883,15.347970962524414
1702137074417697000,17.115697021484376,-7.4138970375061035,-8.76838207244873,12.111991882324219
1702137074434689500,17.132689453125,-2.700577735900879,-11.143451690673828,10.024603843688965
1702137074451670500,17.14967041015625,0.949531078338623,-13.387317657470703,11.04025650024414
1702137074468673500,17.166673583984377,1.1262421607971191,-13.025959014892578,11.519116401672363
1702137074485665300,17.183665283203126,-0.8723201751708984,-14.162005424499512,12.006217956542969
1702137074502654500,17.200654541015624,-1.6120762825012207,-16.56851577758789,10.891085624694824
1702137074519652000,17.217652099609374,0.2566838264465332,-17.726577758789062,6.645560264587402
1702137074536641800,17.234641845703123,8.08198070526123,-16.508243560791016,5.810793876647949
1702137074553638100,17.25163818359375,13.057944297790527,-12.826074600219727,8.476616859436035
1702137074570626300,17.268626220703126,9.462045669555664,-11.382589340209961,12.380379676818848
1702137074587618000,17.2856181640625,2.3425846099853516,-11.036412239074707,13.797333717346191
1702137074604610300,17.3026103515625,-1.2459888458251953,-12.79861068725586,14.854836463928223
1702137074621602300,17.319602294921875,4.975736618041992,-13.020651817321777,19.187620162963867
1702137074638584000,17.336583984375,10.978272438049316,-13.120784759521484,25.505422592163086
1702137074655586600,17.353586669921874,11.581474304199219,-10.74095344543457,28.833738327026367
1702137074672579000,17.3705791015625,7.553401470184326,-7.498427867889404,29.40213966369629
1702137074689570300,17.3875703125,2.075448989868164,-7.839900016784668,33.441680908203125
1702137074706563300,17.404563232421875,1.7632765769958496,-8.885496139526367,38.076011657714844
1702137074723555000,17.42155517578125,4.723818778991699,-9.783215522766113,41.1695556640625
1702137074740547000,17.438547119140626,7.660969257354736,-11.119585037231445,43.818199157714844
1702137074757528300,17.4555283203125,10.380708694458008,-12.536688804626465,46.1480827331543
1702137074774536200,17.4725361328125,10.507526397705078,-15.083423614501953,46.63473129272461
1702137074791531800,17.48953173828125,11.815406799316406,-16.51186180114746,44.226478576660156
1702137074808515600,17.506515625,14.717802047729492,-18.07081413269043,45.15968704223633
1702137074825507300,17.52350732421875,16.506677627563477,-19.67582893371582,47.329349517822266
1702137074842488800,17.54048876953125,13.987852096557617,-21.804187774658203,45.06132507324219
1702137074859483000,17.55748291015625,12.515141487121582,-26.160287857055664,41.67411422729492
1702137074876477200,17.574477294921873,15.712835311889648,-30.97091293334961,37.851844787597656
1702137074893467000,17.591466796875,18.130111694335938,-33.41254806518555,31.559185028076172
1702137074910458000,17.6084580078125,16.07215118408203,-32.721214294433594,25.012054443359375
1702137074927457500,17.62545751953125,12.07343578338623,-31.877593994140625,20.839757919311523
1702137074944455200,17.642455078125,8.289649963378906,-30.650882720947266,17.8737850189209
1702137074961444400,17.6594443359375,3.926248550415039,-28.14852523803711,13.606253623962402
1702137074978436900,17.676436767578124,1.7398910522460938,-25.7887020111084,10.430729866027832
1702137074995428900,17.693428955078126,3.1478824615478516,-21.521602630615234,8.942066192626953
1702137075012420900,17.7104208984375,4.1142377853393555,-18.523433685302734,11.043767929077148
1702137075029412600,17.72741259765625,1.1645755767822266,-17.01923942565918,13.757383346557617
1702137075046402600,17.744402587890626,-4.239737033843994,-16.522796630859375,10.692605972290039
1702137075063397000,17.761397216796876,-6.02296257019043,-15.036880493164062,4.261344909667969
1702137075080389400,17.778389404296874,-2.8219947814941406,-13.819038391113281,3.107724666595459
1702137075097381000,17.795381103515624,3.4637374877929688,-11.566047668457031,8.986557006835938
1702137075114373600,17.81237353515625,6.209566593170166,-9.574322700500488,14.807943344116211
1702137075131365600,17.82936572265625,4.534090042114258,-9.09342098236084,16.095176696777344
1702137075148357400,17.846357421875,2.3935155868530273,-10.79804801940918,14.811113357543945
1702137075165349600,17.863349609375,2.686380386352539,-12.377511024475098,12.587564468383789
1702137075182342000,17.880341796875,3.2620372772216797,-13.37387466430664,12.490262031555176
1702137075199334100,17.897334228515625,3.044668674468994,-15.338862419128418,17.508852005004883
1702137075216326100,17.914326171875,2.962939500808716,-16.990398406982422,24.42919921875
1702137075233312300,17.931312255859375,3.3082640171051025,-17.579856872558594,27.547508239746094
1702137075250321400,17.9483212890625,3.807800769805908,-19.08659553527832,26.507728576660156
1702137075267291600,17.965291748046877,4.561139106750488,-22.037553787231445,23.50583839416504
1702137075284297000,17.982296875,5.741605758666992,-26.802194595336914,22.49081802368164
1702137075301286100,17.9992861328125,4.084676742553711,-31.546794891357422,29.660198211669922
1702137075318278700,18.016278564453124,0.9492068886756897,-36.12215042114258,37.28350067138672
1702137075335268400,18.033268310546877,2.7322258949279785,-32.313045501708984,35.0776252746582
1702137075352253200,18.050253173828125,3.668592691421509,-30.419727325439453,31.12656021118164
1702137075369254700,18.067254638671876,4.369795322418213,-33.63578796386719,31.58184814453125
1702137075386240000,18.084239990234376,6.087663650512695,-34.31523513793945,38.7360725402832
1702137075403230500,18.10123046875,8.356327056884766,-27.280826568603516,39.42146301269531
1702137075420222700,18.11822265625,5.405787944793701,-22.684650421142578,35.52328872680664
1702137075437213200,18.135213134765625,-0.41104060411453247,-20.546096801757812,32.54410171508789
1702137075454208800,18.152208740234375,-0.5027233362197876,-18.923460006713867,27.88283920288086
1702137075471198200,18.1691982421875,5.193572044372559,-16.849172592163086,29.022727966308594
1702137075488189000,18.18618896484375,7.802801132202148,-13.578337669372559,31.522451400756836
1702137075505183700,18.203183837890624,5.029298782348633,-9.77554702758789,31.601696014404297
1702137075522175200,18.22017529296875,-0.24688637256622314,-7.520756244659424,26.918170928955078
1702137075539168800,18.237168701171875,1.7564465999603271,-5.164680004119873,21.705581665039062
1702137075556158000,18.254157958984376,7.410820007324219,-2.743948221206665,23.98150634765625
1702137075573152300,18.27115234375,7.630199909210205,-0.5485743284225464,28.198719024658203
1702137075590143200,18.288143310546875,2.8799901008605957,1.0303635597229004,26.491722106933594
1702137075607136500,18.305136474609377,2.2170209884643555,2.3658041954040527,18.04432487487793
1702137075624127200,18.322127197265626,4.776541233062744,3.1423439979553223,14.572888374328613
1702137075641118000,18.339117919921875,5.814102649688721,3.9945759773254395,15.331798553466797
1702137075658112300,18.3561123046875,3.8850741386413574,4.664211273193359,16.252304077148438
1702137075675114800,18.37311474609375,1.3494036197662354,4.927395343780518,15.20627212524414
1702137075692104700,18.390104736328126,1.0898499488830566,5.415884971618652,11.841787338256836
1702137075709094100,18.40709423828125,2.570570707321167,5.363469123840332,9.880520820617676
1702137075726088000,18.424087890625,3.560365676879883,4.959115028381348,8.657241821289062
1702137075743085300,18.441085205078124,3.1914260387420654,4.512347221374512,7.719907760620117
1702137075760070700,18.458070556640624,1.643578052520752,3.802327871322632,7.260339736938477
1702137075777067500,18.475067626953123,0.10396671295166016,2.834855079650879,6.748146057128906
1702137075794047000,18.492046875,-0.47749316692352295,1.879975438117981,5.409350395202637
1702137075811046700,18.509046630859373,0.1798992156982422,1.0431747436523438,3.7822132110595703
1702137075828044500,18.52604443359375,1.1382390260696411,-0.5229918956756592,2.564814567565918
1702137075845033700,18.54303369140625,2.675835132598877,-1.866434097290039,1.437272071838379
1702137075862026000,18.56002587890625,3.8149890899658203,-2.8661794662475586,0.6489982604980469
1702137075879018000,18.57701806640625,4.199370384216309,-3.7275285720825195,0.6383390426635742
1702137075896010000,18.594010009765626,3.909257650375366,-4.325301647186279,0.6723213195800781
1702137075913002000,18.611001953125,3.338359832763672,-4.887870788574219,0.2922706604003906
1702137075929994800,18.627994873046877,3.383599042892456,-5.084749221801758,-0.03195667266845703
1702137075946989600,18.644989501953123,4.029582977294922,-4.978151321411133,0.1693706512451172
1702137075963975400,18.661975341796875,4.533203125,-4.941341400146484,0.9684953689575195
1702137075980970500,18.678970458984374,4.575804233551025,-4.9818596839904785,1.8739376068115234
1702137075997963300,18.69596337890625,4.401309967041016,-4.680875778198242,1.8876676559448242
1702137076014944300,18.7129443359375,4.361569881439209,-4.341726779937744,1.2918453216552734
1702137076031946800,18.72994677734375,4.503697872161865,-4.076884746551514,0.958465576171875
1702137076048938500,18.7469384765625,4.950937271118164,-4.579094886779785,1.4485158920288086
1702137076065927000,18.763927001953125,5.762439727783203,-4.537443161010742,1.8533143997192383
1702137076082919000,18.7809189453125,6.133292198181152,-4.272729873657227,1.3224058151245117
1702137076099917800,18.797917724609373,6.134352684020996,-3.995117664337158,0.048333168029785156
1702137076116907300,18.8149072265625,6.222422122955322,-3.7007925510406494,-1.217604160308838
1702137076133899800,18.831899658203124,6.239034175872803,-3.529876232147217,-1.867898941040039
1702137076150890000,18.848889892578125,6.137305736541748,-3.580632209777832,-2.1772427558898926
1702137076167885300,18.86588525390625,5.740653038024902,-3.4465818405151367,-2.592278480529785
1702137076184875500,18.88287548828125,5.970890998840332,-2.977634906768799,-2.9375743865966797
1702137076201868300,18.899868408203126,6.088812351226807,-2.4310460090637207,-3.616239547729492
1702137076218861300,18.916861328125,6.100595474243164,-2.027888059616089,-3.993795871734619
1702137076235852000,18.93385205078125,6.110747337341309,-1.5953525304794312,-4.389171600341797
1702137076252828000,18.950827880859375,5.995090007781982,-1.4444197416305542,-4.028968334197998
1702137076269826000,18.967825927734374,5.717883586883545,-1.2278125286102295,-3.6050734519958496
1702137076286828300,18.984828369140626,5.186642646789551,-0.8388978838920593,-3.1651134490966797
1702137076303820500,19.001820556640624,4.677432537078857,-0.4714895486831665,-2.1867852210998535
1702137076320812500,19.0188125,4.035853385925293,0.009112238883972168,-1.170659065246582
1702137076337794300,19.035794189453124,3.4097042083740234,0.18644678592681885,-0.8277430534362793
1702137076354793000,19.05279296875,2.9007763862609863,0.4886305332183838,-0.9854707717895508
1702137076371782400,19.069782470703124,2.4534599781036377,0.8427033424377441,-0.6607270240783691
1702137076388780800,19.08678076171875,2.402515411376953,1.1933512687683105,0.4621410369873047
1702137076405775400,19.103775390625,1.243781566619873,1.3619694709777832,3.0563697814941406
1702137076422763300,19.12076318359375,-0.4523131847381592,2.1153793334960938,4.090753555297852
1702137076439757300,19.13775732421875,-1.7772188186645508,2.804349422454834,3.750701904296875
1702137076456749300,19.154749267578126,-1.9701714515686035,3.895036458969116,3.388547897338867
1702137076473741000,19.171740966796875,-0.6250886917114258,4.7402448654174805,4.395878791809082
1702137076490725400,19.188725341796875,1.3964741230010986,5.801717758178711,6.9385576248168945
1702137076507727400,19.205727294921875,1.9968197345733643,7.727028846740723,8.838626861572266
1702137076524707000,19.22270703125,-0.3928326368331909,9.121289253234863,7.844778060913086
1702137076541709600,19.23970947265625,-4.151313781738281,10.39761734008789,6.050443649291992
1702137076558702300,19.256702392578124,-6.08646297454834,11.170533180236816,6.81453800201416
1702137076575694000,19.273694091796877,-4.411690711975098,11.25792407989502,9.944319725036621
1702137076592685800,19.290685791015626,-2.104487419128418,11.046662330627441,12.46569538116455
1702137076609668000,19.307668212890626,-4.054122447967529,10.605730056762695,13.262138366699219
1702137076626670300,19.32467041015625,-7.998540878295898,10.516018867492676,12.48096752166748
1702137076643666200,19.341666259765624,-9.591256141662598,9.64966106414795,12.869921684265137
1702137076660654300,19.358654296875,-6.121574878692627,7.4623212814331055,12.606950759887695
1702137076677647000,19.375647216796875,-0.7041611671447754,3.8473081588745117,10.168564796447754
1702137076694638600,19.392638671875,4.251274108886719,0.65283203125,7.0031328201293945
1702137076711633000,19.4096328125,5.724915981292725,-2.589463949203491,3.7949538230895996
1702137076728622300,19.426622314453127,3.954127311706543,-5.615869045257568,0.9473176002502441
1702137076745615000,19.443614990234376,1.9845473766326904,-7.918941974639893,-1.429152488708496
1702137076762588400,19.46058837890625,2.103275775909424,-9.260636329650879,-3.098827362060547
1702137076779597000,19.47759716796875,3.393791913986206,-10.329385757446289,-4.200725078582764
1702137076796593000,19.494593017578126,4.9803032875061035,-11.20315170288086,-5.679093360900879
1702137076813583600,19.51158349609375,6.483000755310059,-11.431380271911621,-7.4621500968933105
1702137076830575400,19.528575439453125,6.6962690353393555,-11.389289855957031,-8.363897323608398
1702137076847568000,19.54556787109375,4.954643726348877,-11.273834228515625,-8.351802825927734
1702137076864558800,19.562558837890624,1.896606206893921,-10.914285659790039,-8.09238052368164
1702137076881552100,19.57955224609375,-0.5399019718170166,-11.129009246826172,-7.511443138122559
1702137076898543600,19.596543701171875,-1.408611536026001,-11.869939804077148,-5.467905044555664
1702137076915533600,19.613533447265624,-0.853283166885376,-11.038145065307617,-6.678277969360352
1702137076932530000,19.630530029296875,-0.350388765335083,-12.98642349243164,-5.267146587371826
1702137076949520100,19.64752001953125,0.6360498666763306,-13.198352813720703,-5.457559108734131
1702137076966514700,19.6645146484375,0.2671002745628357,-13.550052642822266,-5.498236656188965
1702137076983501300,19.681501220703126,-0.4298088550567627,-14.231374740600586,-4.389637470245361
1702137077000496000,19.69849609375,-1.328391194343567,-14.996469497680664,-2.8586244583129883
1702137077017486300,19.715486328125,-1.2907805442810059,-16.25899887084961,-1.2465975284576416
1702137077034483000,19.73248291015625,-1.2334482669830322,-17.693920135498047,0.5084309577941895
1702137077051472600,19.74947265625,-2.3249711990356445,-19.320823669433594,2.7952752113342285
1702137077068464400,19.76646435546875,-3.4739835262298584,-20.34465217590332,5.610445499420166
1702137077085446400,19.7834462890625,-2.4234137535095215,-20.873554229736328,10.848007202148438
1702137077102449000,19.800448974609374,-1.1170835494995117,-19.198823928833008,16.6212100982666
1702137077119441000,19.81744091796875,-2.5653741359710693,-16.664287567138672,19.615436553955078
1702137077136432600,19.8344326171875,-4.690901279449463,-14.189340591430664,21.455474853515625
1702137077153426000,19.851426025390627,-8.037785530090332,-13.022878646850586,24.07122802734375
1702137077170406100,19.86840625,-10.986139297485352,-13.325394630432129,28.15369415283203
1702137077187408400,19.885408447265625,-11.35330581665039,-13.994708061218262,30.939807891845703
1702137077204402200,19.902402099609375,-8.520486831665039,-15.211285591125488,31.622459411621094
1702137077221393700,19.9193935546875,-2.9318039417266846,-16.306652069091797,32.62852478027344
1702137077238383000,19.936383056640626,3.213707447052002,-15.475327491760254,32.86434555053711
1702137077255380200,19.953380126953125,7.254461765289307,-13.776267051696777,33.261619567871094
1702137077272365300,19.970365234375,8.128931999206543,-11.779985427856445,33.70161437988281
1702137077289362200,19.987362060546875,7.968094825744629,-10.152118682861328,33.84516906738281
1702137077306354200,20.004354248046877,9.201090812683105,-9.391852378845215,33.67581558227539
1702137077323346200,20.02134619140625,10.655318260192871,-9.652689933776855,32.47248077392578
1702137077340338000,20.038337890625,12.737569808959961,-11.290692329406738,31.12893295288086
1702137077357330400,20.055330322265625,14.202524185180664,-14.152079582214355,29.481849670410156
1702137077374323700,20.07232373046875,15.231045722961426,-16.153980255126953,27.747238159179688
1702137077391314400,20.089314453125,14.296138763427734,-17.80672264099121,27.891620635986328
1702137077408306200,20.10630615234375,12.787261962890625,-19.102506637573242,27.745365142822266
1702137077425288700,20.123288818359374,12.904763221740723,-20.619054794311523,26.10806655883789
1702137077442290700,20.140290771484374,17.955244064331055,-21.136940002441406,22.85745620727539
1702137077459282700,20.15728271484375,22.46790885925293,-16.955078125,16.5086727142334
1702137077476274700,20.174274658203124,22.60843849182129,-14.42033576965332,12.535455703735352
1702137077493267200,20.19126708984375,19.497665405273438,-13.69715690612793,11.592950820922852
1702137077510259000,20.208259033203124,14.510137557983398,-12.627838134765625,11.829625129699707
1702137077527250700,20.225250732421873,10.403603553771973,-11.448603630065918,12.398992538452148
1702137077544243500,20.242243408203127,8.651878356933594,-12.769570350646973,15.443703651428223
1702137077561235700,20.259235595703124,8.551864624023438,-13.758020401000977,17.937034606933594
1702137077578225200,20.27622509765625,6.9798078536987305,-13.856247901916504,19.238162994384766
1702137077595222000,20.293221923828124,3.670078992843628,-13.189096450805664,19.975536346435547
1702137077612201000,20.310200927734375,-0.4844885468482971,-12.887626647949219,21.121421813964844
1702137077629203700,20.32720361328125,-4.714967250823975,-14.015186309814453,23.361236572265625
1702137077646186000,20.34418603515625,-6.076342582702637,-15.058721542358398,23.144372940063477
1702137077663190300,20.361190185546874,-4.159090995788574,-14.775237083435059,21.213457107543945
1702137077680176600,20.3781767578125,-2.150289535522461,-15.319064140319824,20.65804672241211
1702137077697175600,20.395175537109374,-0.7515232563018799,-15.011308670043945,20.068471908569336
1702137077714164000,20.4121640625,-0.24069225788116455,-13.691895484924316,19.241775512695312
1702137077731153400,20.4291533203125,-1.1826047897338867,-12.232144355773926,18.338294982910156
1702137077748150500,20.446150634765626,-3.126040458679199,-11.252555847167969,17.238466262817383
1702137077765140500,20.463140380859375,-5.120038032531738,-11.61618709564209,15.779008865356445
1702137077782132700,20.4801328125,-3.862130641937256,-12.966094970703125,12.973010063171387
1702137077799124700,20.497124755859375,0.09258079528808594,-15.670145988464355,10.520177841186523
1702137077816116500,20.514116455078124,3.365156650543213,-17.18755531311035,9.179798126220703
1702137077833109000,20.53110888671875,4.616621971130371,-16.21940040588379,8.028426170349121
1702137077850095600,20.548095703125,3.0651211738586426,-16.949914932250977,9.91407299041748
1702137077867092700,20.5650927734375,0.43273496627807617,-19.48821258544922,10.454821586608887
1702137077884084500,20.58208447265625,0.08525419235229492,-20.55724334716797,5.717062950134277
1702137077901077000,20.599076904296876,5.522839069366455,-21.878787994384766,3.4820656776428223
1702137077918069000,20.616069091796874,10.526268005371094,-21.60845184326172,7.681487083435059
1702137077935061200,20.633061279296875,11.172382354736328,-19.986574172973633,17.085987091064453
1702137077952053000,20.650052978515625,7.217284202575684,-18.21088981628418,24.518531799316406
1702137077969045800,20.667045654296874,3.197410821914673,-18.00588607788086,28.41895866394043
1702137077986026000,20.68402587890625,3.487529993057251,-19.150983810424805,32.08521270751953
1702137078003031600,20.701031494140626,7.603433609008789,-18.217920303344727,36.1915283203125
1702137078020021500,20.718021484375,9.229185104370117,-15.729903221130371,39.54860305786133
1702137078037004300,20.73500439453125,6.162609100341797,-13.822068214416504,40.33317565917969
1702137078054005800,20.752005859375,2.495880603790283,-14.668761253356934,41.4176025390625
1702137078071001000,20.7690009765625,1.1607043743133545,-17.63225746154785,44.36064147949219
1702137078087986400,20.785986328125,4.860174655914307,-21.123916625976562,47.038551330566406
1702137078104973000,20.80297314453125,11.102699279785156,-23.574562072753906,50.3572998046875
1702137078121974000,20.81997412109375,15.63000774383545,-23.214122772216797,49.773956298828125
1702137078138966000,20.836966064453126,16.221332550048828,-23.09758758544922,47.38247299194336
1702137078155958000,20.8539580078125,15.03625202178955,-23.742937088012695,44.119285583496094
1702137078172950500,20.870950439453125,13.910380363464355,-26.019590377807617,42.095619201660156
1702137078189942500,20.887942626953127,13.154985427856445,-29.25852394104004,39.36705017089844
1702137078206934800,20.904934814453124,11.760027885437012,-33.58904266357422,35.81700897216797
1702137078223926300,20.92192626953125,10.836280822753906,-38.60486602783203,30.15149688720703
1702137078240919000,20.9389189453125,11.39668083190918,-40.6330680847168,23.1492977142334
1702137078257910800,20.955910888671873,11.60659408569336,-36.076148986816406,15.625699996948242
1702137078274903000,20.972903076171875,9.587355613708496,-30.02347183227539,13.028005599975586
1702137078291894500,20.98989453125,5.474577903747559,-24.527626037597656,13.586142539978027
1702137078308887000,21.006886962890626,1.0585479736328125,-20.24742889404297,13.501479148864746
1702137078325866200,21.0238662109375,-0.868776798248291,-18.31393814086914,10.935450553894043
1702137078342863600,21.040863525390623,-0.4412355422973633,-16.701889038085938,7.5747199058532715
1702137078359855400,21.05785546875,0.3188810348510742,-15.328435897827148,7.144553184509277
1702137078376848400,21.074848388671874,1.388096809387207,-14.149503707885742,7.4828925132751465
1702137078393839600,21.091839599609376,2.45851469039917,-12.100235939025879,6.798447608947754
1702137078410839300,21.10883935546875,3.074371337890625,-11.0563383102417,6.753782749176025
1702137078427828000,21.125827880859376,3.1469979286193848,-11.573371887207031,7.764332294464111
1702137078444823800,21.14282373046875,1.8315496444702148,-12.66479778289795,9.546688079833984
1702137078461815600,21.159815673828124,1.4992570877075195,-13.187289237976074,9.519564628601074
1702137078478807800,21.176807861328125,3.81774640083313,-14.80293083190918,10.319523811340332
1702137078495791600,21.19379150390625,6.522159576416016,-16.821073532104492,12.02527141571045
1702137078512790000,21.2107900390625,8.194024085998535,-17.988853454589844,15.28293514251709
1702137078529781800,21.22778173828125,7.676513671875,-18.939477920532227,19.585433959960938
1702137078546778400,21.2447783203125,5.867948055267334,-19.64093017578125,23.140399932861328
1702137078563767800,21.261767822265625,2.8923051357269287,-21.147056579589844,25.668407440185547
1702137078580760600,21.278760498046875,1.6545541286468506,-23.200153350830078,26.528545379638672
1702137078597752600,21.295752685546876,2.995593309402466,-25.549846649169922,26.566089630126953
1702137078614744600,21.31274462890625,6.29866886138916,-27.837398529052734,26.80567169189453
1702137078631725800,21.329725830078125,8.988873481750488,-29.60028839111328,28.31879234313965
1702137078648729000,21.34672900390625,7.242254257202148,-29.317859649658203,30.93056869506836
1702137078665720800,21.363720947265627,2.8680384159088135,-30.045177459716797,32.688655853271484
1702137078682712600,21.380712646484376,0.8944392204284668,-29.457717895507812,31.3258056640625
1702137078699704800,21.397704833984374,3.0124428272247314,-28.757644653320312,28.529735565185547
1702137078716697300,21.414697265625,6.205367088317871,-29.404376983642578,30.45663070678711
1702137078733689000,21.431689208984373,8.955902099609375,-29.899333953857422,37.89206314086914
1702137078750678300,21.44867822265625,10.441760063171387,-23.231998443603516,37.800235748291016
1702137078767673000,21.465673095703124,9.215716361999512,-18.036575317382812,34.12648010253906
1702137078784668200,21.482668212890626,6.801546573638916,-14.880569458007812,32.6628532409668
1702137078801657000,21.499656982421875,5.641052722930908,-12.982084274291992,33.08639907836914
1702137078818649300,21.5166494140625,5.888943672180176,-7.24109411239624,31.849979400634766
1702137078835641300,21.533641357421875,7.1655168533325195,-2.5485644340515137,32.34746551513672
1702137078852621300,21.550621337890625,7.950048446655273,0.9658536911010742,32.728851318359375
1702137078869615900,21.567615966796875,5.341482162475586,3.192882537841797,31.010269165039062
1702137078886614500,21.584614501953126,1.840160608291626,5.480116844177246,25.539737701416016
1702137078903602700,21.601602783203123,2.6521387100219727,6.805938720703125,21.371456146240234
1702137078920603100,21.61860302734375,6.487814903259277,8.011614799499512,20.611915588378906
1702137078937586000,21.6355859375,10.40005874633789,8.69549560546875,19.755245208740234
1702137078954576600,21.65257666015625,10.250869750976562,8.329998970031738,19.189682006835938
1702137078971567400,21.6695673828125,6.8909807205200195,7.866612434387207,16.448104858398438
1702137078988565000,21.68656494140625,3.1882076263427734,6.824980735778809,13.341583251953125
1702137079005552600,21.703552734375,2.4925696849823,4.958782196044922,10.572163581848145
