time,seconds_elapsed,z,y,x
1700935907982401800,0.13540185546875,8.646727561950684,4.633291721343994,-0.053122833371162415
1700935907999394600,0.15239453125,8.669015884399414,4.589284896850586,-0.1507919579744339
1700935908016377000,0.169377197265625,8.703309059143066,4.523293972015381,-0.16831547021865845
1700935908033377500,0.18637744140625,8.742351531982422,4.450527667999268,0.01412365771830082
1700935908050373400,0.203373291015625,8.760736465454102,4.3978776931762695,0.3798297345638275
1700935908067361800,0.22036181640625,8.7465181350708,4.3658905029296875,0.8206890821456909
1700935908084347100,0.23734716796875,8.714286804199219,4.337413311004639,1.2182588577270508
1700935908101347000,0.25434716796875,8.69453239440918,4.303399562835693,1.4566974639892578
1700935908118339600,0.271339599609375,8.720259666442871,4.259109020233154,1.432889461517334
1700935908135337200,0.288337158203125,8.796024322509766,4.19875955581665,1.1119723320007324
1700935908152338200,0.305338134765625,8.881082534790039,4.117462635040283,0.6395196318626404
1700935908169323000,0.322322998046875,8.93233871459961,4.002718448638916,0.653960645198822
1700935908186314000,0.33931396484375,8.924153327941895,3.9753572940826416,0.8900155425071716
1700935908203307500,0.3563076171875,8.865910530090332,4.063043594360352,1.0599086284637451
1700935908220292600,0.373292724609375,8.785611152648926,4.189669132232666,1.2230329513549805
1700935908237291500,0.39029150390625,8.712972640991211,4.303516864776611,1.341622233390808
1700935908254286600,0.40728662109375,8.661001205444336,4.39016580581665,1.3962864875793457
1700935908271271000,0.42427099609375,8.624034881591797,4.462136745452881,1.3969497680664062
1700935908288268300,0.441268310546875,8.59606647491455,4.5279388427734375,1.3570255041122437
1700935908305268500,0.4582685546875,8.565542221069336,4.587893009185791,1.348642110824585
1700935908322258700,0.4752587890625,8.529356956481934,4.644411087036133,1.3840583562850952
1700935908339250700,0.492250732421875,8.488580703735352,4.711585998535156,1.4074994325637817
1700935908356237600,0.509237548828125,8.439032554626465,4.806239128112793,1.3852449655532837
1700935908373237500,0.526237548828125,8.370955467224121,4.931210517883301,1.3588160276412964
1700935908390232000,0.543232177734375,8.292858123779297,5.064814567565918,1.34620201587677
1700935908407221200,0.56022119140625,8.224906921386719,5.173030853271484,1.351579189300537
1700935908424216300,0.57721630859375,8.177225112915039,5.242343425750732,1.3736566305160522
1700935908441211000,0.5942109375,8.146998405456543,5.282248020172119,1.4001377820968628
1700935908458199000,0.611198974609375,8.119296073913574,5.322399616241455,1.4089723825454712
1700935908475196400,0.628196533203125,8.076807975769043,5.384929180145264,1.4155656099319458
1700935908492188400,0.6451884765625,8.02579402923584,5.46041202545166,1.4165608882904053
1700935908509182500,0.662182373046875,7.969170570373535,5.536518096923828,1.440622091293335
1700935908526172000,0.679171875,7.892411708831787,5.61808443069458,1.54371976852417
1700935908543156500,0.696156494140625,7.786862373352051,5.712812900543213,1.721816897392273
1700935908560160500,0.713160400390625,7.687686920166016,5.812623977661133,1.830024242401123
1700935908577151500,0.7301513671875,7.623955726623535,5.887784481048584,1.8561792373657227
1700935908594145800,0.747145751953125,7.5718674659729,5.944070816040039,1.8896948099136353
1700935908611140400,0.764140380859375,7.509860038757324,5.986360549926758,2.0003983974456787
1700935908628129300,0.78112939453125,7.425212383270264,6.0208210945129395,2.2027385234832764
1700935908645125600,0.798125732421875,7.326587677001953,6.050513744354248,2.438957691192627
1700935908662117400,0.815117431640625,7.2088303565979,6.086909294128418,2.686711311340332
1700935908679112400,0.832112548828125,7.084450721740723,6.121561050415039,2.927996873855591
1700935908696101000,0.84910107421875,6.974754333496094,6.128061294555664,3.1679303646087646
1700935908713096200,0.86609619140625,6.886950969696045,6.076551914215088,3.446960926055908
1700935908730087400,0.88308740234375,6.771590709686279,5.984464645385742,3.816786289215088
1700935908747083500,0.90008349609375,6.596432685852051,5.881690979003906,4.2578043937683105
1700935908764075300,0.9170751953125,6.359829425811768,5.780730724334717,4.729887962341309
1700935908781069800,0.93406982421875,6.056796550750732,5.705573081970215,5.195937156677246
1700935908798067200,0.951067138671875,5.632228851318359,5.6843743324279785,5.674680709838867
1700935908815054800,0.968054931640625,5.00852108001709,5.689167022705078,6.227696418762207
1700935908832047000,0.985047119140625,4.322897434234619,5.620229721069336,6.779504299163818
1700935908849042000,1.0020419921875,3.795375108718872,5.412256717681885,7.2483601570129395
1700935908866030600,1.019030517578125,3.4659926891326904,5.11665678024292,7.618584156036377
1700935908883026000,1.03602587890625,3.1856913566589355,4.818528175354004,7.929014205932617
1700935908900020500,1.0530205078125,2.830845355987549,4.57405424118042,8.203685760498047
1700935908917009400,1.070009521484375,2.409940004348755,4.364148139953613,8.448817253112793
1700935908934004700,1.087004638671875,1.9875283241271973,4.122851371765137,8.676862716674805
1700935908950999300,1.103999267578125,1.6501083374023438,3.810835838317871,8.887676239013672
1700935908967998200,1.120998291015625,1.3643466234207153,3.4593870639801025,9.077848434448242
1700935908984982000,1.13798193359375,1.0731892585754395,3.108468770980835,9.242391586303711
1700935909001979000,1.154978759765625,0.7987396121025085,2.762146472930908,9.379162788391113
1700935909018971400,1.171971435546875,0.5493564605712891,2.4186556339263916,9.49128246307373
1700935909035960000,1.1889599609375,0.3387157618999481,2.059617280960083,9.585372924804688
1700935909052955400,1.205955322265625,0.1884329617023468,1.6674517393112183,9.665412902832031
1700935909069950200,1.2229501953125,0.05675658583641052,1.2827174663543701,9.72561264038086
1700935909086939000,1.23993896484375,-0.0782070979475975,0.9192902445793152,9.766519546508789
1700935909103934200,1.256934326171875,-0.20377840101718903,0.5656026601791382,9.791563034057617
1700935909120942800,1.27394287109375,-0.30449962615966797,0.22832880914211273,9.80261516571045
1700935909137918700,1.290918701171875,-0.3765905201435089,-0.08168590068817139,9.802430152893066
1700935909154915800,1.307915771484375,-0.4251849949359894,-0.36495691537857056,9.793983459472656
1700935909171912700,1.32491259765625,-0.4752032458782196,-0.6253427863121033,9.778510093688965
1700935909188891000,1.341890869140625,-0.5473976135253906,-0.8762769103050232,9.755439758300781
1700935909205889500,1.3588896484375,-0.63316810131073,-1.1353044509887695,9.723493576049805
1700935909222882000,1.375882080078125,-0.7126381993293762,-1.3978322744369507,9.683714866638184
1700935909239880700,1.392880615234375,-0.7734791040420532,-1.6355624198913574,9.64172077178955
1700935909256871400,1.409871337890625,-0.8170958161354065,-1.8481435775756836,9.599627494812012
1700935909273867300,1.4268671875,-0.8444373607635498,-2.04079008102417,9.558148384094238
1700935909290858800,1.443858642578125,-0.8475720882415771,-2.2064971923828125,9.520980834960938
1700935909307847400,1.460847412109375,-0.8306356072425842,-2.344841957092285,9.489355087280273
1700935909324842500,1.477842529296875,-0.8003330230712891,-2.4508254528045654,9.465149879455566
1700935909341836500,1.49483642578125,-0.7725248336791992,-2.531798839569092,9.446126937866211
1700935909358830300,1.511830322265625,-0.7499440312385559,-2.6087777614593506,9.426981925964355
1700935909375820800,1.52882080078125,-0.7240017056465149,-2.6887383460998535,9.406518936157227
1700935909392809700,1.545809814453125,-0.6867250800132751,-2.7648487091064453,9.38723373413086
1700935909409810700,1.562810791015625,-0.641549825668335,-2.838186025619507,9.368524551391602
1700935909426797800,1.5797978515625,-0.5963671803474426,-2.91058087348938,9.34927749633789
1700935909443793700,1.596793701171875,-0.5554419755935669,-2.980531692504883,9.329739570617676
1700935909460788200,1.613788330078125,-0.5225314497947693,-3.0639350414276123,9.304588317871094
1700935909477776100,1.630776123046875,-0.49145615100860596,-3.1619465351104736,9.27344036102295
1700935909494773000,1.64777294921875,-0.44478076696395874,-3.2469708919525146,9.246376037597656
1700935909511765000,1.664764892578125,-0.39031365513801575,-3.31607985496521,9.224283218383789
1700935909528759800,1.681759765625,-0.3384353816509247,-3.372669219970703,9.205794334411621
1700935909545746700,1.69874658203125,-0.30898764729499817,-3.4202280044555664,9.189269065856934
1700935909562736000,1.715736083984375,-0.31280791759490967,-3.477374792098999,9.167668342590332
1700935909579749000,1.7327490234375,-0.3258378505706787,-3.5429880619049072,9.14205551147461
1700935909596723500,1.749723388671875,-0.312211811542511,-3.594956159591675,9.122222900390625
1700935909613727000,1.76672705078125,-0.26629331707954407,-3.6258232593536377,9.111455917358398
1700935909630717700,1.7837177734375,-0.2045227438211441,-3.630852222442627,9.111047744750977
1700935909647706400,1.800706298828125,-0.15443871915340424,-3.614877700805664,9.11838436126709
1700935909664692200,1.817692138671875,-0.12389928847551346,-3.589833974838257,9.128739356994629
1700935909681695000,1.834695068359375,-0.09899161010980606,-3.558090925216675,9.141462326049805
1700935909698689800,1.851689697265625,-0.0671064481139183,-3.5178112983703613,9.157325744628906
1700935909715678200,1.86867822265625,-0.01759573444724083,-3.4572298526763916,9.180598258972168
1700935909732673800,1.885673828125,0.04796120524406433,-3.370372772216797,9.212729454040527
1700935909749668400,1.90266845703125,0.11575791984796524,-3.266585111618042,9.249441146850586
1700935909766653200,1.919653076171875,0.17366406321525574,-3.157296657562256,9.286412239074707
1700935909783652900,1.93665283203125,0.2214188575744629,-3.0495026111602783,9.3213529586792
1700935909800647400,1.9536474609375,0.2630019187927246,-2.9486565589904785,9.352667808532715
1700935909817633000,1.970633056640625,0.307650089263916,-2.855712890625,9.380105972290039
1700935909834633500,1.987633544921875,0.3581770658493042,-2.7660622596740723,9.405144691467285
1700935909851625000,2.004625,0.41081076860427856,-2.686927556991577,9.425910949707031
1700935909868617200,2.0216171875,0.45689794421195984,-2.6242198944091797,9.441442489624023
1700935909885609000,2.03860888671875,0.49199235439300537,-2.5818545818328857,9.451353073120117
1700935909902608100,2.055608154296875,0.5077061653137207,-2.559746742248535,9.456535339355469
1700935909919595800,2.072595703125,0.5107882022857666,-2.5594491958618164,9.456449508666992
1700935909936587800,2.089587890625,0.5124558210372925,-2.5782954692840576,9.451238632202148
1700935909953579300,2.106579345703125,0.5174604654312134,-2.6116943359375,9.441790580749512
1700935909970565400,2.1235654296875,0.5221803784370422,-2.6561808586120605,9.42911148071289
1700935909987569200,2.140569091796875,0.522776186466217,-2.7104976177215576,9.41360855102539
1700935910004564500,2.157564453125,0.5193403363227844,-2.77250599861145,9.395724296569824
1700935910021554700,2.1745546875,0.5153753757476807,-2.8411686420440674,9.375407218933105
1700935910038540800,2.191540771484375,0.5082370638847351,-2.9180290699005127,9.352161407470703
1700935910055538200,2.2085380859375,0.49709638953208923,-2.9996373653411865,9.32690715789795
1700935910072535600,2.22553564453125,0.47860047221183777,-3.0823659896850586,9.300864219665527
1700935910089527600,2.242527587890625,0.44973742961883545,-3.1651923656463623,9.274449348449707
1700935910106516200,2.25951611328125,0.4153558015823364,-3.248443365097046,9.24722671508789
1700935910123511800,2.27651171875,0.38030877709388733,-3.3308658599853516,9.219371795654297
1700935910140506400,2.29350634765625,0.3472316563129425,-3.409653902053833,9.19183349609375
1700935910157495000,2.3104951171875,0.321686327457428,-3.481218099594116,9.165902137756348
1700935910174481700,2.327481689453125,0.2973414659500122,-3.541428327560425,9.143631935119629
1700935910191483600,2.344483642578125,0.2676598131656647,-3.591142416000366,9.125138282775879
1700935910208474600,2.361474609375,0.23257067799568176,-3.633910894393921,9.109155654907227
1700935910225470200,2.37847021484375,0.1979978382587433,-3.678819179534912,9.091931343078613
1700935910242465500,2.395465576171875,0.1667526513338089,-3.727964401245117,9.072518348693848
1700935910259456800,2.412456787109375,0.1391596496105194,-3.7776920795440674,9.05239200592041
1700935910276439000,2.42943896484375,0.11618125438690186,-3.822533130645752,9.033872604370117
1700935910293438700,2.446438720703125,0.09663693606853485,-3.8560750484466553,9.019838333129883
1700935910310438400,2.4634384765625,0.08268723636865616,-3.8791561126708984,9.0100736618042
1700935910327425000,2.480425048828125,0.07321064919233322,-3.8954334259033203,9.003131866455078
1700935910344411100,2.4974111328125,0.06877349317073822,-3.9092578887939453,8.997172355651855
1700935910361413600,2.51441357421875,0.06876559555530548,-3.917793035507202,8.993456840515137
1700935910378404400,2.531404296875,0.06914215534925461,-3.913771390914917,8.995205879211426
1700935910395400000,2.54839990234375,0.07305394858121872,-3.8963687419891357,9.002726554870605
1700935910412392000,2.565391845703125,0.08389731496572495,-3.868504047393799,9.014641761779785
1700935910429384400,2.582384521484375,0.1004127785563469,-3.8351330757141113,9.02872085571289
1700935910446378000,2.5993779296875,0.12095580250024796,-3.799996852874756,9.043312072753906
1700935910463371000,2.61637109375,0.14614561200141907,-3.768561840057373,9.056086540222168
1700935910480366800,2.633366943359375,0.17402717471122742,-3.7420713901519775,9.066574096679688
1700935910497353500,2.650353515625,0.200096994638443,-3.720587968826294,9.074872970581055
1700935910514349600,2.667349609375,0.22143377363681793,-3.7048585414886475,9.080810546875
1700935910531344000,2.68434375,0.24561581015586853,-3.696214437484741,9.083710670471191
1700935910548322000,2.701322021484375,0.2839542627334595,-3.69519305229187,9.0830078125
1700935910565329700,2.71832958984375,0.3287854492664337,-3.6969892978668213,9.080764770507812
1700935910582322400,2.735322509765625,0.37023869156837463,-3.6892449855804443,9.082320213317871
1700935910599317200,2.752317138671875,0.40746089816093445,-3.6677138805389404,9.089441299438477
1700935910616305200,2.76930517578125,0.440377801656723,-3.632906198501587,9.101877212524414
1700935910633300200,2.78630029296875,0.46908295154571533,-3.593425750732422,9.116104125976562
1700935910650295000,2.803294921875,0.4970203638076782,-3.5561954975128174,9.129215240478516
1700935910667284200,2.8202841796875,0.5228159427642822,-3.5250189304351807,9.139860153198242
1700935910684279300,2.837279296875,0.5425474047660828,-3.500501871109009,9.148128509521484
1700935910701272800,2.85427294921875,0.5540938973426819,-3.4832513332366943,9.15401840209961
1700935910718264300,2.871264404296875,0.5592575669288635,-3.473159074783325,9.157537460327148
1700935910735259100,2.888259033203125,0.561061441898346,-3.4683518409729004,9.15925121307373
1700935910752251400,2.90525146484375,0.5640007853507996,-3.468400478363037,9.159050941467285
1700935910769246000,2.922245849609375,0.5710712671279907,-3.4722206592559814,9.157166481018066
1700935910786235000,2.93923486328125,0.580622673034668,-3.478726625442505,9.154095649719238
1700935910803230500,2.95623046875,0.5873741507530212,-3.4904565811157227,9.149197578430176
1700935910820224800,2.973224853515625,0.590145468711853,-3.512145757675171,9.140715599060059
1700935910837214000,2.9902138671875,0.5885816216468811,-3.543344497680664,9.128767013549805
1700935910854209000,3.007208984375,0.5864593982696533,-3.5840251445770264,9.113011360168457
1700935910871203800,3.024203857421875,0.5827844142913818,-3.631571054458618,9.094405174255371
1700935910888192800,3.04119287109375,0.5821809768676758,-3.6825742721557617,9.073909759521484
1700935910905188900,3.05818896484375,0.583068311214447,-3.730130434036255,9.054407119750977
1700935910922192600,3.075192626953125,0.5816023945808411,-3.767139196395874,9.039165496826172
1700935910939172600,3.092172607421875,0.5758124589920044,-3.7946953773498535,9.028002738952637
1700935910956167200,3.109167236328125,0.5665534138679504,-3.8174283504486084,9.019001007080078
1700935910973160000,3.126159912109375,0.5608634948730469,-3.8410072326660156,9.009340286254883
1700935910990154500,3.143154541015625,0.5615057945251465,-3.868056058883667,8.997718811035156
1700935911007146800,3.160146728515625,0.5641326904296875,-3.893991231918335,8.986361503601074
1700935911024140000,3.17714013671875,0.5635690093040466,-3.9160571098327637,8.97680377960205
1700935911041132800,3.1941328125,0.5584085583686829,-3.9350461959838867,8.968820571899414
1700935911058126000,3.2111259765625,0.5499476194381714,-3.952540159225464,8.961645126342773
1700935911075122000,3.228121826171875,0.5401783585548401,-3.9685585498809814,8.955158233642578
1700935911092114400,3.245114501953125,0.5315154194831848,-3.9830758571624756,8.94922924041748
1700935911109110500,3.262110595703125,0.5238403677940369,-3.995831251144409,8.943994522094727
1700935911126088200,3.279088134765625,0.5145319104194641,-4.004347324371338,8.940725326538086
1700935911143082500,3.29608251953125,0.507030189037323,-4.00335693359375,8.941597938537598
1700935911160083500,3.31308349609375,0.5028757452964783,-3.9927561283111572,8.94657039642334
1700935911177076700,3.33007666015625,0.5049442052841187,-3.979807138442993,8.952224731445312
1700935911194069500,3.347069580078125,0.5063762068748474,-3.9701783657073975,8.956416130065918
1700935911211062800,3.364062744140625,0.5039045810699463,-3.9633917808532715,8.959559440612793
1700935911228055300,3.38105517578125,0.49959811568260193,-3.958021640777588,8.962176322937012
1700935911245049300,3.39804931640625,0.4990461468696594,-3.9533324241638184,8.964275360107422
1700935911262041300,3.415041259765625,0.5033985376358032,-3.947754144668579,8.966490745544434
1700935911279034400,3.432034423828125,0.5138325691223145,-3.9390664100646973,8.969718933105469
1700935911296027400,3.44902734375,0.5248677134513855,-3.929899215698242,8.973099708557129
1700935911313017900,3.466017822265625,0.5350629687309265,-3.919776678085327,8.976924896240234
1700935911330014500,3.483014404296875,0.5447596907615662,-3.908496618270874,8.981258392333984
1700935911347007700,3.5000078125,0.5565634369850159,-3.896226167678833,8.985865592956543
1700935911363999200,3.516999267578125,0.5702029466629028,-3.8836867809295654,8.990437507629395
1700935911380982800,3.533982666015625,0.5815737247467041,-3.8707950115203857,8.995266914367676
1700935911397985000,3.550985107421875,0.5894639492034912,-3.8538107872009277,9.002044677734375
1700935911414978300,3.567978271484375,0.5989885330200195,-3.835585355758667,9.009196281433105
1700935911431971300,3.584971435546875,0.6148014068603516,-3.82057523727417,9.014506340026855
1700935911448961800,3.6019619140625,0.635177493095398,-3.811368465423584,9.016990661621094
1700935911465959700,3.618959716796875,0.6557868719100952,-3.8069589138031006,9.017379760742188
1700935911482950100,3.6359501953125,0.6714723706245422,-3.8081443309783936,9.015724182128906
1700935911499943200,3.652943115234375,0.6805457472801208,-3.8153913021087646,9.011979103088379
1700935911516936000,3.66993603515625,0.6840423941612244,-3.83101487159729,9.005083084106445
1700935911533929000,3.686928955078125,0.6869227290153503,-3.853614091873169,8.995216369628906
1700935911550922000,3.703921875,0.6912420988082886,-3.876150369644165,8.985197067260742
1700935911567896600,3.720896484375,0.6977997422218323,-3.8937666416168213,8.977068901062012
1700935911584905500,3.737905517578125,0.7034867405891418,-3.9075679779052734,8.970627784729004
1700935911601903400,3.7549033203125,0.7052274346351624,-3.9184751510620117,8.965730667114258
1700935911618894000,3.77189404296875,0.7034043073654175,-3.928410530090332,8.961525917053223
1700935911635886800,3.788886962890625,0.700350284576416,-3.9383184909820557,8.957414627075195
1700935911652879600,3.805879638671875,0.695598840713501,-3.9473471641540527,8.95380973815918
1700935911669873000,3.822872802734375,0.6907666921615601,-3.9559152126312256,8.95040225982666
1700935911686865700,3.83986572265625,0.687524139881134,-3.9637205600738525,8.947196960449219
1700935911703858700,3.856858642578125,0.6835924386978149,-3.971036672592163,8.944254875183105
1700935911720852000,3.87385205078125,0.6782998442649841,-3.9769701957702637,8.94201946258545
1700935911737844700,3.8908447265625,0.6712720990180969,-3.982853412628174,8.939932823181152
1700935911754837000,3.9078369140625,0.6673181653022766,-3.988852024078369,8.937553405761719
1700935911771830500,3.92483056640625,0.6631771922111511,-3.994859457015991,8.935178756713867
1700935911788823800,3.94182373046875,0.6602781414985657,-4.001342296600342,8.932491302490234
1700935911805816600,3.958816650390625,0.6562394499778748,-4.0063796043396,8.93053150177002
1700935911822809600,3.9758095703125,0.6506907343864441,-4.009708881378174,8.929444313049316
1700935911839791900,3.9927919921875,0.6510041952133179,-4.014469146728516,8.927282333374023
1700935911856795000,4.009794921875,0.6543847322463989,-4.0208420753479,8.924164772033691
1700935911873789200,4.0267890625,0.6585078835487366,-4.026979446411133,8.92109489440918
1700935911890781200,4.04378125,0.6617001891136169,-4.031575679779053,8.918782234191895
1700935911907777800,4.06077783203125,0.6652301549911499,-4.030718803405762,8.918907165527344
1700935911924764000,4.077763916015625,0.6684969663619995,-4.021320819854736,8.922903060913086
1700935911941760500,4.094760498046875,0.6728850603103638,-4.007425308227539,8.92882251739502
1700935911958751200,4.111751220703125,0.6788617372512817,-3.9942378997802734,8.934279441833496
1700935911975738000,4.128738037109375,0.6872618794441223,-3.9807746410369873,8.939643859863281
1700935911992742100,4.1457421875,0.693313717842102,-3.9688310623168945,8.944486618041992
1700935912009731000,4.16273095703125,0.6976351141929626,-3.9581215381622314,8.948893547058105
1700935912026725400,4.179725341796875,0.6999351382255554,-3.9476208686828613,8.953351020812988
1700935912043701000,4.196700927734375,0.6970922350883484,-3.9371225833892822,8.958194732666016
1700935912060711400,4.21371142578125,0.6899603605270386,-3.9279773235321045,8.962760925292969
1700935912077701400,4.230701416015625,0.681588351726532,-3.920883893966675,8.966506004333496
1700935912094700300,4.2477001953125,0.6748926639556885,-3.914411783218384,8.969840049743652
1700935912111690200,4.264690185546875,0.6732203960418701,-3.9088451862335205,8.972393035888672
1700935912128683300,4.281683349609375,0.6732513904571533,-3.9075658321380615,8.972946166992188
1700935912145676000,4.298676025390625,0.6710779666900635,-3.9107203483581543,8.971736907958984
1700935912162669300,4.31566943359375,0.6661645174026489,-3.916347026824951,8.969648361206055
1700935912179651300,4.3326513671875,0.6620936989784241,-3.9236278533935547,8.966766357421875
1700935912196652500,4.349652587890625,0.6598185300827026,-3.932197093963623,8.963179588317871
1700935912213650700,4.366650634765625,0.6577398777008057,-3.9410455226898193,8.95944595336914
1700935912230641000,4.383640869140625,0.6551352143287659,-3.951794147491455,8.954899787902832
1700935912247634000,4.400634033203125,0.6530597805976868,-3.9625210762023926,8.950310707092285
1700935912264627200,4.417627197265625,0.6513330936431885,-3.9715020656585693,8.946455001831055
1700935912281620000,4.434619873046875,0.6502261757850647,-3.9779860973358154,8.943655014038086
1700935912298612700,4.45161279296875,0.6485810875892639,-3.9813363552093506,8.942281723022461
1700935912315606000,4.46860595703125,0.6465204954147339,-3.9836952686309814,8.94138240814209
1700935912332599000,4.48559912109375,0.6468052864074707,-3.985276937484741,8.940654754638672
1700935912349592000,4.502592041015625,0.6468833684921265,-3.984889507293701,8.94082260131836
1700935912366585000,4.519585205078125,0.6428069472312927,-3.9828059673309326,8.942046165466309
1700935912383577900,4.536577880859375,0.6370261311531067,-3.978494882583618,8.944376945495605
1700935912400560000,4.55356005859375,0.6346202492713928,-3.972151756286621,8.947367668151855
1700935912417563600,4.570563720703125,0.6345580220222473,-3.963731527328491,8.951105117797852
1700935912434556700,4.587556640625,0.6337788701057434,-3.9558613300323486,8.954641342163086
1700935912451550000,4.604550048828125,0.6320770382881165,-3.948838233947754,8.957859992980957
1700935912468540200,4.6215400390625,0.6293715238571167,-3.9412806034088135,8.961380004882812
1700935912485538600,4.63853857421875,0.629115104675293,-3.9368515014648438,8.96334457397461
1700935912502527700,4.65552783203125,0.6312096118927002,-3.9391839504241943,8.96217155456543
1700935912519523000,4.672523193359375,0.6306242942810059,-3.946382999420166,8.95904541015625
1700935912536514800,4.689514892578125,0.6274492144584656,-3.956904888153076,8.954626083374023
1700935912553497300,4.706497314453125,0.6258795857429504,-3.966202735900879,8.95062255859375
1700935912570496500,4.72349658203125,0.625860869884491,-3.9711506366729736,8.948429107666016
1700935912587495400,4.740495361328125,0.6245545744895935,-3.9681756496429443,8.94983959197998
1700935912604486700,4.757486572265625,0.6198651194572449,-3.957106351852417,8.95506477355957
1700935912621479700,4.774479736328125,0.6143894791603088,-3.9459545612335205,8.96036148071289
1700935912638472700,4.79147265625,0.6108925342559814,-3.939992666244507,8.963224411010742
1700935912655465500,4.808465576171875,0.6094155311584473,-3.938356399536133,8.964044570922852
1700935912672441900,4.82544189453125,0.6124175190925598,-3.9395787715911865,8.963302612304688
1700935912689451500,4.842451416015625,0.6164304614067078,-3.94167160987854,8.962105751037598
1700935912706442000,4.85944189453125,0.6166488528251648,-3.940704345703125,8.962516784667969
1700935912723439900,4.87643994140625,0.6125157475471497,-3.9373695850372314,8.964265823364258
1700935912740430600,4.8934306640625,0.6083104014396667,-3.934447765350342,8.965835571289062
1700935912757422600,4.910422607421875,0.6067898869514465,-3.933405876159668,8.966394424438477
1700935912774417400,4.92741748046875,0.6081037521362305,-3.9322385787963867,8.966817855834961
1700935912791409200,4.9444091796875,0.6098921298980713,-3.9315412044525146,8.967002868652344
1700935912808402200,4.961402099609375,0.6114492416381836,-3.93269419670105,8.966390609741211
1700935912825396700,4.978396728515625,0.6140395402908325,-3.9336941242218018,8.965775489807129
1700935912842384400,4.99538427734375,0.6155834794044495,-3.9335906505584717,8.965713500976562
1700935912859383800,5.0123837890625,0.6154744625091553,-3.9332127571105957,8.965886116027832
1700935912876365600,5.029365478515625,0.6170362234115601,-3.9359097480773926,8.96459674835205
1700935912893365000,5.046364990234375,0.6210511922836304,-3.9400765895843506,8.962488174438477
1700935912910363000,5.06336279296875,0.626047670841217,-3.9453396797180176,8.959826469421387
1700935912927353300,5.080353271484375,0.631972074508667,-3.951524019241333,8.956683158874512
1700935912944346400,5.097346435546875,0.6370594501495361,-3.953777551651001,8.955328941345215
1700935912961339100,5.114339111328125,0.640589714050293,-3.950928211212158,8.956334114074707
1700935912978332400,5.13133251953125,0.6436662077903748,-3.9442312717437744,8.959066390991211
1700935912995327000,5.148326904296875,0.6443359851837158,-3.936023235321045,8.962627410888672
1700935913012316400,5.16531640625,0.641325831413269,-3.929959774017334,8.965503692626953
1700935913029311200,5.182311279296875,0.6372091174125671,-3.9304745197296143,8.965571403503418
1700935913046304300,5.19930419921875,0.6352888941764832,-3.9400393962860107,8.961507797241211
1700935913063297300,5.21629736328125,0.6340764760971069,-3.9559175968170166,8.954596519470215
1700935913080290000,5.2332900390625,0.6315101385116577,-3.973141670227051,8.947147369384766
1700935913097283000,5.250282958984375,0.6281597018241882,-3.9871580600738525,8.941147804260254
1700935913114276000,5.267276123046875,0.6266502141952515,-3.9953954219818115,8.937576293945312
1700935913131269400,5.284269287109375,0.6272238492965698,-3.9998464584350586,8.935543060302734
1700935913148262400,5.301262451171875,0.6316124796867371,-4.005447864532471,8.932723045349121
1700935913165255200,5.318255126953125,0.6408589482307434,-4.015103816986084,8.927730560302734
1700935913182248200,5.335248291015625,0.6524732708930969,-4.028510570526123,8.920845985412598
1700935913199223000,5.35222314453125,0.667362630367279,-4.046291351318359,8.911693572998047
1700935913216233000,5.36923291015625,0.6819976568222046,-4.065637588500977,8.901774406433105
1700935913233227300,5.386227294921875,0.6877351999282837,-4.079753398895264,8.89487361907959
1700935913250219800,5.4032197265625,0.6833781599998474,-4.088611602783203,8.891140937805176
1700935913267213000,5.420213134765625,0.674750566482544,-4.098048686981201,8.88745403289795
1700935913284210700,5.437210693359375,0.6765190958976746,-4.104687690734863,8.884255409240723
1700935913301192700,5.454192626953125,0.6871665716171265,-4.106913089752197,8.882408142089844
1700935913318192000,5.471192138671875,0.6973500847816467,-4.105072021484375,8.882466316223145
1700935913335185000,5.488184814453125,0.6964174509048462,-4.09812068939209,8.885748863220215
1700935913352177700,5.505177734375,0.682643473148346,-4.084839344024658,8.892930030822754
1700935913369170700,5.522170654296875,0.6678318977355957,-4.069334030151367,8.901159286499023
1700935913386164000,5.5391640625,0.6643641591072083,-4.058971881866455,8.906147956848145
1700935913403156700,5.55615673828125,0.6740360856056213,-4.054315090179443,8.907543182373047
1700935913420139300,5.57313916015625,0.6880737543106079,-4.053769588470459,8.906719207763672
1700935913437142800,5.590142822265625,0.6806802749633789,-4.051703929901123,8.908225059509277
1700935913454135800,5.6071357421875,0.6913443803787231,-4.056424617767334,8.905255317687988
1700935913471126300,5.624126220703125,0.7003338932991028,-4.061397552490234,8.902286529541016
1700935913488124200,5.641124267578125,0.704345703125,-4.057496070861816,8.903749465942383
1700935913505103000,5.65810302734375,0.7062302231788635,-4.049002647399902,8.907465934753418
1700935913522108000,5.67510791015625,0.7063711881637573,-4.037524700164795,8.912662506103516
1700935913539100200,5.69210009765625,0.7101338505744934,-4.027099609375,8.91707992553711
1700935913556094500,5.709094482421875,0.7188105583190918,-4.020645618438721,8.919295310974121
1700935913573076200,5.726076171875,0.729210376739502,-4.0200042724609375,8.918741226196289
1700935913590079500,5.74307958984375,0.7364691495895386,-4.023098945617676,8.916749000549316
1700935913607072500,5.760072509765625,0.7378730177879333,-4.026055335998535,8.915297508239746
1700935913624065500,5.7770654296875,0.7389161586761475,-4.0285820960998535,8.914071083068848
1700935913641058800,5.794058837890625,0.7448750734329224,-4.029979705810547,8.912942886352539
1700935913658051600,5.811051513671875,0.7581728100776672,-4.0308756828308105,8.911415100097656
1700935913675032800,5.82803271484375,0.7787678837776184,-4.032473564147949,8.908916473388672
1700935913692039000,5.845038818359375,0.7985320687294006,-4.034809589385986,8.906109809875488
1700935913709030400,5.862030517578125,0.8083928227424622,-4.036799430847168,8.904317855834961
1700935913726023400,5.8790234375,0.8103036880493164,-4.04071044921875,8.902369499206543
1700935913743013400,5.896013427734375,0.816154956817627,-4.0492939949035645,8.897933959960938
1700935913759999000,5.9129990234375,0.8278663754463196,-4.058130264282227,8.892826080322266
1700935913777002800,5.930002685546875,0.83724445104599,-4.064228534698486,8.889162063598633
1700935913793995800,5.946995849609375,0.8423703908920288,-4.070694923400879,8.88571834564209
1700935913810988500,5.963988525390625,0.8471861481666565,-4.077282905578613,8.882238388061523
1700935913827981600,5.980981689453125,0.8525623679161072,-4.083776473999023,8.878740310668945
1700935913844974300,5.997974365234375,0.8570343255996704,-4.091519832611084,8.87474250793457
1700935913861967400,6.01496728515625,0.863258421421051,-4.101829528808594,8.869380950927734
1700935913878960000,6.031960205078125,0.8724473118782043,-4.11307954788208,8.86326789855957
1700935913895954200,6.0489541015625,0.883693516254425,-4.123828411102295,8.857157707214355
1700935913912946700,6.06594677734375,0.8958487510681152,-4.132935523986816,8.851690292358398
1700935913929939500,6.082939453125,0.9061217308044434,-4.140756607055664,8.8469877243042
1700935913946932500,6.099932373046875,0.9139479398727417,-4.147916316986084,8.842828750610352
1700935913963915300,6.116915283203125,0.9208467602729797,-4.155947685241699,8.838340759277344
1700935913980918500,6.13391845703125,0.9269071221351624,-4.164436340332031,8.833709716796875
1700935913997911300,6.150911376953125,0.928949236869812,-4.170592308044434,8.830592155456543
1700935914014904600,6.167904541015625,0.9276958703994751,-4.1742472648620605,8.828994750976562
1700935914031897600,6.184897705078125,0.9254435300827026,-4.17637825012207,8.82822322845459
1700935914048888000,6.20188818359375,0.926276445388794,-4.176889896392822,8.82789421081543
1700935914065886000,6.218885986328125,0.9302961230278015,-4.177048206329346,8.827397346496582
1700935914082876400,6.23587646484375,0.9348584413528442,-4.177247524261475,8.826820373535156
1700935914099869400,6.252869384765625,0.9405384063720703,-4.178342342376709,8.825698852539062
1700935914116862500,6.269862548828125,0.9441215991973877,-4.180919647216797,8.824095726013184
1700935914133842000,6.286842041015625,0.9450588822364807,-4.185902118682861,8.821633338928223
1700935914150851300,6.303851318359375,0.946049153804779,-4.190067768096924,8.819549560546875
1700935914167841500,6.320841552734375,0.9457804560661316,-4.191625595092773,8.818838119506836
1700935914184834600,6.33783447265625,0.9460307359695435,-4.189075469970703,8.820021629333496
1700935914201825000,6.354824951171875,0.9471098184585571,-4.18208646774292,8.823222160339355
1700935914218823200,6.3718232421875,0.9497808218002319,-4.1751861572265625,8.826202392578125
1700935914235813000,6.388813232421875,0.9533055424690247,-4.168416976928711,8.829021453857422
1700935914252806000,6.405805908203125,0.9535431861877441,-4.160231113433838,8.832855224609375
1700935914269799200,6.422799072265625,0.9515127539634705,-4.154106140136719,8.835957527160645
1700935914286792400,6.43979248046875,0.9512048959732056,-4.149837970733643,8.837996482849121
1700935914303772400,6.4567724609375,0.9515846967697144,-4.145105838775635,8.840174674987793
1700935914320773600,6.473773681640625,0.9503041505813599,-4.138779640197754,8.843276023864746
1700935914337771300,6.490771240234375,0.948947012424469,-4.131894111633301,8.846641540527344
1700935914354768400,6.507768310546875,0.949881374835968,-4.125943183898926,8.849318504333496
1700935914371754500,6.52475439453125,0.9511280059814453,-4.119842529296875,8.85202693939209
1700935914388752600,6.541752685546875,0.950455904006958,-4.113277435302734,8.855152130126953
1700935914405743000,6.5587431640625,0.9496164917945862,-4.107847690582275,8.85776138305664
1700935914422734800,6.57573486328125,0.9506251811981201,-4.102996826171875,8.859902381896973
1700935914439730400,6.59273046875,0.9521904587745667,-4.0994062423706055,8.861395835876465
1700935914456722200,6.60972216796875,0.9571751952171326,-4.098717212677002,8.861175537109375
1700935914473705500,6.62670556640625,0.9622690081596375,-4.100244522094727,8.859918594360352
1700935914490708000,6.6437080078125,0.963998019695282,-4.100733757019043,8.859504699707031
1700935914507701000,6.660700927734375,0.9661085605621338,-4.0999979972839355,8.859613418579102
1700935914524686600,6.6776865234375,0.9700267910957336,-4.099834442138672,8.859261512756348
1700935914541689600,6.694689697265625,0.9715134501457214,-4.0993852615356445,8.859306335449219
1700935914558680000,6.71168017578125,0.970827579498291,-4.09840726852417,8.859834671020508
1700935914575673000,6.728673095703125,0.971034586429596,-4.096435546875,8.860724449157715
1700935914592666000,6.745666015625,0.9731916189193726,-4.092755317687988,8.862187385559082
1700935914609659000,6.762658935546875,0.9744826555252075,-4.089088439941406,8.863738059997559
1700935914626652000,6.77965185546875,0.9727495908737183,-4.087289810180664,8.864757537841797
1700935914643645000,6.79664501953125,0.9687141180038452,-4.088807106018066,8.864500999450684
1700935914660638000,6.813637939453125,0.9651657342910767,-4.094144821166992,8.862424850463867
1700935914677631000,6.830630859375,0.9641503691673279,-4.100994110107422,8.859365463256836
1700935914694624300,6.847624267578125,0.9650838375091553,-4.104487895965576,8.857645988464355
1700935914711617300,6.8646171875,0.9663170576095581,-4.1015520095825195,8.85887336730957
1700935914728610300,6.8816103515625,0.965742826461792,-4.093128681182861,8.862828254699707
1700935914745602800,6.898602783203125,0.9636001586914062,-4.0830183029174805,8.867724418640137
1700935914762595800,6.915595947265625,0.9624757170677185,-4.0746073722839355,8.871715545654297
1700935914779589000,6.932589111328125,0.9637828469276428,-4.069589138031006,8.873875617980957
1700935914796582100,6.94958203125,0.9654697775840759,-4.06829833984375,8.874285697937012
1700935914813575200,6.9665751953125,0.967401385307312,-4.067659854888916,8.874366760253906
1700935914830568200,6.983568115234375,0.969054102897644,-4.066160202026367,8.874873161315918
1700935914847561200,7.000561279296875,0.9692304134368896,-4.0623087882995605,8.876618385314941
1700935914864554000,7.017553955078125,0.9686257839202881,-4.057246208190918,8.878999710083008
1700935914881547000,7.034547119140625,0.9678431749343872,-4.050765037536621,8.88204288482666
1700935914898539800,7.051539794921875,0.9666769504547119,-4.045987129211426,8.884347915649414
1700935914915530200,7.0685302734375,0.9634273648262024,-4.043079853057861,8.886024475097656
1700935914932526000,7.085526123046875,0.9571298956871033,-4.04094934463501,8.887674331665039
1700935914949519000,7.10251904296875,0.9511335492134094,-4.038366794586182,8.88949203491211
1700935914966511900,7.119511962890625,0.9486575722694397,-4.03525447845459,8.891169548034668
1700935914983505200,7.136505126953125,0.9495320320129395,-4.031756401062012,8.89266300201416
1700935915000498200,7.153498291015625,0.9529552459716797,-4.030962944030762,8.892656326293945
1700935915017489000,7.170489013671875,0.9581832885742188,-4.033169269561768,8.891094207763672
1700935915034485800,7.18748583984375,0.9627835750579834,-4.036453723907471,8.889106750488281
1700935915051477200,7.204477294921875,0.9641898274421692,-4.039609909057617,8.887518882751465
1700935915068469800,7.2214697265625,0.9649555087089539,-4.043308734893799,8.885754585266113
1700935915085463000,7.238463134765625,0.9680261611938477,-4.047001361846924,8.883739471435547
1700935915102456000,7.2554560546875,0.9710869193077087,-4.04707670211792,8.883371353149414
1700935915119449000,7.272448974609375,0.9726018905639648,-4.044558525085449,8.884352684020996
1700935915136441600,7.289441650390625,0.9714090824127197,-4.041413307189941,8.885913848876953
1700935915153435000,7.306434814453125,0.9691859483718872,-4.040144443511963,8.886734008789062
1700935915170427600,7.323427734375,0.969712495803833,-4.042874813079834,8.885435104370117
1700935915187410400,7.340410400390625,0.9698519706726074,-4.048494338989258,8.882859230041504
1700935915204414000,7.3574140625,0.966740071773529,-4.055114269256592,8.880179405212402
1700935915221406700,7.37440673828125,0.9628124833106995,-4.058894157409668,8.87887954711914
1700935915238389200,7.39138916015625,0.958996593952179,-4.0584611892700195,8.879488945007324
1700935915255393000,7.40839306640625,0.9563794136047363,-4.0517659187316895,8.882828712463379
1700935915272385800,7.4253857421875,0.9539984464645386,-4.0408196449279785,8.888070106506348
1700935915289368600,7.44236865234375,0.9524646997451782,-4.030603885650635,8.892871856689453
1700935915306369300,7.459369384765625,0.9526413083076477,-4.023458003997803,8.896088600158691
1700935915323367400,7.476367431640625,0.9523170590400696,-4.019723892211914,8.897809982299805
1700935915340358100,7.493358154296875,0.9492273926734924,-4.017887115478516,8.898971557617188
1700935915357350400,7.510350341796875,0.9463119506835938,-4.017941474914551,8.89925479888916
1700935915374340000,7.527340087890625,0.945739209651947,-4.019388675689697,8.898663520812988
1700935915391339500,7.544339599609375,0.9460365772247314,-4.02125883102417,8.897787094116211
1700935915408329700,7.561329833984375,0.9468206763267517,-4.02435302734375,8.8963041305542
1700935915425322800,7.57832275390625,0.9464093446731567,-4.027078628540039,8.895113945007324
1700935915442315800,7.595315673828125,0.9459953308105469,-4.028463840484619,8.89453125
1700935915459308500,7.61230859375,0.9447340965270996,-4.029470443725586,8.894208908081055
1700935915476302000,7.629302001953125,0.9427618384361267,-4.0290608406066895,8.89460563659668
1700935915493294600,7.646294677734375,0.9418402910232544,-4.029437065124512,8.89453125
1700935915510288000,7.663287841796875,0.9407185316085815,-4.0326337814331055,8.89320182800293
1700935915527280600,7.68028076171875,0.9374809265136719,-4.037304401397705,8.891424179077148
1700935915544273700,7.697273681640625,0.9337711334228516,-4.041520595550537,8.889898300170898
1700935915561265000,7.714264892578125,0.9323686957359314,-4.04499626159668,8.888463973999023
1700935915578261800,7.73126171875,0.9332741498947144,-4.046573162078857,8.887652397155762
1700935915595252700,7.748252685546875,0.9346613883972168,-4.045721054077148,8.887893676757812
1700935915612246000,7.76524609375,0.9331855177879333,-4.043922424316406,8.88886833190918
1700935915629239000,7.782239013671875,0.9285790920257568,-4.042942523956299,8.889796257019043
1700935915646231600,7.7992314453125,0.9249231219291687,-4.0433349609375,8.889999389648438
1700935915663224600,7.816224609375,0.9232215881347656,-4.043112277984619,8.890276908874512
1700935915680216000,7.833216064453125,0.9224207997322083,-4.041580677032471,8.891057014465332
1700935915697212400,7.85021240234375,0.9226649403572083,-4.040578365325928,8.891486167907715
1700935915714204000,7.867203857421875,0.9217638969421387,-4.040180683135986,8.89176082611084
1700935915731197000,7.884197021484375,0.9173310995101929,-4.038841247558594,8.892827033996582
1700935915748190000,7.90118994140625,0.9133546948432922,-4.037444114685059,8.893872261047363
1700935915765183000,7.918182861328125,0.912777304649353,-4.034600734710693,8.895220756530762
1700935915782175700,7.93517578125,0.9126203060150146,-4.028103828430176,8.898180961608887
1700935915799168800,7.952168701171875,0.9120308756828308,-4.01868200302124,8.902501106262207
1700935915816161800,7.969161865234375,0.9108728766441345,-4.0087409019470215,8.907098770141602
1700935915833155000,7.986155029296875,0.9090163707733154,-4.000627517700195,8.910935401916504
1700935915850147800,8.00314794921875,0.9079709053039551,-3.9983320236206055,8.912074089050293
1700935915867140900,8.020140869140626,0.9066228270530701,-4.001092910766602,8.910970687866211
1700935915884131000,8.037131103515625,0.9053232669830322,-4.004786014556885,8.909444808959961
1700935915901129200,8.054129150390626,0.9048660397529602,-4.006678581237793,8.90864086151123
1700935915918119700,8.07111962890625,0.9062588214874268,-4.004116535186768,8.909648895263672
1700935915935112700,8.08811279296875,0.9078580141067505,-3.99713397026062,8.91262149810791
1700935915952105700,8.105105712890625,0.9094566702842712,-3.9896624088287354,8.915807723999023
1700935915969098800,8.1220986328125,0.9098507761955261,-3.9845712184906006,8.918042182922363
1700935915986091800,8.139091796875,0.9098589420318604,-3.983797550201416,8.918386459350586
1700935916003084800,8.156084716796874,0.9106489419937134,-3.987229347229004,8.91677188873291
1700935916020077800,8.173077880859376,0.9129261374473572,-3.9917728900909424,8.914506912231445
1700935916037070600,8.190070556640626,0.9140987992286682,-3.9936060905456543,8.913565635681152
1700935916054058500,8.20705859375,0.9145574569702148,-3.993016004562378,8.91378402709961
1700935916071056600,8.224056640625,0.9147205948829651,-3.991793155670166,8.914315223693848
1700935916088050000,8.2410498046875,0.9138491153717041,-3.9910621643066406,8.9147310256958
1700935916105042400,8.25804248046875,0.9143893718719482,-3.9924118518829346,8.914071083068848
1700935916122036000,8.275035888671875,0.9199471473693848,-3.9953014850616455,8.912205696105957
1700935916139028500,8.292028564453124,0.9272032380104065,-3.997239589691162,8.910584449768066
1700935916156011300,8.30901123046875,0.9296766519546509,-3.9962522983551025,8.910768508911133
1700935916173014800,8.326014892578126,0.9291357398033142,-3.9923527240753174,8.912571907043457
1700935916190007600,8.343007568359376,0.9287393093109131,-3.988311529159546,8.914422035217285
1700935916207003100,8.360003173828124,0.9296295642852783,-3.9872474670410156,8.914807319641113
1700935916223997000,8.376996826171874,0.9319842457771301,-3.989769697189331,8.913433074951172
1700935916240983600,8.393983642578124,0.9367102384567261,-3.995225429534912,8.910490989685059
1700935916257980000,8.41097998046875,0.9427065849304199,-4.00114631652832,8.90720272064209
1700935916274972400,8.427972412109375,0.9470437169075012,-4.002936363220215,8.905938148498535
1700935916291966200,8.44496630859375,0.9499123692512512,-3.9981698989868164,8.907773971557617
1700935916308958500,8.46195849609375,0.9536686539649963,-3.9880998134613037,8.911885261535645
1700935916325951700,8.47895166015625,0.9614580273628235,-3.976912498474121,8.916048049926758
1700935916342944000,8.495944091796876,0.9709118008613586,-3.9684300422668457,8.918800354003906
1700935916359938300,8.512938232421876,0.9776486754417419,-3.964932680130005,8.919621467590332
1700935916376930800,8.529930908203125,0.982302725315094,-3.966822624206543,8.918269157409668
1700935916393923800,8.546923828125,0.9854187369346619,-3.9702444076538086,8.916401863098145
1700935916410916600,8.56391650390625,0.9867027997970581,-3.9709439277648926,8.915949821472168
1700935916427910000,8.580909912109375,0.9885031580924988,-3.9706368446350098,8.915884971618652
1700935916444902700,8.597902587890625,0.9935840964317322,-3.9706478118896484,8.915315628051758
1700935916461895700,8.614895751953124,0.9987410306930542,-3.971318244934082,8.914441108703613
1700935916478888700,8.631888671875,1.0007367134094238,-3.9731545448303223,8.913399696350098
1700935916495882000,8.648882080078126,0.9997829794883728,-3.9774727821350098,8.911580085754395
1700935916512874500,8.66587451171875,0.9980580806732178,-3.9829492568969727,8.90932846069336
1700935916529867800,8.68286767578125,0.9976493716239929,-3.9881539344787598,8.907044410705566
1700935916546860800,8.69986083984375,1.0002092123031616,-3.9929449558258057,8.904610633850098
1700935916563853600,8.716853515625,1.004772424697876,-3.997976541519165,8.901837348937988
1700935916580836000,8.733836181640624,1.009043574333191,-4.003656387329102,8.89880084991455
1700935916597837600,8.750837646484374,1.0113210678100586,-4.010136604309082,8.895624160766602
1700935916614834700,8.767834716796875,1.0109333992004395,-4.015462875366211,8.893267631530762
1700935916631826000,8.784825927734374,1.0106210708618164,-4.019083499908447,8.8916654586792
1700935916648819000,8.80181884765625,1.0120670795440674,-4.0212931632995605,8.890501976013184
1700935916665811500,8.8188115234375,1.0150173902511597,-4.021687984466553,8.88998794555664
1700935916682805000,8.835804931640626,1.0177172422409058,-4.020849704742432,8.890058517456055
1700935916699797800,8.8527978515625,1.0190986394882202,-4.019499778747559,8.890509605407715
1700935916716790500,8.86979052734375,1.0196714401245117,-4.018937587738037,8.89069938659668
1700935916733785000,8.88678515625,1.0221792459487915,-4.019847869873047,8.889998435974121
1700935916750776800,8.90377685546875,1.0252453088760376,-4.022436141967773,8.888477325439453
1700935916767769600,8.92076953125,1.0268052816390991,-4.02453088760376,8.887346267700195
1700935916784763000,8.937762939453124,1.0268501043319702,-4.024503707885742,8.887354850769043
1700935916801755600,8.954755615234374,1.0272581577301025,-4.020861625671387,8.888955116271973
1700935916818738200,8.97173828125,1.0298540592193604,-4.015238285064697,8.891197204589844
1700935916835737300,8.9887373046875,1.0327891111373901,-4.008181571960449,8.89404010772705
1700935916852738800,9.00573876953125,1.0350803136825562,-4.001340866088867,8.896854400634766
1700935916869727700,9.022727783203125,1.0355573892593384,-3.9961671829223633,8.899123191833496
1700935916886720800,9.039720703125,1.0361617803573608,-3.9922947883605957,8.900790214538574
1700935916903713800,9.0567138671875,1.038881540298462,-3.990100383758545,8.901457786560059
1700935916920706800,9.073706787109375,1.042606234550476,-3.988579034805298,8.901702880859375
1700935916937699800,9.090699951171874,1.0459078550338745,-3.9878246784210205,8.901653289794922
1700935916954704600,9.10770458984375,1.0487563610076904,-3.9872007369995117,8.90159797668457
1700935916971683000,9.12468310546875,1.0517699718475342,-3.9871370792388916,8.901272773742676
1700935916988681200,9.14168115234375,1.0540480613708496,-3.987194776535034,8.90097713470459
1700935917005658600,9.15865869140625,1.0546374320983887,-3.9874181747436523,8.900806427001953
1700935917022662100,9.175662109375,1.0558229684829712,-3.9885354042053223,8.900165557861328
1700935917039660300,9.192660400390626,1.0579615831375122,-3.991063356399536,8.898778915405273
1700935917056651000,9.209651123046875,1.0590476989746094,-3.9938197135925293,8.897412300109863
1700935917073640400,9.226640380859376,1.058430552482605,-3.997084856033325,8.896018981933594
1700935917090636800,9.24363671875,1.0565036535263062,-4.000683784484863,8.894630432128906
1700935917107629800,9.2606298828125,1.0556905269622803,-4.004334449768066,8.893084526062012
1700935917124612000,9.277612060546875,1.0566155910491943,-4.007020473480225,8.891763687133789
1700935917141615600,9.29461572265625,1.0589679479599,-4.008152961730957,8.890972137451172
1700935917158609000,9.31160888671875,1.0603370666503906,-4.008893013000488,8.890477180480957
1700935917175602000,9.328601806640625,1.0615473985671997,-4.0107951164245605,8.889474868774414
1700935917192595000,9.345594970703125,1.0642555952072144,-4.0148468017578125,8.887322425842285
1700935917209587700,9.362587646484375,1.0676113367080688,-4.0188469886779785,8.885109901428223
1700935917226580700,9.379580810546875,1.0676437616348267,-4.021450996398926,8.883930206298828
1700935917243573800,9.39657373046875,1.0674948692321777,-4.022991180419922,8.883249282836914
1700935917260567000,9.413567138671874,1.068701148033142,-4.025648593902588,8.881900787353516
1700935917277559800,9.430559814453124,1.069137692451477,-4.030222415924072,8.879773139953613
1700935917294552800,9.447552734375,1.069361686706543,-4.036787033081055,8.876764297485352
1700935917311545900,9.4645458984375,1.06853187084198,-4.045766353607178,8.87277603149414
1700935917328539000,9.481538818359375,1.0658328533172607,-4.054296970367432,8.869205474853516
1700935917345532000,9.498531982421875,1.0614515542984009,-4.057896137237549,8.868083953857422
1700935917362524700,9.515524658203125,1.0587791204452515,-4.054443359375,8.869982719421387
1700935917379517700,9.532517578125,1.0590893030166626,-4.047699928283691,8.873024940490723
1700935917396511000,9.549510986328125,1.061934232711792,-4.042059421539307,8.875256538391113
1700935917413504000,9.56650390625,1.0636459589004517,-4.038625240325928,8.876614570617676
1700935917430496800,9.583496826171874,1.0616918802261353,-4.036714553833008,8.877717018127441
1700935917447489500,9.600489501953126,1.0549354553222656,-4.034446716308594,8.879552841186523
1700935917464483600,9.617483642578126,1.0470647811889648,-4.029200553894043,8.882865905761719
1700935917481475800,9.634475830078125,1.0447252988815308,-4.021859645843506,8.886467933654785
1700935917498455800,9.651455810546874,1.04977548122406,-4.013822555541992,8.889506340026855
1700935917515454200,9.6684541015625,1.055572748184204,-4.005739212036133,8.892463684082031
1700935917532455000,9.685454833984375,1.0578186511993408,-3.998894214630127,8.895277976989746
1700935917549448000,9.702447998046875,1.0568979978561401,-3.9940149784088135,8.89758014678955
1700935917566441200,9.719441162109375,1.053604245185852,-3.9892871379852295,8.900092124938965
1700935917583434000,9.73643408203125,1.051838994026184,-3.983285427093506,8.90298843383789
1700935917600427000,9.753427001953124,1.0549076795578003,-3.976468086242676,8.905670166015625
1700935917617420000,9.770419921875,1.0588308572769165,-3.9682364463806152,8.908876419067383
1700935917634412800,9.787412841796876,1.0627124309539795,-3.9595749378204346,8.91226863861084
1700935917651405800,9.80440576171875,1.0686231851577759,-3.952599287033081,8.914657592773438
1700935917668397800,9.821397705078125,1.0757640600204468,-3.9473624229431152,8.916120529174805
1700935917685393200,9.83839306640625,1.0801862478256226,-3.9425835609436035,8.917698860168457
1700935917702385000,9.855385009765625,1.0824178457260132,-3.938412666320801,8.919271469116211
1700935917719378000,9.8723779296875,1.086738109588623,-3.9364118576049805,8.919629096984863
1700935917736370700,9.88937060546875,1.0921883583068848,-3.9365930557250977,8.918883323669434
1700935917753363700,9.90636376953125,1.0934878587722778,-3.937971591949463,8.918115615844727
1700935917770357000,9.92335693359375,1.0918906927108765,-3.942012310028076,8.916525840759277
1700935917787350300,9.940350341796876,1.0907498598098755,-3.9490528106689453,8.91355037689209
1700935917804343000,9.957343017578125,1.0889410972595215,-3.9576547145843506,8.909955024719238
1700935917821335800,9.974335693359375,1.0870275497436523,-3.9650256633758545,8.90691089630127
1700935917838326300,9.991326171875,1.086645483970642,-3.971602201461792,8.904026985168457
1700935917855326200,10.008326171875,1.0872561931610107,-3.976146936416626,8.901925086975098
1700935917872315000,10.02531494140625,1.086039423942566,-3.9769482612609863,8.901713371276855
1700935917889308000,10.042307861328124,1.0841667652130127,-3.9766318798065186,8.902084350585938
1700935917906301000,10.059301025390624,1.0836747884750366,-3.977708578109741,8.90166187286377
1700935917923283500,10.076283447265626,1.0838656425476074,-3.9799413681030273,8.900641441345215
1700935917940287000,10.093286865234376,1.0841238498687744,-3.9836959838867188,8.898930549621582
1700935917957280300,10.1102802734375,1.0832408666610718,-3.9872663021087646,8.897439956665039
1700935917974273300,10.127273193359375,1.0816510915756226,-3.988757848739624,8.896963119506836
1700935917991265800,10.144265869140625,1.0808180570602417,-3.987907886505127,8.897445678710938
1700935918008258800,10.1612587890625,1.0813071727752686,-3.9864494800567627,8.898039817810059
1700935918025251800,10.178251953125,1.0815293788909912,-3.983853578567505,8.899175643920898
1700935918042245000,10.1952451171875,1.08163583278656,-3.981311321258545,8.900300979614258
1700935918059235800,10.21223583984375,1.0824769735336304,-3.979832172393799,8.900858879089355
1700935918076233500,10.2292333984375,1.0821199417114258,-3.977344036102295,8.902015686035156
1700935918093221400,10.246221435546875,1.0807616710662842,-3.975264549255371,8.903107643127441
1700935918110219800,10.2632197265625,1.0806368589401245,-3.9744949340820312,8.90346622467041
1700935918127210200,10.280210205078125,1.0808417797088623,-3.97404146194458,8.903643608093262
1700935918144203300,10.297203369140625,1.079758882522583,-3.9718191623687744,8.904767990112305
1700935918161195800,10.31419580078125,1.0795342922210693,-3.9704484939575195,8.905405044555664
1700935918178189300,10.331189208984375,1.0803605318069458,-3.9701216220855713,8.905452728271484
1700935918195182000,10.34818212890625,1.0798760652542114,-3.9702279567718506,8.905463218688965
1700935918212175000,10.365175048828124,1.0773507356643677,-3.969743251800537,8.905985832214355
1700935918229166600,10.38216650390625,1.0749319791793823,-3.9687235355377197,8.906731605529785
1700935918246152400,10.39915234375,1.0744963884353638,-3.9678258895874023,8.907184600830078
1700935918263153400,10.4161533203125,1.0737379789352417,-3.9664971828460693,8.907867431640625
1700935918280147200,10.433147216796876,1.0698274374008179,-3.964937686920166,8.909031867980957
1700935918297135400,10.45013525390625,1.0649168491363525,-3.9648258686065674,8.90967082977295
1700935918314137600,10.4671376953125,1.0612339973449707,-3.967150926589966,8.909075736999512
1700935918331126300,10.484126220703125,1.058862328529358,-3.970094680786133,8.908045768737793
1700935918348120800,10.501120849609375,1.0570815801620483,-3.972355604171753,8.907248497009277
1700935918365110500,10.518110595703124,1.0543395280838013,-3.974902391433716,8.906437873840332
1700935918382103000,10.53510302734375,1.0507622957229614,-3.9775960445404053,8.905656814575195
1700935918399100200,10.55210009765625,1.0476003885269165,-3.9767091274261475,8.906426429748535
1700935918416091000,10.5690908203125,1.0444068908691406,-3.972043991088867,8.908882141113281
1700935918433084200,10.586084228515626,1.0416964292526245,-3.9659273624420166,8.911924362182617
1700935918450077200,10.6030771484375,1.0419621467590332,-3.9587879180908203,8.915066719055176
1700935918467070200,10.6200703125,1.0463780164718628,-3.951158285140991,8.917935371398926
1700935918484063500,10.6370634765625,1.0518176555633545,-3.9448845386505127,8.920071601867676
1700935918501056300,10.65405615234375,1.0555713176727295,-3.9388344287872314,8.92230224609375
1700935918518038800,10.671038818359374,1.058542251586914,-3.931720495223999,8.925086975097656
1700935918535042000,10.6880419921875,1.0608793497085571,-3.922497510910034,8.928866386413574
1700935918552035000,10.70503515625,1.0613054037094116,-3.9096546173095703,8.934446334838867
1700935918569028400,10.7220283203125,1.061278223991394,-3.8957009315490723,8.940544128417969
1700935918586021400,10.739021484375,1.063713788986206,-3.885169744491577,8.944835662841797
1700935918603013400,10.756013427734375,1.0674010515213013,-3.880265474319458,8.946524620056152
1700935918620007400,10.77300732421875,1.0676960945129395,-3.881402015686035,8.94599723815918
1700935918637001500,10.79000146484375,1.0626169443130493,-3.88742995262146,8.943984031677246
1700935918653993200,10.8069931640625,1.0561954975128174,-3.8963730335235596,8.940853118896484
1700935918670986500,10.823986572265625,1.0507593154907227,-3.906376361846924,8.937127113342285
1700935918687978200,10.840978271484374,1.0452708005905151,-3.917276620864868,8.932998657226562
1700935918704972300,10.85797216796875,1.03741455078125,-3.929257392883301,8.928651809692383
1700935918721965300,10.87496533203125,1.0277520418167114,-3.941037178039551,8.924576759338379
1700935918738958300,10.891958251953126,1.017678141593933,-3.9536335468292236,8.920158386230469
1700935918755951400,10.908951416015626,1.0071030855178833,-3.968519449234009,8.914746284484863
1700935918772941800,10.92594189453125,0.9963585734367371,-3.984281301498413,8.90892219543457
1700935918789940000,10.94293994140625,0.9862121939659119,-3.997537851333618,8.9041109085083
1700935918806930400,10.959930419921875,0.9796949028968811,-4.00999116897583,8.899230003356934
1700935918823923500,10.97692333984375,0.9753085970878601,-4.022492408752441,8.894068717956543
1700935918840916500,10.99391650390625,0.9689386487007141,-4.034613132476807,8.88927173614502
1700935918857909500,11.010909423828124,0.9615246653556824,-4.046844959259033,8.884516716003418
1700935918874900700,11.027900634765626,0.9556160569190979,-4.057829856872559,8.880141258239746
1700935918891895300,11.044895263671876,0.9514838457107544,-4.0656280517578125,8.877018928527832
1700935918908888300,11.061888427734376,0.947759747505188,-4.0682172775268555,8.876230239868164
1700935918925879800,11.0788798828125,0.9446656703948975,-4.066285133361816,8.877447128295898
1700935918942876000,11.0958759765625,0.9439795017242432,-4.06175422668457,8.879593849182129
1700935918959867600,11.11286767578125,0.9451173543930054,-4.057317733764648,8.881501197814941
1700935918976860700,11.129860595703125,0.9470223784446716,-4.053323268890381,8.8831205368042
1700935918993853700,11.146853759765625,0.9491457939147949,-4.048095226287842,8.885278701782227
1700935919010846500,11.163846435546875,0.951714813709259,-4.039253234863281,8.889025688171387
1700935919027839500,11.180839599609374,0.9535186290740967,-4.026830673217773,8.894469261169434
1700935919044832300,11.197832275390626,0.9555318355560303,-4.014023303985596,8.900038719177246
1700935919061825300,11.2148251953125,0.9575918316841125,-4.0021538734436035,8.905162811279297
1700935919078808000,11.23180810546875,0.9592559337615967,-3.989952325820923,8.910455703735352
1700935919095811600,11.2488115234375,0.9633630514144897,-3.9777297973632812,8.915475845336914
1700935919112804600,11.2658046875,0.9698604345321655,-3.967542886734009,8.919310569763184
1700935919129797400,11.28279736328125,0.9756942391395569,-3.9605765342712402,8.921771049499512
1700935919146790700,11.299790771484375,0.9787274599075317,-3.9559695720672607,8.923480987548828
1700935919163783400,11.316783447265625,0.9787794947624207,-3.950941562652588,8.925702095031738
1700935919180766200,11.33376611328125,0.9779749512672424,-3.9440839290618896,8.928824424743652
1700935919197769500,11.35076953125,0.9778568148612976,-3.935709238052368,8.932530403137207
1700935919214762800,11.3677626953125,0.9789148569107056,-3.928042411804199,8.935790061950684
1700935919231755800,11.384755859375,0.98228520154953,-3.9240362644195557,8.937179565429688
1700935919248748500,11.40174853515625,0.9860008358955383,-3.9252164363861084,8.936253547668457
1700935919265741600,11.418741455078125,0.9857514500617981,-3.932138204574585,8.933235168457031
1700935919282734800,11.43573486328125,0.9810990691184998,-3.94143009185791,8.929652214050293
1700935919299728600,11.452728759765625,0.9779307842254639,-3.9496450424194336,8.926368713378906
1700935919316719400,11.46971923828125,0.9821630120277405,-3.954723596572876,8.923656463623047
1700935919333713700,11.486713623046874,0.9876593947410583,-3.953840970993042,8.923440933227539
1700935919350706400,11.50370654296875,0.9880552291870117,-3.94562029838562,8.927035331726074
1700935919367699700,11.52069970703125,0.9808558225631714,-3.935925006866455,8.932106018066406
1700935919384690200,11.537690185546875,0.9721332788467407,-3.926405191421509,8.937248229980469
1700935919401688600,11.5546884765625,0.9658007025718689,-3.91361927986145,8.943541526794434
1700935919418678800,11.5716787109375,0.9620421528816223,-3.8957879543304443,8.951728820800781
1700935919435671600,11.588671630859375,0.95493483543396,-3.8714334964752197,8.963047981262207
1700935919452664800,11.605664794921875,0.9392885565757751,-3.837167501449585,8.97942066192627
1700935919469645300,11.622645263671876,0.9218934178352356,-3.795825242996216,8.998774528503418
1700935919486652700,11.639652587890625,0.9116832613945007,-3.7512030601501465,9.018505096435547
1700935919503643600,11.6566435546875,0.9100747108459473,-3.7113022804260254,9.035160064697266
1700935919520636700,11.67363671875,0.910845935344696,-3.682649612426758,9.046798706054688
1700935919537625600,11.69062548828125,0.9069321155548096,-3.66400408744812,9.054759979248047
1700935919554623000,11.707623046875,0.8966167569160461,-3.6518771648406982,9.060684204101562
1700935919571617800,11.72461767578125,0.8850407600402832,-3.644221067428589,9.064903259277344
1700935919588606500,11.7416064453125,0.8762891888618469,-3.6403286457061768,9.067317008972168
1700935919605602000,11.75860205078125,0.8712077140808105,-3.6405341625213623,9.06772518157959
1700935919622595000,11.775594970703125,0.8694044351577759,-3.6464879512786865,9.065505027770996
1700935919639577300,11.792577392578124,0.867901086807251,-3.656981945037842,9.061422348022461
1700935919656580900,11.809580810546874,0.8660261631011963,-3.6705946922302246,9.0560941696167
1700935919673574000,11.826573974609374,0.8662460446357727,-3.6862194538116455,9.049726486206055
1700935919690567000,11.84356689453125,0.8708349466323853,-3.7049357891082764,9.041637420654297
1700935919707559700,11.8605595703125,0.8812921047210693,-3.727003335952759,9.031548500061035
1700935919724552700,11.877552734375,0.8949891924858093,-3.7509217262268066,9.020293235778809
1700935919741546000,11.8945458984375,0.9113345146179199,-3.7763829231262207,9.008026123046875
1700935919758539000,11.9115390625,0.9292129278182983,-3.803380250930786,8.994831085205078
1700935919775532000,11.928531982421875,0.9470186233520508,-3.831073522567749,8.981209754943848
1700935919792524800,11.94552490234375,0.9655308723449707,-3.858818769454956,8.967350959777832
1700935919809517800,11.962517822265625,0.9866902232170105,-3.887207508087158,8.952775001525879
1700935919826510800,11.9795107421875,1.008362889289856,-3.9159204959869385,8.937834739685059
1700935919843493600,11.99649365234375,1.0300978422164917,-3.9465737342834473,8.921859741210938
1700935919860494000,12.013494140625,1.0528274774551392,-3.979705810546875,8.904472351074219
1700935919877490200,12.030490234375,1.0733720064163208,-4.0132951736450195,8.88692569732666
1700935919894483200,12.047483154296875,1.0883960723876953,-4.045971870422363,8.870266914367676
1700935919911476200,12.064476318359375,1.10024893283844,-4.075908660888672,8.855085372924805
1700935919928469000,12.081468994140625,1.1096895933151245,-4.101949214935303,8.841872215270996
1700935919945462000,12.0984619140625,1.1171860694885254,-4.123620510101318,8.830842018127441
1700935919962455300,12.115455322265625,1.1226969957351685,-4.141626358032227,8.821710586547852
1700935919979448000,12.132447998046874,1.1261588335037231,-4.157165050506592,8.813959121704102
1700935919996441000,12.149441162109374,1.1279528141021729,-4.171342849731445,8.807027816772461
1700935920013434400,12.166434326171874,1.1279358863830566,-4.182533264160156,8.80172061920166
1700935920030416600,12.183416748046875,1.1242424249649048,-4.19007682800293,8.798604965209961
1700935920047420200,12.200420166015626,1.1170027256011963,-4.1932692527771,8.798006057739258
1700935920064413200,12.2174130859375,1.1073142290115356,-4.191489219665527,8.800080299377441
1700935920081406200,12.23440625,1.0992674827575684,-4.184558868408203,8.804383277893066
1700935920098399200,12.251399169921875,1.0916345119476318,-4.171708106994629,8.811431884765625
1700935920115392000,12.26839208984375,1.0862632989883423,-4.154598712921143,8.820173263549805
1700935920132385300,12.28538525390625,1.0851246118545532,-4.1352858543396,8.829384803771973
1700935920149378300,12.30237841796875,1.0871366262435913,-4.113006114959717,8.839537620544434
1700935920166368800,12.31936865234375,1.0911860466003418,-4.0859503746032715,8.851577758789062
1700935920183367000,12.336366943359375,1.0951083898544312,-4.055091857910156,8.865272521972656
1700935920200357400,12.353357421875,1.0995804071426392,-4.0204949378967285,8.880464553833008
1700935920217350100,12.37035009765625,1.1064695119857788,-3.983538866043091,8.896249771118164
1700935920234341000,12.387341064453125,1.117845892906189,-3.948139190673828,8.910597801208496
1700935920251338500,12.40433837890625,1.1321817636489868,-3.918034553527832,8.92206859588623
1700935920268329500,12.42132958984375,1.146742582321167,-3.895024538040161,8.930278778076172
1700935920285322500,12.438322509765625,1.1587752103805542,-3.8793022632598877,8.935567855834961
1700935920302315300,12.455315185546874,1.1684606075286865,-3.8711934089660645,8.937822341918945
1700935920319308500,12.47230859375,1.175318717956543,-3.870671033859253,8.937149047851562
1700935920336301600,12.489301513671874,1.1805084943771362,-3.8803279399871826,8.93227767944336
1700935920353294600,12.506294677734376,1.1878303289413452,-3.9011707305908203,8.922221183776855
1700935920370279200,12.523279052734376,1.1985678672790527,-3.9297664165496826,8.908225059509277
1700935920387278300,12.5402783203125,1.2116276025772095,-3.9604930877685547,8.892837524414062
1700935920404273700,12.557273681640625,1.2206674814224243,-3.990464687347412,8.878190040588379
1700935920421266400,12.574266357421875,1.2257887125015259,-4.019313335418701,8.864460945129395
1700935920438259500,12.591259521484375,1.2303155660629272,-4.045132637023926,8.852081298828125
1700935920455252500,12.60825244140625,1.2355214357376099,-4.065565586090088,8.84199047088623
1700935920472243200,12.6252431640625,1.2421141862869263,-4.079824924468994,8.834493637084961
1700935920489240600,12.642240478515625,1.2491331100463867,-4.091587066650391,8.828063011169434
1700935920506231600,12.6592314453125,1.2533533573150635,-4.103372097015381,8.821991920471191
1700935920523224800,12.676224853515626,1.2547414302825928,-4.116710662841797,8.81557846069336
1700935920540217600,12.693217529296875,1.2536252737045288,-4.130648136138916,8.80921459197998
1700935920557210600,12.710210693359375,1.2519181966781616,-4.142705917358398,8.803796768188477
1700935920574203600,12.72720361328125,1.249557614326477,-4.150496482849121,8.800460815429688
1700935920591186000,12.74418603515625,1.2450205087661743,-4.153848171234131,8.799522399902344
1700935920608189400,12.761189453125,1.2370086908340454,-4.153508186340332,8.800811767578125
1700935920625182700,12.7781826171875,1.2263448238372803,-4.151054859161377,8.803461074829102
1700935920642175700,12.79517578125,1.2152388095855713,-4.1500678062438965,8.805466651916504
1700935920659168800,12.812168701171874,1.2033714056015015,-4.150396347045898,8.806941986083984
1700935920676149000,12.82914892578125,1.190840721130371,-4.151148319244385,8.808290481567383
1700935920693153300,12.8461533203125,1.1789908409118652,-4.153341770172119,8.808850288391113
1700935920710150400,12.863150390625,1.1670796871185303,-4.156747817993164,8.808829307556152
1700935920727140600,12.880140625,1.154455542564392,-4.159296989440918,8.809289932250977
1700935920744133600,12.897133544921875,1.1437972784042358,-4.16097354888916,8.80988883972168
1700935920761116200,12.9141162109375,1.1389297246932983,-4.164102554321289,8.809041023254395
1700935920778120000,12.931119873046875,1.1352168321609497,-4.168641090393066,8.807373046875
1700935920795102000,12.94810205078125,1.130119800567627,-4.17532205581665,8.804862976074219
1700935920812105700,12.965105712890624,1.1256568431854248,-4.183896064758301,8.80136489868164
1700935920829096000,12.982095947265625,1.120478630065918,-4.192331314086914,8.798011779785156
1700935920846094600,12.999094482421874,1.1174455881118774,-4.200502872467041,8.794499397277832
1700935920863082200,13.016082275390625,1.1158145666122437,-4.209498405456543,8.790404319763184
1700935920880080100,13.033080078125,1.1181730031967163,-4.218294143676758,8.785887718200684
1700935920897052000,13.050052001953125,1.1270500421524048,-4.226705551147461,8.780706405639648
1700935920914064100,13.067064208984375,1.135756254196167,-4.235010623931885,8.77558422088623
1700935920931057000,13.084056884765625,1.1431044340133667,-4.242849826812744,8.770842552185059
1700935920948050200,13.10105029296875,1.15412175655365,-4.246571063995361,8.767597198486328
1700935920965043000,13.11804296875,1.1665794849395752,-4.246941566467285,8.765769958496094
1700935920982036000,13.135035888671876,1.17934250831604,-4.246755599975586,8.764150619506836
1700935920999028700,13.15202880859375,1.1932077407836914,-4.247926712036133,8.76170539855957
1700935921016025000,13.169025146484374,1.2083064317703247,-4.251367092132568,8.757967948913574
1700935921033009200,13.186009033203124,1.2226771116256714,-4.255897521972656,8.75377082824707
1700935921050011000,13.203010986328126,1.23517644405365,-4.260204792022705,8.749920845031738
1700935921067001300,13.22000146484375,1.2453938722610474,-4.2635178565979,8.746857643127441
1700935921083983600,13.236983642578124,1.2533624172210693,-4.26649808883667,8.744266510009766
1700935921100987100,13.253987060546875,1.2606000900268555,-4.2702956199646,8.741373062133789
1700935921117980200,13.270980224609374,1.2684389352798462,-4.275276184082031,8.737802505493164
1700935921134972000,13.287971923828126,1.2783925533294678,-4.28115177154541,8.733473777770996
1700935921151955500,13.30495556640625,1.289268970489502,-4.285528659820557,8.729727745056152
1700935921168959200,13.321959228515626,1.29902184009552,-4.286910533905029,8.727603912353516
1700935921185952300,13.3389521484375,1.3070462942123413,-4.286728858947754,8.726493835449219
1700935921202945000,13.355945068359375,1.3113009929656982,-4.287115097045898,8.725666046142578
1700935921219937500,13.3729375,1.3112252950668335,-4.2885284423828125,8.724983215332031
1700935921236931800,13.389931884765625,1.306742787361145,-4.2913713455200195,8.724257469177246
1700935921253924000,13.406924072265625,1.296874761581421,-4.293228626251221,8.724817276000977
1700935921270917400,13.42391748046875,1.2857574224472046,-4.290329933166504,8.727886199951172
1700935921287910100,13.44091015625,1.2773871421813965,-4.282662391662598,8.732881546020508
1700935921304903400,13.4579033203125,1.2719504833221436,-4.271770000457764,8.739006996154785
1700935921321896400,13.474896484375,1.2690496444702148,-4.259248733520508,8.745537757873535
1700935921338889200,13.49188916015625,1.2715604305267334,-4.246046543121338,8.751590728759766
1700935921355882500,13.508882568359375,1.2761359214782715,-4.232416152954102,8.757525444030762
1700935921372875500,13.52587548828125,1.2772547006607056,-4.219549179077148,8.763568878173828
1700935921389868300,13.542868408203125,1.275816559791565,-4.210908889770508,8.76793384552002
1700935921406861300,13.559861328125,1.2753050327301025,-4.208030700683594,8.769390106201172
1700935921423854300,13.576854248046875,1.2732765674591064,-4.2100982666015625,8.768691062927246
1700935921440847400,13.593847412109374,1.2673214673995972,-4.215986251831055,8.76672649383545
1700935921457840400,13.61084033203125,1.2584556341171265,-4.2243146896362305,8.763992309570312
1700935921474820900,13.62782080078125,1.2500289678573608,-4.229052543640137,8.762913703918457
1700935921491828700,13.644828857421874,1.2427947521209717,-4.226265907287598,8.765287399291992
1700935921508819500,13.6618193359375,1.2389534711837769,-4.216104507446289,8.770722389221191
1700935921525812500,13.6788125,1.2410376071929932,-4.201295375823975,8.777531623840332
1700935921542805500,13.695805419921875,1.2498058080673218,-4.184449672698975,8.784331321716309
1700935921559798500,13.712798583984375,1.2636172771453857,-4.1691484451293945,8.789629936218262
1700935921576791600,13.72979150390625,1.2788074016571045,-4.157327651977539,8.793030738830566
1700935921593784600,13.74678466796875,1.2918753623962402,-4.148314952850342,8.795377731323242
1700935921610777600,13.763777587890624,1.303354024887085,-4.140030384063721,8.797586441040039
1700935921627770600,13.7807705078125,1.314940094947815,-4.131834506988525,8.799715995788574
1700935921644763600,13.797763671875,1.3259518146514893,-4.124886989593506,8.801322937011719
1700935921661756700,13.814756591796876,1.333420753479004,-4.118627071380615,8.803126335144043
1700935921678749700,13.831749755859375,1.3366565704345703,-4.113029479980469,8.805253028869629
1700935921695742700,13.84874267578125,1.3393744230270386,-4.1096086502075195,8.806435585021973
1700935921712735700,13.86573583984375,1.3426895141601562,-4.1086955070495605,8.806356430053711
1700935921729728800,13.882728759765625,1.343512773513794,-4.109532356262207,8.805840492248535
1700935921746719200,13.89971923828125,1.3427263498306274,-4.110995769500732,8.805278778076172
1700935921763718000,13.9167177734375,1.3408315181732178,-4.112088680267334,8.805055618286133
1700935921780709400,13.93370947265625,1.3347703218460083,-4.1128387451171875,8.80562686920166
1700935921797699000,13.950698974609375,1.3244224786758423,-4.113910675048828,8.806687355041504
1700935921814694000,13.96769384765625,1.3138550519943237,-4.117670059204102,8.806512832641602
1700935921831687000,13.98468701171875,1.304013967514038,-4.124173164367676,8.80493450164795
1700935921848680200,14.00168017578125,1.2936204671859741,-4.1306939125061035,8.803410530090332
1700935921865673200,14.018673095703125,1.2842926979064941,-4.136199951171875,8.802190780639648
1700935921882665700,14.035665771484375,1.2783727645874023,-4.140224933624268,8.80116081237793
1700935921899658800,14.05265869140625,1.2744024991989136,-4.142213821411133,8.800799369812012
1700935921916642800,14.069642822265624,1.2711800336837769,-4.142555236816406,8.801106452941895
1700935921933645000,14.08664501953125,1.265890121459961,-4.138942241668701,8.803568840026855
1700935921950638000,14.10363818359375,1.2551296949386597,-4.13110876083374,8.808785438537598
1700935921967631000,14.120631103515626,1.240189790725708,-4.119218349456787,8.816466331481934
1700935921984624000,14.1376240234375,1.2256755828857422,-4.105499744415283,8.824891090393066
1700935922001606400,14.1546064453125,1.2164009809494019,-4.0918426513671875,8.832513809204102
1700935922018610200,14.171610107421875,1.2120933532714844,-4.077029705047607,8.83995246887207
1700935922035603000,14.18860302734375,1.2101290225982666,-4.058002948760986,8.84897232055664
1700935922052596200,14.20559619140625,1.2093513011932373,-4.03436279296875,8.859881401062012
1700935922069579000,14.2225791015625,1.208311676979065,-4.010622501373291,8.870795249938965
1700935922086579700,14.239579833984376,1.207216501235962,-3.9914357662200928,8.879593849182129
1700935922103577600,14.25657763671875,1.2089958190917969,-3.978750228881836,8.88504409790039
1700935922120571000,14.27357080078125,1.2106757164001465,-3.970521926879883,8.888495445251465
1700935922137561300,14.290561279296876,1.2102748155593872,-3.9661200046539307,8.890514373779297
1700935922154552000,14.307552001953125,1.2094124555587769,-3.96448016166687,8.891363143920898
1700935922171547000,14.324546875,1.210901141166687,-3.96409010887146,8.891334533691406
1700935922188532200,14.3415322265625,1.2127251625061035,-3.963456392288208,8.891368865966797
1700935922205533400,14.358533447265625,1.2137800455093384,-3.9635090827941895,8.891200065612793
1700935922222526200,14.375526123046875,1.214235544204712,-3.963538885116577,8.891125679016113
1700935922239519500,14.39251953125,1.212396264076233,-3.9627668857574463,8.89172077178955
1700935922256512300,14.40951220703125,1.2082403898239136,-3.962113857269287,8.892577171325684
1700935922273505500,14.426505615234374,1.2050096988677979,-3.962064027786255,8.893036842346191
1700935922290498300,14.443498291015626,1.2028769254684448,-3.962653636932373,8.893062591552734
1700935922307491300,14.4604912109375,1.200415849685669,-3.963200807571411,8.893153190612793
1700935922324473000,14.47747314453125,1.1953177452087402,-3.9636545181274414,8.893636703491211
1700935922341477600,14.4944775390625,1.187126636505127,-3.965785503387451,8.893783569335938
1700935922358470400,14.511470458984375,1.1785768270492554,-3.970344305038452,8.892887115478516
1700935922375463400,14.52846337890625,1.1705869436264038,-3.976759672164917,8.89107608795166
1700935922392456700,14.545456787109375,1.1644203662872314,-3.9848787784576416,8.888250350952148
1700935922409449000,14.562448974609374,1.1594698429107666,-3.9933218955993652,8.88510799407959
1700935922426442800,14.57944287109375,1.154397964477539,-4.001395225524902,8.882135391235352
1700935922443435800,14.596435791015624,1.1469674110412598,-4.007442474365234,8.88037109375
1700935922460418600,14.61341845703125,1.1371936798095703,-4.011848449707031,8.879638671875
1700935922477421600,14.630421630859376,1.1279326677322388,-4.016974925994873,8.87850284576416
1700935922494414600,14.64741455078125,1.1217167377471924,-4.025657653808594,8.87535572052002
1700935922511403800,14.66440380859375,1.1154812574386597,-4.0393218994140625,8.869932174682617
1700935922528402200,14.681402099609375,1.1057116985321045,-4.056130409240723,8.863482475280762
1700935922545396200,14.698396240234375,1.0949031114578247,-4.072275638580322,8.85741901397705
1700935922562379800,14.7153798828125,1.085157871246338,-4.085058212280273,8.852730751037598
1700935922579379700,14.732379638671874,1.0766853094100952,-4.095284938812256,8.849040985107422
1700935922596372500,14.74937255859375,1.0702646970748901,-4.1045050621032715,8.84554672241211
1700935922613366300,14.7663662109375,1.0649876594543457,-4.111660003662109,8.842859268188477
1700935922630358800,14.78335888671875,1.0581157207489014,-4.115093231201172,8.84208869934082
1700935922647351800,14.800351806640625,1.0517191886901855,-4.116398334503174,8.842243194580078
1700935922664344800,14.8173447265625,1.0469287633895874,-4.116940021514893,8.842559814453125
1700935922681338000,14.834338134765625,1.0438332557678223,-4.117809295654297,8.842519760131836
1700935922698331000,14.851330810546875,1.0419977903366089,-4.118286609649658,8.842514038085938
1700935922715323000,14.868322998046875,1.0400890111923218,-4.117080211639404,8.843300819396973
1700935922732318000,14.88531787109375,1.0370444059371948,-4.113585472106934,8.845284461975098
1700935922749310000,14.90231005859375,1.0341721773147583,-4.106908321380615,8.848724365234375
1700935922766303000,14.919302978515624,1.0346221923828125,-4.099261283874512,8.852215766906738
1700935922783293400,14.93629345703125,1.0386854410171509,-4.092044353485107,8.855077743530273
1700935922800291600,14.95329150390625,1.0430643558502197,-4.085000514984131,8.85781478881836
1700935922817282300,14.9702822265625,1.045668125152588,-4.078304290771484,8.860594749450684
1700935922834274800,14.98727490234375,1.048045039176941,-4.072140693664551,8.86314868927002
1700935922851267800,15.004267822265625,1.0528552532196045,-4.0684356689453125,8.864279747009277
1700935922868261000,15.02126123046875,1.0583136081695557,-4.066473484039307,8.86452865600586
1700935922885254400,15.03825439453125,1.0623905658721924,-4.065410137176514,8.864530563354492
1700935922902247200,15.0552470703125,1.0664407014846802,-4.065567493438721,8.863970756530762
1700935922919240400,15.072240478515624,1.0729509592056274,-4.067572593688965,8.862265586853027
1700935922936233200,15.089233154296876,1.0792133808135986,-4.070180416107178,8.860307693481445
1700935922953226000,15.10622607421875,1.0823767185211182,-4.070220947265625,8.859902381896973
1700935922970222800,15.123222900390624,1.0841732025146484,-4.06698751449585,8.861166954040527
1700935922987209000,15.140208984375,1.0863240957260132,-4.063114643096924,8.86268138885498
1700935923004205000,15.157205078125,1.0902379751205444,-4.0599188804626465,8.863665580749512
1700935923021198300,15.1741982421875,1.0933252573013306,-4.057460308074951,8.864410400390625
1700935923038180600,15.1911806640625,1.0936440229415894,-4.056802272796631,8.864673614501953
1700935923055184400,15.208184326171875,1.0932925939559937,-4.059040069580078,8.863691329956055
1700935923072177700,15.225177734375,1.0932940244674683,-4.065291404724121,8.860824584960938
1700935923089170200,15.242170166015624,1.0914369821548462,-4.07404088973999,8.857034683227539
1700935923106163500,15.25916357421875,1.0852971076965332,-4.082115650177002,8.854069709777832
1700935923123156500,15.276156494140626,1.0793498754501343,-4.089801788330078,8.851251602172852
1700935923140149500,15.2931494140625,1.0771420001983643,-4.094541549682617,8.849328994750977
1700935923157142500,15.310142578125,1.0760923624038696,-4.0949530601501465,8.849266052246094
1700935923174133200,15.32713330078125,1.0755939483642578,-4.092437744140625,8.850489616394043
1700935923191132700,15.344132568359376,1.0793267488479614,-4.090578556060791,8.850895881652832
1700935923208120000,15.3611201171875,1.0873786211013794,-4.09141731262207,8.84952163696289
1700935923225114600,15.378114501953124,1.0980541706085205,-4.091955184936523,8.847954750061035
1700935923242107600,15.395107666015624,1.1043596267700195,-4.089101314544678,8.848489761352539
1700935923259100000,15.412099853515626,1.1064701080322266,-4.081458568572998,8.851752281188965
1700935923276094500,15.429094482421876,1.1098369359970093,-4.072824478149414,8.855306625366211
1700935923293086700,15.446086669921876,1.1158697605133057,-4.067955017089844,8.856789588928223
1700935923310080000,15.463080078125,1.1198810338974,-4.067508220672607,8.856486320495605
1700935923327072800,15.48007275390625,1.1222724914550781,-4.072286605834961,8.853987693786621
1700935923344065500,15.4970654296875,1.1251028776168823,-4.080432415008545,8.84987735748291
1700935923361058800,15.514058837890625,1.1292494535446167,-4.086873531341553,8.846378326416016
1700935923378051800,15.5310517578125,1.1314330101013184,-4.090527057647705,8.844408988952637
1700935923395044600,15.548044677734374,1.1319847106933594,-4.092731475830078,8.843318939208984
1700935923412037600,15.56503759765625,1.1335514783859253,-4.092253684997559,8.843338966369629
1700935923429020700,15.582020751953126,1.140117883682251,-4.089090824127197,8.84395694732666
1700935923446024000,15.59902392578125,1.151419997215271,-4.083984851837158,8.844853401184082
1700935923463017000,15.616016845703125,1.1639970541000366,-4.077459335327148,8.84621810913086
1700935923480009700,15.633009765625,1.1754398345947266,-4.071478843688965,8.847458839416504
1700935923497003000,15.6500029296875,1.1853876113891602,-4.067605972290039,8.847912788391113
1700935923513996000,15.66699609375,1.1936097145080566,-4.065908432006836,8.847586631774902
1700935923530989300,15.6839892578125,1.1998518705368042,-4.066758632659912,8.846352577209473
1700935923547966500,15.700966552734375,1.2030608654022217,-4.070611476898193,8.844144821166992
1700935923564973300,15.717973388671876,1.2041727304458618,-4.078984260559082,8.840133666992188
1700935923581971000,15.734970947265625,1.2056280374526978,-4.0902323722839355,8.834735870361328
1700935923598960000,15.751960205078126,1.206483006477356,-4.101834297180176,8.829240798950195
1700935923615954200,15.7689541015625,1.2065166234970093,-4.111441612243652,8.8247652053833
1700935923632948500,15.785948486328126,1.20490562915802,-4.118417739868164,8.821732521057129
1700935923649940200,15.802940185546875,1.2026898860931396,-4.124987602233887,8.818963050842285
1700935923666933200,15.819933349609375,1.2007783651351929,-4.132464408874512,8.815723419189453
1700935923683926300,15.83692626953125,1.2008755207061768,-4.141590118408203,8.811427116394043
1700935923700919600,15.85391943359375,1.2029350996017456,-4.151978969573975,8.806256294250488
1700935923717912300,15.870912353515624,1.2062739133834839,-4.159548759460449,8.802226066589355
1700935923734905000,15.887905029296874,1.208498239517212,-4.16055965423584,8.801443099975586
1700935923751898400,15.9048984375,1.2097150087356567,-4.154768943786621,8.804011344909668
1700935923768891600,15.9218916015625,1.210231065750122,-4.144901752471924,8.808588027954102
1700935923785884400,15.938884521484376,1.209904432296753,-4.135509014129639,8.8130464553833
1700935923802877400,15.95587744140625,1.2074860334396362,-4.129467964172363,8.81621265411377
1700935923819855000,15.972855224609376,1.2027442455291748,-4.128023147583008,8.817536354064941
1700935923836863700,15.98986376953125,1.1954232454299927,-4.130359649658203,8.817438125610352
1700935923853856300,16.006856201171875,1.1873517036437988,-4.133366584777832,8.817120552062988
1700935923870836500,16.02383642578125,1.1799795627593994,-4.13424015045166,8.81769847869873
1700935923887835600,16.040835693359377,1.1759201288223267,-4.131496429443359,8.819526672363281
1700935923904835600,16.057835693359376,1.1743674278259277,-4.126959800720215,8.821857452392578
1700935923921828600,16.07482861328125,1.1757830381393433,-4.121086120605469,8.82441520690918
1700935923938821600,16.091821533203124,1.1810364723205566,-4.1146745681762695,8.826704978942871
1700935923955814700,16.108814697265625,1.19049870967865,-4.1100239753723145,8.827600479125977
1700935923972808000,16.125807861328123,1.1999623775482178,-4.106905460357666,8.827771186828613
1700935923989800700,16.14280078125,1.2079684734344482,-4.104215621948242,8.827930450439453
1700935924006794000,16.1597939453125,1.2147190570831299,-4.100902080535889,8.828544616699219
1700935924023776000,16.17677587890625,1.2226829528808594,-4.098974227905273,8.828339576721191
1700935924040779800,16.19377978515625,1.2282562255859375,-4.099019527435303,8.827544212341309
1700935924057772500,16.2107724609375,1.2289897203445435,-4.101661205291748,8.826214790344238
1700935924074748000,16.227747802734374,1.2306623458862305,-4.107970714569092,8.823047637939453
1700935924091759000,16.244759033203124,1.235823154449463,-4.11543083190918,8.818848609924316
1700935924108752100,16.261752197265626,1.2413086891174316,-4.120710849761963,8.81561279296875
1700935924125745200,16.2787451171875,1.244961142539978,-4.122710704803467,8.814163208007812
1700935924142738700,16.29573876953125,1.2491916418075562,-4.12127685546875,8.814234733581543
1700935924159730200,16.312730224609375,1.257002592086792,-4.117162227630615,8.815045356750488
1700935924176724000,16.329723876953125,1.263740062713623,-4.112779140472412,8.816129684448242
1700935924193717000,16.346717041015626,1.267195463180542,-4.110938549041748,8.816492080688477
1700935924210709800,16.363709716796876,1.270095705986023,-4.111763000488281,8.815689086914062
1700935924227703000,16.380703125,1.2713686227798462,-4.113037109375,8.814910888671875
1700935924244696000,16.397696044921876,1.2701953649520874,-4.1123366355896,8.815406799316406
1700935924261689300,16.414689453125,1.2694507837295532,-4.110501766204834,8.816370010375977
1700935924278682000,16.43168212890625,1.2664414644241333,-4.107538223266602,8.818184852600098
1700935924295675000,16.4486748046875,1.2609363794326782,-4.105068206787109,8.820122718811035
1700935924312668700,16.465668701171875,1.2570430040359497,-4.107041835784912,8.819759368896484
1700935924329661200,16.4826611328125,1.2551525831222534,-4.11381196975708,8.816874504089355
1700935924346654500,16.499654541015627,1.2503271102905273,-4.121755599975586,8.813848495483398
1700935924363647500,16.5166474609375,1.2450345754623413,-4.129912376403809,8.810778617858887
1700935924380640500,16.533640625,1.2428900003433228,-4.1346259117126465,8.808871269226074
1700935924397633300,16.55063330078125,1.2448132038116455,-4.133679389953613,8.809042930603027
1700935924414616000,16.567615966796875,1.2481729984283447,-4.129030704498291,8.810749053955078
1700935924431617500,16.584617431640623,1.2501829862594604,-4.12344217300415,8.813079833984375
1700935924448614700,16.60161474609375,1.2499186992645264,-4.119992256164551,8.814730644226074
1700935924465605400,16.61860546875,1.2500684261322021,-4.120725631713867,8.814367294311523
1700935924482598700,16.6355986328125,1.250506043434143,-4.124565601348877,8.812508583068848
1700935924499588900,16.6525888671875,1.2502789497375488,-4.127322673797607,8.811250686645508
1700935924516587000,16.6695869140625,1.2502025365829468,-4.127198219299316,8.811319351196289
1700935924533568300,16.686568359375,1.25214684009552,-4.126317024230957,8.811455726623535
1700935924550570500,16.703570556640624,1.2546592950820923,-4.125829219818115,8.811327934265137
1700935924567563800,16.720563720703126,1.256841778755188,-4.127645492553711,8.810165405273438
1700935924584556800,16.737556884765624,1.2586112022399902,-4.130706787109375,8.808478355407715
1700935924601539300,16.754539306640623,1.258893609046936,-4.134627819061279,8.806597709655762
1700935924618542600,16.77154248046875,1.2602735757827759,-4.137897491455078,8.804863929748535
1700935924635536000,16.788535888671873,1.261000394821167,-4.138844966888428,8.804315567016602
1700935924652528600,16.805528564453127,1.2609277963638306,-4.138545989990234,8.804465293884277
1700935924669521700,16.822521728515625,1.2605705261230469,-4.137638092041016,8.804943084716797
1700935924686511400,16.839511474609374,1.2594850063323975,-4.138348579406738,8.804764747619629
1700935924703511300,16.85651123046875,1.2590011358261108,-4.142814636230469,8.802733421325684
1700935924720513300,16.87351318359375,1.2581424713134766,-4.1510114669799805,8.798994064331055
1700935924737494000,16.890493896484376,1.2558130025863647,-4.159318923950195,8.795403480529785
1700935924754487300,16.9074873046875,1.2541149854660034,-4.165890693664551,8.792534828186035
1700935924771479800,16.924479736328124,1.2555004358291626,-4.170699119567871,8.790056228637695
1700935924788472800,16.941472900390625,1.2598092555999756,-4.17307710647583,8.788311958312988
1700935924805457400,16.95845751953125,1.26339590549469,-4.174079418182373,8.787320137023926
1700935924822459000,16.975458984375,1.264933466911316,-4.175583362579346,8.786385536193848
1700935924839452200,16.9924521484375,1.264054298400879,-4.177646160125732,8.785531044006348
1700935924856451800,17.009451904296874,1.2625597715377808,-4.179019451141357,8.785093307495117
1700935924873438200,17.026438232421874,1.2619692087173462,-4.181296348571777,8.784093856811523
1700935924890431200,17.04343115234375,1.2624951601028442,-4.182948112487793,8.783232688903809
1700935924907424000,17.060424072265626,1.2626404762268066,-4.184497356414795,8.782472610473633
1700935924924414700,17.077414794921875,1.2625764608383179,-4.184919834136963,8.782281875610352
1700935924941412900,17.094412841796874,1.2623785734176636,-4.1846747398376465,8.782425880432129
1700935924958403300,17.1114033203125,1.263323426246643,-4.185218811035156,8.782032012939453
1700935924975396400,17.128396240234373,1.263949990272522,-4.186864852905273,8.781155586242676
1700935924992389400,17.145389404296875,1.262785792350769,-4.18884801864624,8.780378341674805
1700935925009382400,17.16238232421875,1.2590000629425049,-4.191683292388916,8.779569625854492
1700935925026375400,17.17937548828125,1.2576791048049927,-4.196540355682373,8.777436256408691
1700935925043368400,17.196368408203124,1.2596490383148193,-4.201918601989746,8.774582862854004
1700935925060361500,17.213361572265626,1.2626513242721558,-4.205782890319824,8.772300720214844
1700935925077354500,17.2303544921875,1.2673323154449463,-4.208698749542236,8.770225524902344
1700935925094347500,17.247347412109374,1.2722357511520386,-4.210341453552246,8.76872730255127
1700935925111340300,17.26434033203125,1.2750967741012573,-4.2115631103515625,8.76772403717041
1700935925128333600,17.28133349609375,1.2783379554748535,-4.214932441711426,8.765633583068848
1700935925145326600,17.29832666015625,1.285129427909851,-4.21961784362793,8.762384414672852
1700935925162319400,17.3153193359375,1.2919868230819702,-4.220930099487305,8.760744094848633
1700935925179312600,17.332312744140626,1.2971714735031128,-4.217030048370361,8.761857032775879
1700935925196306000,17.349305908203124,1.301781415939331,-4.210556983947754,8.764286041259766
1700935925213299000,17.366298828125,1.3096585273742676,-4.202905654907227,8.766782760620117
1700935925230291700,17.383291748046876,1.3189243078231812,-4.194656848907471,8.7693452835083
1700935925247284700,17.40028466796875,1.327329397201538,-4.1861114501953125,8.772160530090332
1700935925264278000,17.417278076171876,1.3346346616744995,-4.1749372482299805,8.776374816894531
1700935925281270800,17.434270751953125,1.342132806777954,-4.160176753997803,8.78223991394043
1700935925298263800,17.451263916015623,1.3514140844345093,-4.146071910858154,8.787484169006348
1700935925315256800,17.4682568359375,1.3620563745498657,-4.134544849395752,8.791271209716797
1700935925332245800,17.485245849609374,1.3703854084014893,-4.124964237213135,8.794477462768555
1700935925349243100,17.5022431640625,1.3764723539352417,-4.117716312408447,8.796923637390137
1700935925366236400,17.519236328125,1.3804080486297607,-4.113585948944092,8.798238754272461
1700935925383229200,17.536229248046876,1.381413221359253,-4.112369537353516,8.798648834228516
1700935925400222000,17.553221923828126,1.3811678886413574,-4.112756729125977,8.798507690429688
1700935925417215000,17.570215087890624,1.3808484077453613,-4.1130757331848145,8.798406600952148
1700935925434208000,17.5872080078125,1.3795968294143677,-4.114917755126953,8.79774284362793
1700935925451201000,17.604200927734375,1.376537561416626,-4.11716365814209,8.797171592712402
1700935925468194300,17.6211943359375,1.3735183477401733,-4.12064790725708,8.796010971069336
1700935925485187000,17.63818701171875,1.3713157176971436,-4.126487731933594,8.79361629486084
1700935925502180000,17.65518017578125,1.3688194751739502,-4.134792804718018,8.790104866027832
1700935925519162600,17.67216259765625,1.3636552095413208,-4.144795894622803,8.786195755004883
1700935925536164000,17.6891640625,1.3542306423187256,-4.156113147735596,8.782305717468262
1700935925553161500,17.706161376953126,1.3400757312774658,-4.166787147521973,8.7794189453125
1700935925570152200,17.723152099609376,1.3240324258804321,-4.175273418426514,8.777820587158203
1700935925587143000,17.740142822265625,1.3086235523223877,-4.180936813354492,8.777437210083008
1700935925604137500,17.757137451171875,1.293375849723816,-4.18382453918457,8.778319358825684
1700935925621132300,17.77413232421875,1.2771632671356201,-4.18421745300293,8.780508041381836
1700935925638124500,17.79112451171875,1.2621676921844482,-4.184370994567871,8.782602310180664
1700935925655117600,17.80811767578125,1.2486566305160522,-4.185729503631592,8.783885955810547
1700935925672110800,17.82511083984375,1.234526515007019,-4.188640594482422,8.78449535369873
1700935925689103600,17.842103515625,1.218348741531372,-4.19195032119751,8.785175323486328
1700935925706096400,17.859096435546874,1.2003161907196045,-4.194472789764404,8.786454200744629
1700935925723090200,17.876090087890624,1.183660626411438,-4.196608543395996,8.787692070007324
1700935925740082700,17.893082763671874,1.1696689128875732,-4.198458194732666,8.788681983947754
1700935925757075700,17.91007568359375,1.1574549674987793,-4.200031280517578,8.789546966552734
1700935925774066200,17.927066162109377,1.1467995643615723,-4.201295852661133,8.7903413772583
1700935925791074800,17.94407470703125,1.1376796960830688,-4.201460361480713,8.7914457321167
1700935925808054800,17.9610546875,1.1323829889297485,-4.1986083984375,8.793492317199707
1700935925825047600,17.978047607421875,1.1312342882156372,-4.190309524536133,8.797597885131836
1700935925842040600,17.99504052734375,1.1316298246383667,-4.176869869232178,8.803937911987305
1700935925859033900,18.012033935546874,1.1324492692947388,-4.162549018859863,8.810609817504883
1700935925876016400,18.029016357421874,1.1328352689743042,-4.15001106262207,8.816473960876465
1700935925893020000,18.04602001953125,1.1342031955718994,-4.138781547546387,8.821575164794922
1700935925910013200,18.06301318359375,1.132970929145813,-4.128683090209961,8.82646369934082
1700935925927006000,18.080005859375,1.1263655424118042,-4.122341156005859,8.830272674560547
1700935925944002600,18.09700244140625,1.1177061796188354,-4.119195461273193,8.832839965820312
1700935925960988700,18.11398876953125,1.1106950044631958,-4.116139888763428,8.835148811340332
1700935925977985300,18.1309853515625,1.1070244312286377,-4.111494541168213,8.837772369384766
1700935925994978300,18.147978271484376,1.1070016622543335,-4.108231544494629,8.839292526245117
1700935926011971300,18.164971435546875,1.1080316305160522,-4.1069183349609375,8.839774131774902
1700935926028964400,18.18196435546875,1.1116689443588257,-4.1061015129089355,8.83969783782959
1700935926045957400,18.198957275390626,1.117645025253296,-4.103079319000244,8.840347290039062
1700935926062950400,18.215950439453124,1.1219568252563477,-4.095707893371582,8.843217849731445
1700935926079943200,18.232943115234374,1.123649001121521,-4.085042953491211,8.847935676574707
1700935926096936400,18.2499365234375,1.1226154565811157,-4.070954322814941,8.854557037353516
1700935926113929200,18.26692919921875,1.1186892986297607,-4.05539083480835,8.862192153930664
1700935926130919700,18.283919677734374,1.114283800125122,-4.039442539215088,8.870027542114258
1700935926147918300,18.30091845703125,1.110430121421814,-4.021596908569336,8.878615379333496
1700935926164907300,18.3179072265625,1.1044642925262451,-4.002695083618164,8.887895584106445
1700935926181902600,18.334902587890625,1.0965511798858643,-3.9841084480285645,8.897221565246582
1700935926198894300,18.351894287109374,1.0884335041046143,-3.967505931854248,8.905634880065918
1700935926215876900,18.368876953125,1.0796769857406616,-3.952657461166382,8.913300514221191
1700935926232880400,18.38588037109375,1.0696721076965332,-3.939988374710083,8.920113563537598
1700935926249873700,18.402873779296876,1.061983585357666,-3.9307570457458496,8.925102233886719
1700935926266866700,18.41986669921875,1.0587109327316284,-3.9254963397979736,8.92780590057373
1700935926283859700,18.436859619140623,1.057252049446106,-3.9219067096710205,8.929557800292969
1700935926300852700,18.453852783203125,1.055127739906311,-3.9183807373046875,8.931355476379395
1700935926317845800,18.470845703125,1.0518211126327515,-3.91509747505188,8.933184623718262
1700935926334838800,18.4878388671875,1.05278480052948,-3.914945125579834,8.933138847351074
1700935926351831800,18.504831787109374,1.0570827722549438,-3.9193050861358643,8.930718421936035
1700935926368824800,18.521824951171876,1.0569608211517334,-3.927748680114746,8.927023887634277
1700935926385817600,18.538817626953126,1.0516232252120972,-3.939701795578003,8.922385215759277
1700935926402807000,18.55580712890625,1.0467551946640015,-3.954862356185913,8.916248321533203
1700935926419801900,18.5728017578125,1.0453649759292603,-3.9699223041534424,8.909717559814453
1700935926436799700,18.5897998046875,1.045162320137024,-3.981602907180786,8.90452766418457
1700935926453790000,18.6067900390625,1.045302391052246,-3.990504503250122,8.900524139404297
1700935926470783200,18.623783203125,1.0465610027313232,-3.9986705780029297,8.896711349487305
1700935926487776000,18.64077587890625,1.0466127395629883,-4.006060600280762,8.893381118774414
1700935926504769300,18.657769287109375,1.045860767364502,-4.013406753540039,8.890155792236328
1700935926521762000,18.674761962890624,1.0439841747283936,-4.01812744140625,8.8882417678833
1700935926538755300,18.69175537109375,1.0402711629867554,-4.019856929779053,8.887896537780762
1700935926555748000,18.708748046875,1.0352733135223389,-4.018777847290039,8.888968467712402
1700935926572729600,18.7257294921875,1.030303955078125,-4.0176262855529785,8.89006519317627
1700935926589734400,18.742734375,1.0283814668655396,-4.019246578216553,8.889555931091309
1700935926606727200,18.75972705078125,1.029489517211914,-4.023406028747559,8.887545585632324
1700935926623720400,18.776720458984375,1.031899094581604,-4.029233932495117,8.884625434875488
1700935926640702700,18.79370263671875,1.0355732440948486,-4.036221504211426,8.881026268005371
1700935926657706500,18.81070654296875,1.0413625240325928,-4.044682502746582,8.87649917602539
1700935926674693600,18.827693603515623,1.0472393035888672,-4.054269313812256,8.87143325805664
1700935926691692300,18.8446923828125,1.0519047975540161,-4.063642501831055,8.866589546203613
1700935926708685600,18.861685546875,1.0554853677749634,-4.073150634765625,8.861799240112305
1700935926725678600,18.8786787109375,1.056901216506958,-4.078956604003906,8.85896110534668
1700935926742672000,18.895671875,1.0564597845077515,-4.078797340393066,8.859086036682129
1700935926759664600,18.91266455078125,1.057381272315979,-4.076292991638184,8.860129356384277
1700935926776657700,18.92965771484375,1.0593608617782593,-4.072815895080566,8.861491203308105
1700935926793650700,18.946650634765625,1.0617716312408447,-4.068946361541748,8.862981796264648
1700935926810643500,18.9636435546875,1.0640915632247925,-4.064471244812012,8.86475658416748
1700935926827638300,18.98063818359375,1.070563793182373,-4.060083389282227,8.865986824035645
1700935926844627500,18.99762744140625,1.0825552940368652,-4.0574822425842285,8.865721702575684
1700935926861625000,19.014625,1.0973478555679321,-4.057605743408203,8.863846778869629
1700935926878615600,19.031615478515626,1.111786127090454,-4.060250759124756,8.860836029052734
1700935926895598600,19.0485986328125,1.1263275146484375,-4.065586090087891,8.856553077697754
1700935926912601900,19.065601806640625,1.1425507068634033,-4.0722126960754395,8.85142707824707
1700935926929595100,19.08259521484375,1.160502552986145,-4.076425552368164,8.847153663635254
1700935926946588200,19.099588134765625,1.1808686256408691,-4.075854301452637,8.844719886779785
1700935926963581200,19.116581298828127,1.2007108926773071,-4.068177223205566,8.845582962036133
1700935926980574000,19.133573974609376,1.217867136001587,-4.057919979095459,8.847949028015137
1700935926997567200,19.150567138671875,1.2385426759719849,-4.051063537597656,8.848219871520996
1700935927014549200,19.16754931640625,1.2595946788787842,-4.044557094573975,8.848226547241211
1700935927031553300,19.18455322265625,1.2725257873535156,-4.0327372550964355,8.851770401000977
1700935927048535600,19.20153564453125,1.2797616720199585,-4.013172149658203,8.859615325927734
1700935927065529600,19.218529541015624,1.2851101160049438,-3.9884090423583984,8.870017051696777
1700935927082532400,19.235532470703124,1.28841233253479,-3.9616620540618896,8.881516456604004
1700935927099525400,19.252525390625,1.2877647876739502,-3.935965061187744,8.893028259277344
1700935927116524500,19.269524658203125,1.2842655181884766,-3.9131720066070557,8.903587341308594
1700935927133511200,19.28651123046875,1.2808350324630737,-3.896127700805664,8.911552429199219
1700935927150504200,19.303504150390626,1.2777312994003296,-3.8847815990448,8.916950225830078
1700935927167497500,19.32049755859375,1.2721831798553467,-3.8762383460998535,8.921460151672363
1700935927184490800,19.33749072265625,1.2610269784927368,-3.8678245544433594,8.926692962646484
1700935927201483500,19.3544833984375,1.2466895580291748,-3.8578410148620605,8.933025360107422
1700935927218465800,19.3714658203125,1.2330255508422852,-3.8472516536712646,8.939486503601074
1700935927235469800,19.3884697265625,1.22653067111969,-3.842810869216919,8.942290306091309
1700935927252461000,19.4054609375,1.2222785949707031,-3.8442599773406982,8.94225025177002
1700935927269457200,19.42245703125,1.210677981376648,-3.8459384441375732,8.94310474395752
1700935927286447400,19.439447265625,1.1919304132461548,-3.846524715423584,8.945371627807617
1700935927303442000,19.45644189453125,1.1739739179611206,-3.8470733165740967,8.947509765625
1700935927320435000,19.47343505859375,1.1625580787658691,-3.847999334335327,8.948602676391602
1700935927337428000,19.490427978515626,1.155059576034546,-3.8476626873016357,8.949718475341797
1700935927354420700,19.507420654296876,1.1501187086105347,-3.8464925289154053,8.95085620880127
1700935927371413800,19.524413818359374,1.148507833480835,-3.8457329273223877,8.951391220092773
1700935927388406800,19.54140673828125,1.1510417461395264,-3.846257448196411,8.950839042663574
1700935927405389600,19.5583896484375,1.154504418373108,-3.8488245010375977,8.949289321899414
1700935927422393000,19.57539306640625,1.1573444604873657,-3.8545355796813965,8.946464538574219
1700935927439384600,19.592384521484377,1.1596248149871826,-3.8626725673675537,8.942658424377441
1700935927456377600,19.609377685546875,1.1615257263183594,-3.874704122543335,8.937206268310547
1700935927473373700,19.626373779296873,1.1626832485198975,-3.893237352371216,8.928997039794922
1700935927490365200,19.643365234375,1.1638050079345703,-3.9176185131073,8.918180465698242
1700935927507358000,19.66035791015625,1.1633670330047607,-3.946967840194702,8.905287742614746
1700935927524351000,19.67735107421875,1.1617289781570435,-3.980416774749756,8.890602111816406
1700935927541344300,19.69434423828125,1.1586685180664062,-4.0180487632751465,8.874056816101074
1700935927558337300,19.711337158203126,1.1548550128936768,-4.058060646057129,8.856328964233398
1700935927575330300,19.728330322265624,1.1516597270965576,-4.099493980407715,8.837642669677734
1700935927592323300,19.7453232421875,1.1484484672546387,-4.139960289001465,8.81917953491211
1700935927609316400,19.76231640625,1.1438806056976318,-4.173829555511475,8.80379581451416
1700935927626309600,19.7793095703125,1.1417059898376465,-4.202757835388184,8.790303230285645
1700935927643302400,19.796302490234375,1.1404366493225098,-4.228584289550781,8.778074264526367
1700935927660295400,19.81329541015625,1.1361654996871948,-4.251533508300781,8.767538070678711
1700935927677288700,19.830288818359374,1.1290947198867798,-4.27138090133667,8.758798599243164
1700935927694281500,19.847281494140624,1.1245719194412231,-4.287794589996338,8.751358032226562
1700935927711272200,19.864272216796873,1.1269500255584717,-4.298486232757568,8.745805740356445
1700935927728267800,19.881267822265624,1.1315637826919556,-4.301028251647949,8.743959426879883
1700935927745252600,19.898252685546876,1.1354491710662842,-4.294485569000244,8.746671676635742
1700935927762253800,19.91525390625,1.1345367431640625,-4.281138896942139,8.75333023071289
1700935927779246800,19.932246826171873,1.13556969165802,-4.26635217666626,8.760414123535156
1700935927796239000,19.949239013671875,1.1419355869293213,-4.251391410827637,8.76685619354248
1700935927813233000,19.96623291015625,1.149539828300476,-4.236141204833984,8.77324390411377
1700935927830226000,19.983225830078126,1.159224033355713,-4.219666004180908,8.779905319213867
1700935927847219000,20.000218994140624,1.167955994606018,-4.198974132537842,8.788662910461426
1700935927864212000,20.0172119140625,1.1747878789901733,-4.175673007965088,8.798849105834961
1700935927881205000,20.034205078125,1.1853972673416138,-4.153831958770752,8.807759284973145
1700935927898198000,20.051197998046874,1.199087142944336,-4.135218143463135,8.81466293334961
1700935927915191000,20.06819091796875,1.212074637413025,-4.120739936828613,8.819665908813477
1700935927932184300,20.085184326171873,1.224302053451538,-4.110932350158691,8.822551727294922
1700935927949177300,20.10217724609375,1.2357178926467896,-4.105806350708008,8.823348999023438
1700935927966170000,20.119170166015625,1.2478861808776855,-4.103521347045898,8.822697639465332
1700935927983163100,20.1361630859375,1.261875033378601,-4.1035943031311035,8.820674896240234
1700935928000156000,20.153156005859376,1.2760077714920044,-4.106778144836426,8.817159652709961
1700935928017149400,20.1701494140625,1.2882001399993896,-4.111716270446777,8.81308364868164
1700935928034142500,20.187142578125,1.2967054843902588,-4.1163740158081055,8.809661865234375
1700935928051135200,20.20413525390625,1.3022018671035767,-4.121524810791016,8.806441307067871
1700935928068128500,20.22112841796875,1.3066316843032837,-4.127126693725586,8.803162574768066
1700935928085121300,20.238121337890625,1.3097354173660278,-4.131331443786621,8.800727844238281
1700935928102104600,20.2551044921875,1.309881567955017,-4.1324462890625,8.80018424987793
1700935928119105300,20.272105224609376,1.3086559772491455,-4.132578372955322,8.80030345916748
1700935928136092400,20.289092529296877,1.3096973896026611,-4.133091926574707,8.799907684326172
1700935928153093600,20.30609375,1.3145647048950195,-4.13500452041626,8.798282623291016
1700935928170086400,20.32308642578125,1.320160150527954,-4.137566089630127,8.79624080657959
1700935928187079400,20.340079345703124,1.3232808113098145,-4.138421058654785,8.795369148254395
1700935928204073000,20.357072998046874,1.3221417665481567,-4.13717794418335,8.796124458312988
1700935928221066000,20.37406591796875,1.321040391921997,-4.139082908630371,8.795393943786621
1700935928238059000,20.39105908203125,1.3216923475265503,-4.145675182342529,8.792190551757812
1700935928255051800,20.4080517578125,1.320036768913269,-4.157312870025635,8.786942481994629
1700935928272034300,20.425034423828127,1.3133586645126343,-4.172837734222412,8.780582427978516
1700935928289037800,20.442037841796875,1.300979495048523,-4.188482284545898,8.774974822998047
1700935928306032000,20.4590322265625,1.284206748008728,-4.199779033660889,8.772045135498047
1700935928323023000,20.476023193359374,1.2669384479522705,-4.203542232513428,8.772753715515137
1700935928340018400,20.493018310546876,1.2495906352996826,-4.2002339363098145,8.776825904846191
1700935928357006600,20.510006591796873,1.2323436737060547,-4.191293239593506,8.783536911010742
1700935928374005500,20.527005615234376,1.2180110216140747,-4.178111553192139,8.7918119430542
1700935928390996200,20.543996337890626,1.209565281867981,-4.16227912902832,8.800484657287598
1700935928407989200,20.5609892578125,1.2074737548828125,-4.142920970916748,8.809901237487793
1700935928424982000,20.57798193359375,1.2099988460540771,-4.11985445022583,8.820364952087402
1700935928441975300,20.594975341796875,1.2149581909179688,-4.0931925773620605,8.832088470458984
1700935928458968600,20.611968505859377,1.2207545042037964,-4.066402435302734,8.843655586242676
1700935928475951400,20.628951416015624,1.2298928499221802,-4.042069911956787,8.85353946685791
1700935928492954400,20.645954345703124,1.2416197061538696,-4.021557331085205,8.861239433288574
1700935928509943600,20.662943603515625,1.2537466287612915,-4.007721424102783,8.865798950195312
1700935928526944500,20.679944580078125,1.2642627954483032,-4.0027756690979,8.866540908813477
1700935928543933700,20.69693359375,1.2714247703552246,-4.006624698638916,8.863778114318848
1700935928560926700,20.7139267578125,1.2751303911209106,-4.016737461090088,8.85866641998291
1700935928577919500,20.73091943359375,1.2752310037612915,-4.030952453613281,8.852192878723145
1700935928594912800,20.747912841796875,1.2715884447097778,-4.046111106872559,8.845799446105957
1700935928611905500,20.764905517578125,1.2666420936584473,-4.059853553771973,8.8402099609375
1700935928628898800,20.78189892578125,1.260460615158081,-4.072848320007324,8.835115432739258
1700935928645891800,20.798891845703125,1.2528680562973022,-4.08374547958374,8.83116340637207
1700935928662884900,20.815884765625,1.2440515756607056,-4.089831829071045,8.829594612121582
1700935928679878000,20.8328779296875,1.235369324684143,-4.090695858001709,8.830411911010742
1700935928696870700,20.84987060546875,1.2302030324935913,-4.087378025054932,8.832669258117676
1700935928713863700,20.86686376953125,1.2307956218719482,-4.08230447769165,8.834933280944824
1700935928730857200,20.883857177734374,1.2350975275039673,-4.076664924621582,8.836936950683594
1700935928747847700,20.90084765625,1.2395706176757812,-4.072116851806641,8.838407516479492
1700935928764845600,20.917845458984374,1.2412817478179932,-4.071276664733887,8.838554382324219
1700935928781836300,20.934836181640627,1.2416068315505981,-4.071836471557617,8.838252067565918
1700935928798820400,20.9518203125,1.2410686016082764,-4.071445465087891,8.838505744934082
1700935928815822000,20.968822021484375,1.241146445274353,-4.071699142456055,8.83837890625
1700935928832815000,20.985815185546876,1.2398425340652466,-4.075990200042725,8.836583137512207
1700935928849808400,21.002808349609374,1.2348449230194092,-4.085764408111572,8.832768440246582
1700935928866801200,21.01980126953125,1.2266485691070557,-4.100100040435791,8.827266693115234
1700935928883794200,21.036794189453126,1.215715765953064,-4.115716457366943,8.821510314941406
1700935928900787500,21.053787353515624,1.2019586563110352,-4.127170085906982,8.81804084777832
1700935928917780500,21.070780517578125,1.1870064735412598,-4.13392972946167,8.816901206970215
1700935928934773500,21.0877734375,1.1743144989013672,-4.138338565826416,8.816533088684082
1700935928951766300,21.104766357421877,1.165239930152893,-4.141698360443115,8.816158294677734
1700935928968748800,21.121748779296876,1.159569263458252,-4.145550727844238,8.815095901489258
1700935928985752600,21.138752685546876,1.158600091934204,-4.151221752166748,8.812555313110352
1700935929002745600,21.15574560546875,1.1592248678207397,-4.157831192016602,8.809354782104492
1700935929019724800,21.172724853515625,1.159821629524231,-4.16323184967041,8.806727409362793
1700935929036732000,21.18973193359375,1.1598669290542603,-4.166021823883057,8.805401802062988
1700935929053725000,21.206724853515624,1.1611831188201904,-4.167357921600342,8.804595947265625
1700935929070718000,21.223718017578125,1.165220856666565,-4.169719696044922,8.80294418334961
1700935929087710700,21.240710693359375,1.1687297821044922,-4.173396587371826,8.800735473632812
1700935929104704000,21.2577041015625,1.1734797954559326,-4.17880916595459,8.79753303527832
1700935929121696800,21.27469677734375,1.1803470849990845,-4.185088157653809,8.79362964630127
1700935929138687500,21.2916875,1.1872637271881104,-4.190858840942383,8.789949417114258
1700935929155685600,21.308685546875,1.1939977407455444,-4.194016933441162,8.787530899047852
1700935929172676000,21.325676025390624,1.199719786643982,-4.19546365737915,8.786063194274902
1700935929189669400,21.34266943359375,1.205951452255249,-4.196556091308594,8.784687995910645
1700935929206662100,21.359662109375,1.2109019756317139,-4.1982903480529785,8.783177375793457
1700935929223652400,21.37665234375,1.2148213386535645,-4.200517177581787,8.781570434570312
1700935929240651000,21.393651123046876,1.2189457416534424,-4.202072620391846,8.780254364013672
1700935929257641200,21.41064111328125,1.2227721214294434,-4.203166961669922,8.77919864654541
1700935929274618400,21.427618408203124,1.224958062171936,-4.202058792114258,8.779423713684082
1700935929291627300,21.444627197265625,1.2263319492340088,-4.1998443603515625,8.780292510986328
1700935929308620500,21.46162060546875,1.2265640497207642,-4.198214054107666,8.781039237976074
1700935929325613600,21.478613525390625,1.2242531776428223,-4.198801040649414,8.781081199645996
1700935929342596400,21.495596435546876,1.2197412252426147,-4.20060920715332,8.780844688415527
1700935929359588900,21.5125888671875,1.2165656089782715,-4.203309535980225,8.779993057250977
1700935929376593000,21.529593017578126,1.2139145135879517,-4.204512119293213,8.779784202575684
1700935929393585400,21.54658544921875,1.2097781896591187,-4.202800273895264,8.78117561340332
1700935929410578700,21.56357861328125,1.2059216499328613,-4.201392650604248,8.782378196716309
1700935929427571700,21.58057177734375,1.2011470794677734,-4.204128265380859,8.781723976135254
1700935929444564700,21.597564697265625,1.193844199180603,-4.211803436279297,8.779041290283203
1700935929461557800,21.614557861328127,1.185005784034729,-4.221654415130615,8.775506973266602
1700935929478550500,21.631550537109376,1.1759833097457886,-4.227531433105469,8.773890495300293
1700935929495544000,21.6485439453125,1.168936848640442,-4.225574016571045,8.775774955749512
1700935929512537000,21.665537109375,1.1626689434051514,-4.215458869934082,8.781469345092773
1700935929529529900,21.68252978515625,1.1553364992141724,-4.19951868057251,8.790071487426758
1700935929546520300,21.699520263671875,1.1476167440414429,-4.184136867523193,8.798413276672363
1700935929563516200,21.71651611328125,1.1405953168869019,-4.172966003417969,8.804630279541016
1700935929580511700,21.73351171875,1.1355608701705933,-4.165791988372803,8.808677673339844
1700935929597502200,21.750502197265625,1.1322312355041504,-4.159374237060547,8.81213665008545
1700935929614495000,21.767494873046875,1.1287460327148438,-4.152303218841553,8.815919876098633
1700935929631488300,21.78448828125,1.1257139444351196,-4.141629695892334,8.821325302124023
1700935929648481300,21.801481201171875,1.1243895292282104,-4.128200054168701,8.827788352966309
1700935929665474000,21.81847412109375,1.1254726648330688,-4.115611553192139,8.833525657653809
1700935929682456800,21.835456787109376,1.1273791790008545,-4.105318546295166,8.838071823120117
1700935929699460600,21.852460693359376,1.1289254426956177,-4.097477912902832,8.841510772705078
1700935929716453600,21.86945361328125,1.1298189163208008,-4.090881824493408,8.844450950622559
1700935929733446700,21.88644677734375,1.1292178630828857,-4.086280822753906,8.846654891967773
1700935929750421200,21.903421142578125,1.1280808448791504,-4.083722114562988,8.847980499267578
1700935929767432400,21.920432373046875,1.1281425952911377,-4.082873821258545,8.848363876342773
1700935929784425700,21.93742578125,1.1290020942687988,-4.082871437072754,8.848257064819336
1700935929801418800,21.954418701171875,1.1290429830551147,-4.084433555603027,8.847530364990234
