time,seconds_elapsed,z,y,x
1700935816204017200,0.10601708984375,8.72787857055664,4.411273956298828,-0.7751826643943787
1700935816221013500,0.123013427734375,8.73645305633545,4.4197998046875,-0.6130787134170532
1700935816237990100,0.139990234375,8.740965843200684,4.427692413330078,-0.4766124188899994
1700935816254994000,0.156993896484375,8.7382173538208,4.439737796783447,-0.4103715121746063
1700935816271978800,0.173978759765625,8.733075141906738,4.448250770568848,-0.4273056089878082
1700935816288973800,0.190973876953125,8.73456859588623,4.434223175048828,-0.5301774740219116
1700935816305972500,0.207972412109375,8.747912406921387,4.377365589141846,-0.7408233880996704
1700935816322963500,0.22496337890625,8.767782211303711,4.279271125793457,-1.0246708393096924
1700935816339954200,0.2419541015625,8.811798095703125,4.147397041320801,-1.1778919696807861
1700935816356948200,0.2589482421875,8.864511489868164,4.026856422424316,-1.2004061937332153
1700935816373941500,0.27594140625,8.904397964477539,3.9666712284088135,-1.10150945186615
1700935816390930400,0.292930419921875,8.928811073303223,3.9561805725097656,-0.9279419183731079
1700935816407925200,0.30992529296875,8.951020240783691,3.944528102874756,-0.7456833124160767
1700935816424916500,0.32691650390625,8.97042179107666,3.9229118824005127,-0.6151407361030579
1700935816441912000,0.343912109375,8.972018241882324,3.921593189239502,-0.6000848412513733
1700935816458900200,0.360900146484375,8.953022956848145,3.962151050567627,-0.6171378493309021
1700935816475894000,0.37789404296875,8.918577194213867,4.038597106933594,-0.620333194732666
1700935816492890000,0.39489013671875,8.886162757873535,4.112260818481445,-0.6012797355651855
1700935816509876500,0.41187646484375,8.872788429260254,4.144172668457031,-0.5792706608772278
1700935816526872000,0.4288720703125,8.88469123840332,4.119246006011963,-0.5746228694915771
1700935816543851000,0.44585107421875,8.914713859558105,4.051746845245361,-0.5893524289131165
1700935816560847400,0.462847412109375,8.946746826171875,3.974137544631958,-0.6309249997138977
1700935816577849000,0.47984912109375,8.976785659790039,3.8995201587677,-0.6687119007110596
1700935816594841900,0.496841796875,9.00229549407959,3.8341732025146484,-0.7027818560600281
1700935816611834600,0.513834716796875,9.02910041809082,3.7669782638549805,-0.7220354080200195
1700935816628824300,0.53082421875,9.059991836547852,3.6947312355041504,-0.7082516551017761
1700935816645817900,0.54781787109375,9.08162784576416,3.6402807235717773,-0.7130959033966064
1700935816662811600,0.564811767578125,9.08522891998291,3.6257429122924805,-0.7407479882240295
1700935816679801600,0.581801513671875,9.071809768676758,3.6574063301086426,-0.7495056390762329
1700935816696796000,0.5987958984375,9.055874824523926,3.704444646835327,-0.7101573944091797
1700935816713789200,0.6157890625,9.048514366149902,3.730137825012207,-0.6682499647140503
1700935816730778600,0.632778564453125,9.048164367675781,3.7280895709991455,-0.6842336058616638
1700935816747773000,0.64977294921875,9.046329498291016,3.7198684215545654,-0.7500777840614319
1700935816764765700,0.666765625,9.03549861907959,3.727318286895752,-0.8384305238723755
1700935816781758700,0.6837587890625,9.015503883361816,3.757786273956299,-0.9142449498176575
1700935816798748000,0.700747802734375,8.993277549743652,3.801912784576416,-0.950020968914032
1700935816815725300,0.717725341796875,8.990461349487305,3.816765546798706,-0.9165237545967102
1700935816832734000,0.73473388671875,8.995832443237305,3.8105359077453613,-0.8893422484397888
1700935816849719800,0.7517197265625,8.989884376525879,3.8299036026000977,-0.8659903407096863
1700935816866720000,0.768719970703125,8.971863746643066,3.876023530960083,-0.8474687337875366
1700935816883710500,0.78571044921875,8.955711364746094,3.922283887863159,-0.8043903708457947
1700935816900705000,0.802705078125,8.953298568725586,3.941652297973633,-0.7334418892860413
1700935816917691100,0.819691162109375,8.962285995483398,3.9366118907928467,-0.6454707980155945
1700935816934691300,0.83669140625,8.966007232666016,3.9410738945007324,-0.5610334873199463
1700935816951672600,0.853672607421875,8.96103286743164,3.9608166217803955,-0.4979313611984253
1700935816968664600,0.87066455078125,8.949707984924316,3.9892737865448,-0.47383585572242737
1700935816985667000,0.8876669921875,8.939231872558594,4.010384559631348,-0.49300727248191833
1700935817002667000,0.9046669921875,8.932818412780762,4.017078876495361,-0.5513092875480652
1700935817019651600,0.921651611328125,8.927350044250488,4.020514011383057,-0.611560046672821
1700935817036643800,0.938643798828125,8.921480178833008,4.028573989868164,-0.6433400511741638
1700935817053636900,0.955636962890625,8.915938377380371,4.041259765625,-0.6406008005142212
1700935817070626800,0.972626708984375,8.911347389221191,4.053359508514404,-0.6279175877571106
1700935817087621000,0.98962109375,8.912115097045898,4.048913478851318,-0.6454557180404663
1700935817104613400,1.00661328125,8.92109489440918,4.0188775062561035,-0.7062612175941467
1700935817121606700,1.023606689453125,8.938931465148926,3.9654526710510254,-0.7789694666862488
1700935817138596400,1.040596435546875,8.959799766540527,3.909209966659546,-0.8222970366477966
1700935817155579100,1.0575791015625,8.976901054382324,3.8691468238830566,-0.8252629041671753
1700935817172582400,1.07458251953125,8.987000465393066,3.8503165245056152,-0.8031162619590759
1700935817189565000,1.09156494140625,8.992480278015137,3.842902660369873,-0.7768526077270508
1700935817206568000,1.10856787109375,8.996665954589844,3.8355555534362793,-0.764613687992096
1700935817223561000,1.12556103515625,9.003504753112793,3.81888747215271,-0.7675346732139587
1700935817240550100,1.142550048828125,9.019003868103027,3.7823829650878906,-0.766322672367096
1700935817257534500,1.159534423828125,9.040753364562988,3.737276077270508,-0.7305201888084412
1700935817274539800,1.176539794921875,9.058201789855957,3.7101030349731445,-0.6482435464859009
1700935817291528200,1.193528076171875,9.067056655883789,3.7086403369903564,-0.5201702117919922
1700935817308520000,1.21052001953125,9.066226959228516,3.727355718612671,-0.3826994001865387
1700935817325514000,1.227513916015625,9.056717872619629,3.762737274169922,-0.23189882934093475
1700935817342498300,1.244498291015625,9.043557167053223,3.801053524017334,-0.04670785367488861
1700935817359496000,1.261495849609375,9.021665573120117,3.8460137844085693,0.23202966153621674
1700935817376490500,1.278490478515625,8.993905067443848,3.877671957015991,0.5562690496444702
1700935817393486300,1.295486328125,8.921895980834961,3.953918933868408,1.001201868057251
1700935817410474500,1.312474609375,8.7770414352417,4.0995259284973145,1.5471051931381226
1700935817427474200,1.32947412109375,8.622222900390625,4.186618804931641,2.089401960372925
1700935817444461600,1.346461669921875,8.541749000549316,4.120063781738281,2.5099217891693115
1700935817461452300,1.363452392578125,8.59389591217041,3.8796699047088623,2.7072548866271973
1700935817478445800,1.38044580078125,8.726258277893066,3.5249061584472656,2.7683165073394775
1700935817495439400,1.397439453125,8.840542793273926,3.187830686569214,2.814007520675659
1700935817512429300,1.41442919921875,8.876341819763184,2.9688384532928467,2.938138961791992
1700935817529421800,1.431421875,8.80988883972168,2.907381534576416,3.18890118598938
1700935817546417400,1.44841748046875,8.65324592590332,2.922677993774414,3.579859972000122
1700935817563409000,1.465408935546875,8.458151817321777,2.876821756362915,4.052117824554443
1700935817580398000,1.482398193359375,8.278735160827637,2.7160472869873047,4.507965087890625
1700935817597395200,1.499395263671875,8.128454208374023,2.4784629344940186,4.901178359985352
1700935817614385700,1.5163857421875,7.936416149139404,2.2338714599609375,5.315941333770752
1700935817631367700,1.53336767578125,7.6205244064331055,2.039597749710083,5.831274509429932
1700935817648365600,1.550365478515625,7.18333101272583,1.8656013011932373,6.415247917175293
1700935817665359600,1.567359619140625,6.725395202636719,1.6157722473144531,6.9566121101379395
1700935817682358000,1.58435791015625,6.325531005859375,1.2430689334869385,7.394494533538818
1700935817699344400,1.601344482421875,5.972877025604248,0.7889902591705322,7.741986274719238
1700935817716329200,1.6183291015625,5.599457740783691,0.3160583972930908,8.048745155334473
1700935817733322200,1.635322265625,5.171172618865967,-0.10285399109125137,8.335737228393555
1700935817750322400,1.652322509765625,4.716185092926025,-0.4469655752182007,8.590338706970215
1700935817767312000,1.669311767578125,4.2934722900390625,-0.7936888337135315,8.784773826599121
1700935817784309800,1.686309814453125,3.9207191467285156,-1.1858062744140625,8.913918495178223
1700935817801296400,1.70329638671875,3.5887837409973145,-1.629090428352356,8.983474731445312
1700935817818297000,1.720297119140625,3.273451328277588,-2.0888254642486572,9.008742332458496
1700935817835285500,1.737285400390625,2.9594430923461914,-2.5363597869873047,9.002483367919922
1700935817852281000,1.754281005859375,2.634692668914795,-2.9630661010742188,8.973001480102539
1700935817869261000,1.771260986328125,2.347362518310547,-3.373835563659668,8.907483100891113
1700935817886263800,1.788263916015625,2.0908472537994385,-3.763145685195923,8.814942359924316
1700935817903256600,1.805256591796875,1.8871766328811646,-4.102658748626709,8.708781242370605
1700935817920246000,1.82224609375,1.7700750827789307,-4.412139415740967,8.581140518188477
1700935817937240600,1.839240478515625,1.6926108598709106,-4.681211471557617,8.453250885009766
1700935817954233300,1.8562333984375,1.6162015199661255,-4.901815891265869,8.34243392944336
1700935817971223300,1.873223388671875,1.5565271377563477,-5.078452110290527,8.247584342956543
1700935817988219100,1.89021923828125,1.5286756753921509,-5.224292278289795,8.161252975463867
1700935818005208800,1.907208740234375,1.5434589385986328,-5.3530354499816895,8.07458209991455
1700935818022198800,1.92419873046875,1.6039880514144897,-5.463394641876221,7.988408088684082
1700935818039189800,1.941189697265625,1.6930406093597412,-5.5438432693481445,7.914261817932129
1700935818056190000,1.95818994140625,1.785955548286438,-5.593474388122559,7.858721733093262
1700935818073181000,1.975180908203125,1.8704646825790405,-5.624332904815674,7.816926002502441
1700935818090170400,1.99217041015625,1.9400819540023804,-5.656052112579346,7.776971340179443
1700935818107171800,2.009171875,1.9913936853408813,-5.696864128112793,7.734095573425293
1700935818124161500,2.02616162109375,2.027625322341919,-5.734258651733398,7.696955680847168
1700935818141144600,2.04314453125,2.051168441772461,-5.754256725311279,7.675764083862305
1700935818158144800,2.060144775390625,2.061782121658325,-5.747354030609131,7.678091049194336
1700935818175132200,2.077132080078125,2.050468921661377,-5.715184211730957,7.705087661743164
1700935818192127700,2.094127685546875,2.0219991207122803,-5.677577495574951,7.74033260345459
1700935818209117000,2.111116943359375,1.9888883829116821,-5.648379802703857,7.7702155113220215
1700935818226112800,2.12811279296875,1.959413766860962,-5.620029449462891,7.798211574554443
1700935818243102000,2.14510205078125,1.9465893507003784,-5.573487758636475,7.834738731384277
1700935818260097000,2.162096923828125,1.9486794471740723,-5.508434772491455,7.8800950050354
1700935818277087500,2.17908740234375,1.9562419652938843,-5.425363063812256,7.935657978057861
1700935818294083300,2.196083251953125,1.9569875001907349,-5.335913181304932,7.995894432067871
1700935818311070500,2.213070556640625,1.9480242729187012,-5.2524871826171875,8.053117752075195
1700935818328067000,2.230067138671875,1.936006784439087,-5.178753852844238,8.10361099243164
1700935818345046500,2.247046630859375,1.923709750175476,-5.111145496368408,8.149333953857422
1700935818362052900,2.264052978515625,1.9106649160385132,-5.042713165283203,8.194908142089844
1700935818379040300,2.281040283203125,1.8955714702606201,-4.968023777008057,8.243886947631836
1700935818396035800,2.298035888671875,1.8786358833312988,-4.888270378112793,8.295278549194336
1700935818413028900,2.31502880859375,1.8679051399230957,-4.802791118621826,8.347469329833984
1700935818430018600,2.3320185546875,1.8568596839904785,-4.724874973297119,8.394268035888672
1700935818447012000,2.34901220703125,1.844597578048706,-4.650345325469971,8.438474655151367
1700935818464007200,2.366007080078125,1.8371926546096802,-4.5870256423950195,8.47467041015625
1700935818480994300,2.382994384765625,1.8278697729110718,-4.531867027282715,8.506302833557129
1700935818497984500,2.399984619140625,1.8149445056915283,-4.4752326011657715,8.53899097442627
1700935818514980600,2.416980712890625,1.8006627559661865,-4.41790771484375,8.571803092956543
1700935818531977700,2.433977783203125,1.7885271310806274,-4.36851692199707,8.599613189697266
1700935818548964000,2.450964111328125,1.7834452390670776,-4.334305286407471,8.617959022521973
1700935818565960000,2.4679599609375,1.7881324291229248,-4.312238693237305,8.628053665161133
1700935818582949600,2.48494970703125,1.7969707250595093,-4.2972822189331055,8.63367748260498
1700935818599942700,2.501942626953125,1.8025954961776733,-4.2880167961120605,8.637109756469727
1700935818616927500,2.518927490234375,1.8000768423080444,-4.283170223236084,8.640039443969727
1700935818633932800,2.535932861328125,1.7937703132629395,-4.28237771987915,8.641744613647461
1700935818650918400,2.55291845703125,1.7960588932037354,-4.289156913757324,8.63790512084961
1700935818667914200,2.569914306640625,1.8051609992980957,-4.309149265289307,8.626051902770996
1700935818684903400,2.5869033203125,1.8116817474365234,-4.342588901519775,8.607893943786621
1700935818701900000,2.603900146484375,1.8102723360061646,-4.38336181640625,8.58750057220459
1700935818718888700,2.620888671875,1.7972148656845093,-4.425305366516113,8.568711280822754
1700935818735873300,2.637873291015625,1.773575782775879,-4.467399597167969,8.551776885986328
1700935818752873500,2.65487353515625,1.747941017150879,-4.514105796813965,8.532505989074707
1700935818769863000,2.67186279296875,1.7313705682754517,-4.5760040283203125,8.502861976623535
1700935818786860300,2.6888603515625,1.7263858318328857,-4.656371116638184,8.460138320922852
1700935818803855000,2.705855224609375,1.7232478857040405,-4.7445902824401855,8.411622047424316
1700935818820842500,2.722842529296875,1.7085330486297607,-4.827529430389404,8.367316246032715
1700935818837839400,2.73983935546875,1.6821414232254028,-4.900108814239502,8.330392837524414
1700935818854829600,2.75682958984375,1.651200532913208,-4.964404582977295,8.298454284667969
1700935818871814400,2.773814453125,1.623853087425232,-5.0221943855285645,8.269026756286621
1700935818888809500,2.7908095703125,1.6052367687225342,-5.072934627532959,8.241641998291016
1700935818905810400,2.807810546875,1.5916571617126465,-5.114701271057129,8.218429565429688
1700935818922784000,2.824783935546875,1.57791268825531,-5.143253803253174,8.203246116638184
1700935818939786800,2.841786865234375,1.5654634237289429,-5.154348850250244,8.198665618896484
1700935818956786700,2.85878662109375,1.555920124053955,-5.1471428871154785,8.205007553100586
1700935818973779500,2.875779541015625,1.5491447448730469,-5.125159740447998,8.220037460327148
1700935818990766600,2.8927666015625,1.5452173948287964,-5.089923858642578,8.242639541625977
1700935819007763200,2.90976318359375,1.5430819988250732,-5.045612812042236,8.270236015319824
1700935819024754000,2.92675390625,1.5395158529281616,-4.997162342071533,8.300264358520508
1700935819041749200,2.943749267578125,1.5362396240234375,-4.946704864501953,8.331038475036621
1700935819058736000,2.960736083984375,1.5328242778778076,-4.893475532531738,8.363040924072266
1700935819075732200,2.977732177734375,1.5291802883148193,-4.8375115394592285,8.396201133728027
1700935819092722400,2.994722412109375,1.5300538539886475,-4.781900882720947,8.427839279174805
1700935819109718500,3.011718505859375,1.542343258857727,-4.728570938110352,8.455644607543945
1700935819126708200,3.028708251953125,1.5633107423782349,-4.678378582000732,8.4796781539917
1700935819143703600,3.04570361328125,1.5830954313278198,-4.6306471824646,8.502178192138672
1700935819160688400,3.0626884765625,1.5980242490768433,-4.583146095275879,8.525093078613281
1700935819177677000,3.079677001953125,1.610080361366272,-4.536803722381592,8.547581672668457
1700935819194679000,3.096678955078125,1.6291342973709106,-4.494078159332275,8.566520690917969
1700935819211671000,3.113671142578125,1.6571650505065918,-4.457059383392334,8.580473899841309
1700935819228666400,3.130666259765625,1.6891931295394897,-4.425611972808838,8.590500831604004
1700935819245656300,3.14765625,1.7177915573120117,-4.398292541503906,8.598856925964355
1700935819262648300,3.1646484375,1.737972617149353,-4.374547004699707,8.60690975189209
1700935819279641900,3.181641845703125,1.7501541376113892,-4.358315467834473,8.612675666809082
1700935819296633600,3.198633544921875,1.7568817138671875,-4.353249549865723,8.61386775970459
1700935819313627000,3.215626953125,1.7611408233642578,-4.3577399253845215,8.610726356506348
1700935819330618000,3.2326181640625,1.7658129930496216,-4.366209506988525,8.605477333068848
1700935819347611600,3.249611572265625,1.7717739343643188,-4.375555992126465,8.599501609802246
1700935819364601900,3.266601806640625,1.7727183103561401,-4.38401985168457,8.594995498657227
1700935819381590300,3.28359033203125,1.7701832056045532,-4.390375137329102,8.59227466583252
1700935819398585000,3.300585205078125,1.7657753229141235,-4.397713661193848,8.589427947998047
1700935819415584000,3.317583984375,1.762290358543396,-4.412214279174805,8.582703590393066
1700935819432573000,3.334572998046875,1.7623181343078613,-4.4360480308532715,8.570405006408691
1700935819449559000,3.35155908203125,1.7631534337997437,-4.464033126831055,8.555689811706543
1700935819466557400,3.368557373046875,1.7633881568908691,-4.494765281677246,8.539534568786621
1700935819483551200,3.38555126953125,1.7626627683639526,-4.529325008392334,8.521404266357422
1700935819500542200,3.402542236328125,1.7604762315750122,-4.563824653625488,8.503430366516113
1700935819517537500,3.41953759765625,1.7531239986419678,-4.597509384155273,8.486788749694824
1700935819534525400,3.436525390625,1.738840937614441,-4.630875587463379,8.471572875976562
1700935819551525600,3.453525634765625,1.7202119827270508,-4.664659023284912,8.456828117370605
1700935819568512000,3.470511962890625,1.7008837461471558,-4.6990532875061035,8.441683769226074
1700935819585503000,3.4875029296875,1.6825377941131592,-4.729012966156006,8.428619384765625
1700935819602499300,3.504499267578125,1.6674479246139526,-4.754483699798584,8.417282104492188
1700935819619490300,3.521490234375,1.654045820236206,-4.78114652633667,8.404812812805176
1700935819636481800,3.538481689453125,1.6393327713012695,-4.809157848358154,8.391705513000488
1700935819653463800,3.5554638671875,1.623602032661438,-4.836078643798828,8.37928295135498
1700935819670455800,3.572455810546875,1.6079849004745483,-4.858987808227539,8.369034767150879
1700935819687451000,3.589450927734375,1.5925883054733276,-4.872109413146973,8.364348411560059
1700935819704440800,3.60644091796875,1.578481912612915,-4.875516414642334,8.36503791809082
1700935819721434400,3.623434326171875,1.5681835412979126,-4.875809192657471,8.366803169250488
1700935819738429700,3.6404296875,1.5653605461120605,-4.876721382141113,8.366801261901855
1700935819755420000,3.657419921875,1.5719619989395142,-4.8807477951049805,8.363215446472168
1700935819772412400,3.674412353515625,1.5812345743179321,-4.888438701629639,8.356971740722656
1700935819789405400,3.691405517578125,1.585960865020752,-4.895595073699951,8.351885795593262
1700935819806400800,3.70840087890625,1.5831199884414673,-4.897120952606201,8.351530075073242
1700935819823391500,3.7253916015625,1.5767263174057007,-4.892209053039551,8.35561752319336
1700935819840381200,3.742381103515625,1.5713098049163818,-4.883066654205322,8.361983299255371
1700935819857376000,3.7593759765625,1.574434757232666,-4.873219966888428,8.367137908935547
1700935819874367500,3.776367431640625,1.5878257751464844,-4.863611698150635,8.370198249816895
1700935819891359000,3.79335888671875,1.6016827821731567,-4.854351043701172,8.372934341430664
1700935819908350000,3.810349853515625,1.6105103492736816,-4.84618616104126,8.375967979431152
1700935819925344500,3.827344482421875,1.6153056621551514,-4.837338447570801,8.380159378051758
1700935819942337000,3.8443369140625,1.6180827617645264,-4.825342655181885,8.386536598205566
1700935819959338800,3.8613388671875,1.6199703216552734,-4.809061050415039,8.395519256591797
1700935819976330000,3.878330078125,1.622268795967102,-4.789860248565674,8.406044960021973
1700935819993312800,3.895312744140625,1.6259320974349976,-4.772479057312012,8.415218353271484
1700935820010310400,3.912310302734375,1.6286568641662598,-4.758372783660889,8.422676086425781
1700935820027297000,3.929297119140625,1.6286749839782715,-4.746148586273193,8.42956829071045
1700935820044299500,3.946299560546875,1.6253743171691895,-4.733940124511719,8.437066078186035
1700935820061293000,3.96329296875,1.6220612525939941,-4.720301151275635,8.445341110229492
1700935820078284300,3.9802841796875,1.6189908981323242,-4.708009243011475,8.452788352966309
1700935820095278000,3.997278076171875,1.6170040369033813,-4.698932647705078,8.458216667175293
1700935820112269300,4.014269287109375,1.6165388822555542,-4.694386005401611,8.460831642150879
1700935820129262800,4.031262939453125,1.6153662204742432,-4.693426132202148,8.461586952209473
1700935820146254300,4.04825439453125,1.615013837814331,-4.696177005767822,8.460128784179688
1700935820163247600,4.06524755859375,1.6134834289550781,-4.7009382247924805,8.457776069641113
1700935820180238800,4.08223876953125,1.6101884841918945,-4.706617832183838,8.455244064331055
1700935820197229800,4.099229736328125,1.6070563793182373,-4.710322380065918,8.453778266906738
1700935820214226400,4.116226318359375,1.6025526523590088,-4.713424205780029,8.452902793884277
1700935820231217400,4.133217529296875,1.6020734310150146,-4.719688892364502,8.449499130249023
1700935820248208600,4.150208740234375,1.6106524467468262,-4.728389739990234,8.442999839782715
1700935820265191200,4.167191162109375,1.6166025400161743,-4.738737106323242,8.43605899810791
1700935820282194400,4.1841943359375,1.617342233657837,-4.753600120544434,8.427550315856934
1700935820299187000,4.20118701171875,1.6198688745498657,-4.771754264831543,8.41679859161377
1700935820316168200,4.218168212890625,1.6222995519638062,-4.786942481994629,8.40770149230957
1700935820333171700,4.235171630859375,1.6227351427078247,-4.796358585357666,8.402249336242676
1700935820350152700,4.252152587890625,1.621322512626648,-4.801750183105469,8.399443626403809
1700935820367156700,4.26915673828125,1.6238045692443848,-4.806748390197754,8.396101951599121
1700935820384148000,4.28614794921875,1.6260236501693726,-4.811224460601807,8.393109321594238
1700935820401141800,4.303141845703125,1.622915506362915,-4.814145565032959,8.392035484313965
1700935820418132700,4.3201328125,1.621564507484436,-4.816984176635742,8.390667915344238
1700935820435126500,4.33712646484375,1.6283835172653198,-4.821126461029053,8.386968612670898
1700935820452117800,4.35411767578125,1.6346582174301147,-4.82411003112793,8.384031295776367
1700935820469111000,4.371111083984375,1.6337971687316895,-4.823348522186279,8.384635925292969
1700935820486102500,4.3881025390625,1.629380226135254,-4.821714401245117,8.386436462402344
1700935820503097900,4.405097900390625,1.6272112131118774,-4.818979263305664,8.388427734375
1700935820520086000,4.4220859375,1.6252632141113281,-4.814723968505859,8.391250610351562
1700935820537081000,4.4390810546875,1.6215741634368896,-4.811714172363281,8.39369010925293
1700935820554072300,4.456072265625,1.627891182899475,-4.812984466552734,8.391737937927246
1700935820571065900,4.47306591796875,1.6385223865509033,-4.816194534301758,8.387826919555664
1700935820588057000,4.49005712890625,1.6433656215667725,-4.817598819732666,8.386073112487793
1700935820605050600,4.507050537109375,1.6406924724578857,-4.8165130615234375,8.387219429016113
1700935820622042000,4.5240419921875,1.6378847360610962,-4.815688610076904,8.388240814208984
1700935820639035400,4.541035400390625,1.6379016637802124,-4.813504219055176,8.389491081237793
1700935820656027600,4.558027587890625,1.6357256174087524,-4.810251235961914,8.3917818069458
1700935820673016000,4.57501611328125,1.6312755346298218,-4.80659818649292,8.394740104675293
1700935820690015500,4.592015380859375,1.63204824924469,-4.802443027496338,8.396967887878418
1700935820706994700,4.60899462890625,1.6377432346343994,-4.797276020050049,8.398811340332031
1700935820723996400,4.625996337890625,1.6417467594146729,-4.79136323928833,8.401405334472656
1700935820740989000,4.642989013671875,1.643275499343872,-4.7876996994018555,8.403196334838867
1700935820757982200,4.659982177734375,1.6464710235595703,-4.786437511444092,8.403289794921875
1700935820774974700,4.676974609375,1.6468393802642822,-4.786961078643799,8.402917861938477
1700935820791966200,4.69396630859375,1.6429188251495361,-4.789531230926514,8.402220726013184
1700935820808959700,4.710959716796875,1.638405442237854,-4.796322822570801,8.399229049682617
1700935820825950700,4.72795068359375,1.6353548765182495,-4.805057525634766,8.394828796386719
1700935820842943700,4.74494384765625,1.6344050168991089,-4.8109612464904785,8.391633033752441
1700935820859937000,4.76193701171875,1.6370164155960083,-4.812551021575928,8.390212059020996
1700935820876929500,4.778929443359375,1.641111135482788,-4.81205940246582,8.389693260192871
1700935820893920800,4.795920654296875,1.6423320770263672,-4.812300682067871,8.389315605163574
1700935820910903800,4.81290380859375,1.6409577131271362,-4.814043998718262,8.388585090637207
1700935820927905500,4.829905517578125,1.6395608186721802,-4.817108154296875,8.38709831237793
1700935820944898800,4.84689892578125,1.63973069190979,-4.822024822235107,8.38424015045166
1700935820961881600,4.863881591796875,1.6386460065841675,-4.828541278839111,8.380701065063477
1700935820978884000,4.880884033203125,1.6379294395446777,-4.836390018463135,8.376313209533691
1700935820995875300,4.897875244140625,1.6354963779449463,-4.844142913818359,8.372308731079102
1700935821012870700,4.91487060546875,1.632933259010315,-4.850805282592773,8.368950843811035
1700935821029858600,4.931858642578125,1.634039282798767,-4.85657262802124,8.365389823913574
1700935821046853600,4.948853515625,1.633657455444336,-4.860867023468018,8.362968444824219
1700935821063845000,4.96584521484375,1.6299535036087036,-4.863712787628174,8.362035751342773
1700935821080838100,4.982838134765625,1.6308618783950806,-4.866591453552246,8.360185623168945
1700935821097827000,4.9998271484375,1.6342039108276367,-4.8676276206970215,8.358929634094238
1700935821114815500,5.0168154296875,1.633884310722351,-4.865437030792236,8.360267639160156
1700935821131814700,5.033814697265625,1.6280479431152344,-4.86161994934082,8.363626480102539
1700935821148808200,5.05080810546875,1.6238071918487549,-4.859029293060303,8.365955352783203
1700935821165799700,5.067799560546875,1.6216332912445068,-4.858312129974365,8.366793632507324
1700935821182796300,5.08479638671875,1.6154942512512207,-4.858563423156738,8.36783504486084
1700935821199781400,5.101781494140625,1.606177568435669,-4.858753204345703,8.369516372680664
1700935821216778000,5.118778076171875,1.6049952507019043,-4.857568264007568,8.370431900024414
1700935821233769200,5.135769287109375,1.6074941158294678,-4.85410213470459,8.371963500976562
1700935821250762800,5.1527626953125,1.606648564338684,-4.848112106323242,8.375596046447754
1700935821267754200,5.169754150390625,1.6032370328903198,-4.844029903411865,8.378610610961914
1700935821284747800,5.186747802734375,1.6048263311386108,-4.844086170196533,8.378274917602539
1700935821301735200,5.203735107421875,1.6068886518478394,-4.848188877105713,8.375505447387695
1700935821318736100,5.220736083984375,1.6053858995437622,-4.854650497436523,8.372049331665039
1700935821335723800,5.237723876953125,1.602853775024414,-4.861804485321045,8.368382453918457
1700935821352717300,5.25471728515625,1.6050900220870972,-4.864797115325928,8.36621379852295
1700935821369698000,5.271697998046875,1.6086299419403076,-4.861639022827148,8.367369651794434
1700935821386701600,5.28870166015625,1.6084009408950806,-4.8562331199646,8.370553970336914
1700935821403694300,5.3056943359375,1.6064374446868896,-4.853834629058838,8.372320175170898
1700935821420687000,5.32268701171875,1.604289174079895,-4.855309009552002,8.371878623962402
1700935821437678600,5.3396787109375,1.5993883609771729,-4.859591007232666,8.370331764221191
1700935821454672000,5.356671875,1.5946056842803955,-4.865177154541016,8.367999076843262
1700935821471663000,5.3736630859375,1.593216061592102,-4.87078332901001,8.36500072479248
1700935821488656600,5.39065673828125,1.5927283763885498,-4.875959873199463,8.362077713012695
1700935821505649400,5.4076494140625,1.5905488729476929,-4.880582332611084,8.359796524047852
1700935821522641400,5.424641357421875,1.5859812498092651,-4.885011672973633,8.358076095581055
1700935821539633000,5.4416328125,1.5799528360366821,-4.889798164367676,8.35641860961914
1700935821556626200,5.458626220703125,1.5755258798599243,-4.895740032196045,8.353775978088379
1700935821573618000,5.475617919921875,1.5738521814346313,-4.901830196380615,8.350519180297852
1700935821590611200,5.492611083984375,1.5731992721557617,-4.906187057495117,8.34808349609375
1700935821607602700,5.509602783203125,1.5718637704849243,-4.908841133117676,8.346774101257324
1700935821624596000,5.526595947265625,1.5694345235824585,-4.90994930267334,8.346579551696777
1700935821641587200,5.543587158203125,1.5662612915039062,-4.911193370819092,8.346443176269531
1700935821658581000,5.5605810546875,1.5632096529006958,-4.913703918457031,8.345539093017578
1700935821675572200,5.577572265625,1.5596977472305298,-4.916696548461914,8.34443187713623
1700935821692565800,5.594565673828125,1.5567034482955933,-4.91981840133667,8.343151092529297
1700935821709559000,5.61155908203125,1.5556433200836182,-4.922502040863037,8.341767311096191
1700935821726550500,5.628550537109375,1.5541993379592896,-4.9250712394714355,8.340519905090332
1700935821743542000,5.6455419921875,1.5517165660858154,-4.926462650299072,8.34015941619873
1700935821760524800,5.66252490234375,1.5501457452774048,-4.92592716217041,8.340766906738281
1700935821777527000,5.679527099609375,1.549903392791748,-4.92476224899292,8.341501235961914
1700935821794520600,5.6965205078125,1.5514544248580933,-4.924230098724365,8.341526985168457
1700935821811511600,5.713511474609375,1.5537657737731934,-4.925471782684326,8.340364456176758
1700935821828487400,5.7304873046875,1.5556803941726685,-4.92965030670166,8.337536811828613
1700935821845496600,5.74749658203125,1.5555471181869507,-4.935894966125488,8.333866119384766
1700935821862490000,5.764489990234375,1.5529316663742065,-4.941046714782715,8.33130168914795
1700935821879481300,5.7814814453125,1.5502451658248901,-4.943469524383545,8.330365180969238
1700935821896475000,5.798474853515625,1.5489400625228882,-4.943717002868652,8.330460548400879
1700935821913466400,5.81546630859375,1.5494651794433594,-4.942918300628662,8.33083724975586
1700935821930462500,5.83246240234375,1.5507655143737793,-4.942611217498779,8.330777168273926
1700935821947437800,5.849437744140625,1.552217721939087,-4.944810390472412,8.329201698303223
1700935821964444700,5.866444580078125,1.5511523485183716,-4.948420524597168,8.327255249023438
1700935821981436000,5.883435791015625,1.5477299690246582,-4.9495344161987305,8.327228546142578
1700935821998430200,5.90043017578125,1.5436773300170898,-4.945693492889404,8.3302640914917
1700935822015417600,5.91741748046875,1.538722038269043,-4.939980506896973,8.334568977355957
1700935822032416800,5.934416748046875,1.5330801010131836,-4.935274600982666,8.338397026062012
1700935822049405700,5.95140576171875,1.52885103225708,-4.932439804077148,8.340848922729492
1700935822066396700,5.968396728515625,1.5263069868087769,-4.933366298675537,8.340767860412598
1700935822083390700,5.985390625,1.524085283279419,-4.937034606933594,8.339003562927246
1700935822100384300,6.00238427734375,1.5210459232330322,-4.940579414367676,8.337459564208984
1700935822117366800,6.01936669921875,1.5171905755996704,-4.942807197570801,8.336841583251953
1700935822134357800,6.036357666015625,1.5116918087005615,-4.94450044631958,8.336834907531738
1700935822151361000,6.053361083984375,1.5067070722579956,-4.9445695877075195,8.337696075439453
1700935822168355800,6.07035595703125,1.5002520084381104,-4.9448442459106445,8.33869743347168
1700935822185343000,6.087343017578125,1.49382746219635,-4.946849822998047,8.33866024017334
1700935822202331400,6.104331298828125,1.4900600910186768,-4.951808452606201,8.336393356323242
1700935822219322600,6.121322509765625,1.4904670715332031,-4.958908557891846,8.332098007202148
1700935822236316000,6.13831591796875,1.4937286376953125,-4.964626789093018,8.328106880187988
1700935822253307400,6.155307373046875,1.495339274406433,-4.966334342956543,8.326799392700195
1700935822270295800,6.1722958984375,1.4937347173690796,-4.965643882751465,8.327498435974121
1700935822287283700,6.18928369140625,1.4912543296813965,-4.964645862579346,8.328540802001953
1700935822304296000,6.2062958984375,1.4889146089553833,-4.964355945587158,8.329131126403809
1700935822321284900,6.223284912109375,1.4860374927520752,-4.965673446655273,8.328859329223633
1700935822338278400,6.2402783203125,1.4835211038589478,-4.969651222229004,8.326933860778809
1700935822355269400,6.257269287109375,1.4813354015350342,-4.977115631103516,8.32286548614502
1700935822372263200,6.27426318359375,1.4798412322998047,-4.985845565795898,8.317904472351074
1700935822389254400,6.29125439453125,1.4790091514587402,-4.994110107421875,8.313092231750488
1700935822406247700,6.30824755859375,1.4778016805648804,-5.000040054321289,8.309741973876953
1700935822423249700,6.325249755859375,1.4759873151779175,-5.004348278045654,8.30747127532959
1700935822440233000,6.34223291015625,1.4739902019500732,-5.006725311279297,8.306394577026367
1700935822457222000,6.359221923828125,1.4708253145217896,-5.006520748138428,8.307077407836914
1700935822474217500,6.376217529296875,1.4655529260635376,-5.004410266876221,8.309279441833496
1700935822491201300,6.393201171875,1.457068920135498,-5.002549171447754,8.311893463134766
1700935822508202500,6.410202392578125,1.4474835395812988,-5.002721309661865,8.31346607208252
1700935822525189400,6.427189453125,1.4401432275772095,-5.005100250244141,8.31330680847168
1700935822542180400,6.444180419921875,1.4358055591583252,-5.008862495422363,8.31179141998291
1700935822559172600,6.461172607421875,1.4329947233200073,-5.012293815612793,8.310208320617676
1700935822576172000,6.478172119140625,1.4305555820465088,-5.01397705078125,8.309612274169922
1700935822593163500,6.49516357421875,1.4269498586654663,-5.014294147491455,8.310041427612305
1700935822610155800,6.51215576171875,1.4221826791763306,-5.013309478759766,8.311452865600586
1700935822627150000,6.529150146484375,1.4177194833755493,-5.0127034187316895,8.312581062316895
1700935822644142000,6.54614208984375,1.4130820035934448,-5.013020038604736,8.313179016113281
1700935822661133300,6.56313330078125,1.4102756977081299,-5.014859676361084,8.312546730041504
1700935822678127000,6.580127197265625,1.408813238143921,-5.017530918121338,8.311182022094727
1700935822695118300,6.597118408203125,1.4075572490692139,-5.018616199493408,8.31074047088623
1700935822712111000,6.614111083984375,1.405403733253479,-5.018148422241211,8.311386108398438
1700935822729103400,6.631103271484375,1.4021483659744263,-5.017033100128174,8.312610626220703
1700935822746096600,6.6480966796875,1.3981926441192627,-5.015659809112549,8.314105987548828
1700935822763085600,6.66508544921875,1.395043134689331,-5.016062259674072,8.314390182495117
1700935822780084200,6.682084228515625,1.3928837776184082,-5.019473552703857,8.31269359588623
1700935822797063700,6.699063720703125,1.3925384283065796,-5.023210048675537,8.310494422912598
1700935822814074000,6.71607421875,1.3924130201339722,-5.024267673492432,8.309876441955566
1700935822831057700,6.7330576171875,1.3923197984695435,-5.022436141967773,8.31099796295166
1700935822848040700,6.750040771484375,1.3923627138137817,-5.020376205444336,8.312234878540039
1700935822865040400,6.767040283203125,1.3939580917358398,-5.01851224899292,8.313094139099121
1700935822882038300,6.784038330078125,1.3962186574935913,-5.017927646636963,8.313066482543945
1700935822899027500,6.80102734375,1.400151252746582,-5.020326137542725,8.310957908630371
1700935822916021000,6.81802099609375,1.404739260673523,-5.025763988494873,8.306896209716797
1700935822933012500,6.835012451171875,1.406193733215332,-5.032825469970703,8.302371978759766
1700935822950006000,6.852006103515625,1.405677080154419,-5.038768291473389,8.29885482788086
1700935822966997200,6.868997314453125,1.4070836305618286,-5.041430473327637,8.297000885009766
1700935822983990800,6.88599072265625,1.4108264446258545,-5.039483070373535,8.29754638671875
1700935823000982000,6.90298193359375,1.4144315719604492,-5.034817695617676,8.299765586853027
1700935823017975600,6.9199755859375,1.4168123006820679,-5.029906749725342,8.302337646484375
1700935823034966800,6.936966796875,1.417025089263916,-5.027236461639404,8.303916931152344
1700935823051960800,6.9539609375,1.4155100584030151,-5.025978088378906,8.304937362670898
1700935823068951800,6.970951904296875,1.4142818450927734,-5.024547100067139,8.306012153625488
1700935823085945600,6.987945556640625,1.415171504020691,-5.023260116577148,8.306639671325684
1700935823102936800,7.004936767578125,1.4166702032089233,-5.021872043609619,8.30722427368164
1700935823119930600,7.0219306640625,1.4178986549377441,-5.020827770233154,8.30764389038086
1700935823136921900,7.038921875,1.4182208776474,-5.020285129547119,8.307918548583984
1700935823153902600,7.055902587890625,1.418531894683838,-5.018942356109619,8.308675765991211
1700935823170898700,7.072898681640625,1.419376015663147,-5.015185356140137,8.31080150604248
1700935823187890200,7.08989013671875,1.4192965030670166,-5.009432792663574,8.31428337097168
1700935823204887000,7.106886962890625,1.4169620275497437,-5.005455493927002,8.317076683044434
1700935823221881000,7.123881103515625,1.4140100479125977,-5.005259990692139,8.317695617675781
1700935823238868700,7.14086865234375,1.4129259586334229,-5.009405612945557,8.315383911132812
1700935823255864000,7.157864013671875,1.4137667417526245,-5.017115116119385,8.310591697692871
1700935823272856800,7.17485693359375,1.41355562210083,-5.024467468261719,8.306185722351074
1700935823289844000,7.191843994140625,1.4122573137283325,-5.0282368659973145,8.304123878479004
1700935823306836200,7.208836181640625,1.410356044769287,-5.028935432434082,8.304025650024414
1700935823323832000,7.22583203125,1.4070924520492554,-5.0276360511779785,8.305364608764648
1700935823340826000,7.242826171875,1.402431607246399,-5.025170803070068,8.307644844055176
1700935823357821400,7.259821533203125,1.400442361831665,-5.024645805358887,8.308298110961914
1700935823374810600,7.276810546875,1.4010686874389648,-5.027559757232666,8.306429862976074
1700935823391804000,7.293803955078125,1.401005506515503,-5.032898902893066,8.303206443786621
1700935823408797000,7.310796875,1.3987666368484497,-5.038079738616943,8.300442695617676
1700935823425786600,7.32778662109375,1.3976117372512817,-5.0410966873168945,8.298803329467773
1700935823442782000,7.344781982421875,1.4009110927581787,-5.0436692237854,8.296685218811035
1700935823459782400,7.361782470703125,1.4059890508651733,-5.046814918518066,8.293911933898926
1700935823476770600,7.3787705078125,1.4078069925308228,-5.051198959350586,8.290932655334473
1700935823493764000,7.39576416015625,1.4084738492965698,-5.056370735168457,8.287667274475098
1700935823510755300,7.41275537109375,1.4099639654159546,-5.060881614685059,8.284659385681152
1700935823527748900,7.429748779296875,1.4105896949768066,-5.062514781951904,8.283555030822754
1700935823544740400,7.446740234375,1.4103771448135376,-5.060621738433838,8.284749984741211
1700935823561733600,7.463733642578125,1.4108238220214844,-5.059010028839111,8.28565788269043
1700935823578725000,7.48072509765625,1.4119298458099365,-5.059093475341797,8.285417556762695
1700935823595718700,7.49771875,1.4136463403701782,-5.060944080352783,8.283995628356934
1700935823612710000,7.5147099609375,1.4163463115692139,-5.063874244689941,8.281743049621582
1700935823629693000,7.53169287109375,1.4169032573699951,-5.067348003387451,8.279521942138672
1700935823646695000,7.54869482421875,1.4134340286254883,-5.070639133453369,8.27810001373291
1700935823663690000,7.56568994140625,1.4074280261993408,-5.074001312255859,8.27706241607666
1700935823680678100,7.58267822265625,1.4029698371887207,-5.0772504806518555,8.275827407836914
1700935823697673200,7.599673095703125,1.4003040790557861,-5.078838348388672,8.275304794311523
1700935823714665000,7.6166650390625,1.3987712860107422,-5.079507350921631,8.275153160095215
1700935823731658200,7.633658203125,1.396776795387268,-5.081183910369873,8.27446174621582
1700935823748649700,7.650649658203125,1.3937894105911255,-5.082028865814209,8.274445533752441
1700935823765625900,7.6676259765625,1.3899308443069458,-5.081722736358643,8.275282859802246
1700935823782634200,7.68463427734375,1.3860704898834229,-5.082169532775879,8.275655746459961
1700935823799627800,7.701627685546875,1.3824560642242432,-5.083373069763184,8.275521278381348
1700935823816619300,7.718619384765625,1.3778038024902344,-5.0845184326171875,8.275592803955078
1700935823833612800,7.73561279296875,1.3721407651901245,-5.085949420928955,8.275654792785645
1700935823850604300,7.752604248046875,1.3672842979431152,-5.0876030921936035,8.27544116973877
1700935823867597800,7.769597900390625,1.3646185398101807,-5.0889787673950195,8.275035858154297
1700935823884589600,7.786589599609375,1.3625521659851074,-5.089754581451416,8.27489948272705
1700935823901582600,7.80358251953125,1.3602261543273926,-5.089413166046143,8.275491714477539
1700935823918573800,7.82057373046875,1.3581138849258423,-5.087097644805908,8.277263641357422
1700935823935564300,7.837564208984375,1.356175422668457,-5.084146022796631,8.279394149780273
1700935823952558800,7.854558837890625,1.354806661605835,-5.082911014556885,8.280377388000488
1700935823969559300,7.871559326171875,1.3542104959487915,-5.084316253662109,8.279610633850098
1700935823986543900,7.8885439453125,1.353549838066101,-5.087649822235107,8.277670860290527
1700935824003537200,7.905537109375,1.350940227508545,-5.09164571762085,8.275641441345215
1700935824020528600,7.922528564453125,1.3467515707015991,-5.092212677001953,8.275972366333008
1700935824037520100,7.93952001953125,1.3429880142211914,-5.088003635406494,8.2791748046875
1700935824054516000,7.956515869140625,1.3410656452178955,-5.079976558685303,8.284412384033203
1700935824071507200,7.973507080078125,1.3395588397979736,-5.070329666137695,8.29056453704834
1700935824088498400,7.99049853515625,1.337528109550476,-5.0614447593688965,8.296319007873535
1700935824105493200,8.0074931640625,1.3347059488296509,-5.055264472961426,8.30053997039795
1700935824122482200,8.024482177734376,1.3306012153625488,-5.0532307624816895,8.302438735961914
1700935824139477000,8.04147705078125,1.3276816606521606,-5.05539083480835,8.301590919494629
1700935824156468500,8.058468505859375,1.3272911310195923,-5.0593791007995605,8.299223899841309
1700935824173461800,8.075461669921875,1.32683527469635,-5.063966274261475,8.296497344970703
1700935824190453200,8.092453369140625,1.3243399858474731,-5.068022727966309,8.294419288635254
1700935824207436300,8.109436279296874,1.3210188150405884,-5.069049835205078,8.294321060180664
1700935824224438000,8.12643798828125,1.3179504871368408,-5.0672926902771,8.295882225036621
1700935824241431600,8.143431640625,1.314857006072998,-5.065228462219238,8.29763412475586
1700935824258423000,8.160423095703125,1.3116562366485596,-5.064359188079834,8.298670768737793
1700935824275416600,8.17741650390625,1.3086522817611694,-5.066283226013184,8.297971725463867
1700935824292408000,8.194407958984375,1.3051413297653198,-5.070378303527832,8.296022415161133
1700935824309401300,8.2114013671875,1.3017995357513428,-5.074673175811768,8.29392147064209
1700935824326392800,8.228392822265626,1.2993923425674438,-5.077667236328125,8.292466163635254
1700935824343386000,8.24538623046875,1.296869158744812,-5.0787129402160645,8.292222023010254
1700935824360377900,8.2623779296875,1.2947309017181396,-5.077315807342529,8.293411254882812
1700935824377371400,8.279371337890625,1.2933448553085327,-5.0741400718688965,8.29556941986084
1700935824394363000,8.29636279296875,1.2916985750198364,-5.07041072845459,8.298105239868164
1700935824411356200,8.313356201171874,1.2897619009017944,-5.067651748657227,8.300092697143555
1700935824428347400,8.330347412109376,1.289202094078064,-5.065701484680176,8.301370620727539
1700935824445339000,8.3473388671875,1.2903472185134888,-5.06602668762207,8.300992965698242
1700935824462334500,8.36433447265625,1.2896069288253784,-5.067669868469238,8.300105094909668
1700935824479323400,8.381323486328125,1.2872002124786377,-5.069282531738281,8.299492835998535
1700935824496330800,8.398330810546875,1.285621166229248,-5.070608139038086,8.298930168151855
1700935824513311000,8.41531103515625,1.285339117050171,-5.071839809417725,8.29822063446045
1700935824530291700,8.432291748046875,1.2842141389846802,-5.072720527648926,8.297857284545898
1700935824547293000,8.44929296875,1.282225489616394,-5.0716753005981445,8.298802375793457
1700935824564287000,8.466286865234375,1.2791813611984253,-5.068279266357422,8.301346778869629
1700935824581276700,8.483276611328124,1.2749135494232178,-5.063129901885986,8.305145263671875
1700935824598275800,8.50027587890625,1.2703585624694824,-5.057803153991699,8.309087753295898
1700935824615265300,8.517265380859374,1.2673949003219604,-5.055520057678223,8.310928344726562
1700935824632248600,8.53424853515625,1.2670217752456665,-5.057468891143799,8.309800148010254
1700935824649250600,8.55125048828125,1.2679126262664795,-5.062154769897461,8.306811332702637
1700935824666242000,8.568241943359375,1.2679941654205322,-5.067538738250732,8.303515434265137
1700935824683235000,8.585235107421875,1.2659029960632324,-5.072843551635742,8.300593376159668
1700935824700226600,8.6022265625,1.261075496673584,-5.076712608337402,8.298964500427246
1700935824717220000,8.61922021484375,1.2564053535461426,-5.079312801361084,8.298081398010254
1700935824734211600,8.636211669921876,1.2536451816558838,-5.082039833068848,8.296828269958496
1700935824751205400,8.653205322265626,1.2513933181762695,-5.086236000061035,8.294595718383789
1700935824768207400,8.670207275390625,1.247488260269165,-5.091602802276611,8.291891098022461
1700935824785186800,8.687186767578124,1.2427160739898682,-5.098114013671875,8.288607597351074
1700935824802185000,8.70418505859375,1.2401807308197021,-5.104465484619141,8.285076141357422
1700935824819174700,8.721174560546874,1.2412563562393188,-5.109152317047119,8.282026290893555
1700935824836166100,8.738166259765626,1.2438838481903076,-5.112571716308594,8.279521942138672
1700935824853170700,8.755170654296874,1.2434157133102417,-5.11469841003418,8.278279304504395
1700935824870151200,8.772151123046875,1.2421258687973022,-5.115656852722168,8.27787971496582
1700935824887144000,8.78914404296875,1.2404582500457764,-5.116711139678955,8.277478218078613
1700935824904136200,8.80613623046875,1.2387326955795288,-5.119493007659912,8.276016235351562
1700935824921129500,8.82312939453125,1.2386066913604736,-5.122745990753174,8.274022102355957
1700935824938121200,8.840121337890626,1.2413455247879028,-5.1252312660217285,8.272073745727539
1700935824955114800,8.85711474609375,1.2451366186141968,-5.126013278961182,8.271018028259277
1700935824972106000,8.87410595703125,1.2472625970840454,-5.124631404876709,8.271554946899414
1700935824989099300,8.891099365234375,1.2456350326538086,-5.123260498046875,8.272647857666016
1700935825006090800,8.9080908203125,1.2433472871780396,-5.123911380767822,8.272589683532715
1700935825023081700,8.925081787109375,1.241077184677124,-5.12684965133667,8.271109580993652
1700935825040078600,8.94207861328125,1.2372761964797974,-5.130093097686768,8.269668579101562
1700935825057069300,8.9590693359375,1.2318593263626099,-5.133552074432373,8.268328666687012
1700935825074060800,8.976060791015625,1.2270607948303223,-5.13625955581665,8.267362594604492
1700935825091054000,8.99305419921875,1.2248042821884155,-5.135350227355957,8.268261909484863
1700935825108042000,9.0100419921875,1.2234185934066772,-5.13074254989624,8.271327018737793
1700935825125039000,9.0270390625,1.2207071781158447,-5.124987602233887,8.275294303894043
1700935825142030600,9.044030517578125,1.2170255184173584,-5.120304107666016,8.278735160827637
1700935825159024000,9.061024169921875,1.2131356000900269,-5.117950916290283,8.280760765075684
1700935825176015400,9.078015380859375,1.2077637910842896,-5.1165900230407715,8.282388687133789
1700935825193009000,9.0950087890625,1.202714443206787,-5.116054534912109,8.283452033996582
1700935825209998300,9.111998291015626,1.1988766193389893,-5.116346836090088,8.283827781677246
1700935825226995700,9.12899560546875,1.195387601852417,-5.117661476135254,8.283520698547363
1700935825243985200,9.145985107421875,1.1918845176696777,-5.119784355163574,8.282713890075684
1700935825260968400,9.162968505859375,1.188359260559082,-5.121622085571289,8.282083511352539
1700935825277967600,9.179967529296874,1.1848227977752686,-5.122191429138184,8.28223705291748
1700935825294966500,9.196966552734375,1.1805163621902466,-5.121964454650879,8.282994270324707
1700935825311955200,9.213955078125,1.1745378971099854,-5.122466564178467,8.283533096313477
1700935825328948500,9.230948486328124,1.1673771142959595,-5.12482213973999,8.283087730407715
1700935825345939700,9.247939697265625,1.1601622104644775,-5.128700256347656,8.281700134277344
1700935825362933200,9.264933349609375,1.1551058292388916,-5.132987022399902,8.279751777648926
1700935825379924700,9.2819248046875,1.1504321098327637,-5.13600492477417,8.278532028198242
1700935825396913700,9.29891357421875,1.1461353302001953,-5.138095378875732,8.277830123901367
1700935825413914400,9.315914306640625,1.1424939632415771,-5.140224456787109,8.27701187133789
1700935825430903300,9.3329033203125,1.1375199556350708,-5.141442775726318,8.27694034576416
1700935825447877600,9.349877685546875,1.132612705230713,-5.140827655792236,8.277995109558105
1700935825464888300,9.366888427734375,1.1304752826690674,-5.139800071716309,8.278925895690918
1700935825481879600,9.383879638671875,1.1301311254501343,-5.138749122619629,8.279623985290527
1700935825498872800,9.400872802734375,1.1294695138931274,-5.139925003051758,8.278985023498535
1700935825515864600,9.417864501953124,1.1284083127975464,-5.143838882446289,8.276698112487793
1700935825532860700,9.434860595703125,1.127334713935852,-5.150161266326904,8.272912979125977
1700935825549849300,9.451849365234375,1.125109314918518,-5.156856060028076,8.26904296875
1700935825566843100,9.468843017578125,1.1227909326553345,-5.161945819854736,8.266182899475098
1700935825583834000,9.485834228515625,1.1213945150375366,-5.162614345550537,8.265954971313477
1700935825600828000,9.502827880859375,1.1202906370162964,-5.158903121948242,8.26842212677002
1700935825617806600,9.519806640625,1.1186761856079102,-5.154146194458008,8.2716064453125
1700935825634810600,9.536810546875,1.1170331239700317,-5.1506667137146,8.273993492126465
1700935825651805400,9.553805419921876,1.1148220300674438,-5.148629665374756,8.275561332702637
1700935825668787200,9.570787109375,1.1118966341018677,-5.14796781539917,8.276366233825684
1700935825685786600,9.58778662109375,1.1086952686309814,-5.148969650268555,8.27617359161377
1700935825702785500,9.60478564453125,1.1059035062789917,-5.150999069213867,8.27528190612793
1700935825719762400,9.621762451171875,1.1048516035079956,-5.152603626251221,8.274423599243164
1700935825736765200,9.63876513671875,1.1065081357955933,-5.153000354766846,8.273956298828125
1700935825753749000,9.6557490234375,1.110863447189331,-5.1514668464660645,8.274328231811523
1700935825770743000,9.672742919921875,1.1148808002471924,-5.149464130401611,8.275032043457031
1700935825787732200,9.689732177734374,1.1170413494110107,-5.147442817687988,8.276000022888184
1700935825804728300,9.706728271484375,1.1173195838928223,-5.145753383636475,8.277013778686523
1700935825821720600,9.723720458984374,1.1161277294158936,-5.144444465637207,8.277987480163574
1700935825838722300,9.740722412109376,1.1140618324279785,-5.1446075439453125,8.278165817260742
1700935825855711500,9.75771142578125,1.1123006343841553,-5.146376609802246,8.277302742004395
1700935825872709600,9.774709716796876,1.112918734550476,-5.149995803833008,8.274967193603516
1700935825889688300,9.791688232421874,1.115781545639038,-5.154872894287109,8.271544456481934
1700935825906689300,9.808689208984376,1.1196149587631226,-5.159572601318359,8.268095016479492
1700935825923686100,9.82568603515625,1.1209814548492432,-5.16299295425415,8.26577377319336
1700935825940677000,9.842677001953126,1.120723843574524,-5.164401531219482,8.264928817749023
1700935825957668600,9.859668701171875,1.1204736232757568,-5.164456844329834,8.26492977142334
1700935825974662100,9.876662109375,1.1194088459014893,-5.164884567260742,8.264805793762207
1700935825991653400,9.8936533203125,1.1172003746032715,-5.16807222366333,8.263111114501953
1700935826008647000,9.91064697265625,1.1162843704223633,-5.174299716949463,8.259337425231934
1700935826025638100,9.92763818359375,1.116034984588623,-5.182334899902344,8.254331588745117
1700935826042631700,9.944631591796876,1.1139460802078247,-5.1907877922058105,8.249300003051758
1700935826059623200,9.961623046875,1.1104687452316284,-5.19649076461792,8.24617862701416
1700935826076619000,9.978618896484376,1.1064634323120117,-5.197418689727783,8.246131896972656
1700935826093606100,9.995606201171874,1.1011962890625,-5.192843437194824,8.24971866607666
1700935826110601700,10.012601806640625,1.0947502851486206,-5.185558319091797,8.255158424377441
1700935826127593500,10.029593505859374,1.0908949375152588,-5.18039608001709,8.258909225463867
1700935826144586200,10.046586181640626,1.090915322303772,-5.179549694061279,8.25943660736084
1700935826161578200,10.063578125,1.0927042961120605,-5.181019306182861,8.258277893066406
1700935826178571300,10.0805712890625,1.0955487489700317,-5.184356689453125,8.255805015563965
1700935826195562800,10.097562744140625,1.0990617275238037,-5.186463356018066,8.25401496887207
1700935826212556500,10.114556640625,1.1031469106674194,-5.186956405639648,8.253161430358887
1700935826229559000,10.13155908203125,1.106690526008606,-5.186920166015625,8.25270938873291
1700935826246541600,10.14854150390625,1.109849214553833,-5.18697452545166,8.252252578735352
1700935826263536000,10.1655361328125,1.1119829416275024,-5.186866283416748,8.252032279968262
1700935826280523000,10.18252294921875,1.1145094633102417,-5.187924861907959,8.251026153564453
1700935826297528800,10.19952880859375,1.1175146102905273,-5.191225051879883,8.248543739318848
1700935826314511000,10.216510986328124,1.1209925413131714,-5.1952667236328125,8.245526313781738
1700935826331502800,10.2335029296875,1.1257636547088623,-5.198607444763184,8.242770195007324
1700935826348484900,10.25048486328125,1.1317143440246582,-5.200263500213623,8.240911483764648
1700935826365484800,10.26748486328125,1.1355708837509155,-5.199591159820557,8.240804672241211
1700935826382483500,10.2844833984375,1.1360982656478882,-5.197300910949707,8.242176055908203
1700935826399472600,10.30147265625,1.1356199979782104,-5.194957256317139,8.243718147277832
1700935826416466200,10.318466064453125,1.1351419687271118,-5.1932501792907715,8.244860649108887
1700935826433457200,10.33545703125,1.1344928741455078,-5.192328929901123,8.245529174804688
1700935826450451000,10.352450927734376,1.132675290107727,-5.192056179046631,8.245950698852539
1700935826467431700,10.369431640625,1.1296663284301758,-5.1922783851623535,8.246225357055664
1700935826484435700,10.386435791015625,1.1259454488754272,-5.193944454193115,8.245685577392578
1700935826501427000,10.403427001953125,1.1248599290847778,-5.197385787963867,8.24366283416748
1700935826518421000,10.4204208984375,1.126600980758667,-5.2031707763671875,8.239775657653809
1700935826535412000,10.437411865234376,1.1285884380340576,-5.210048675537109,8.235157012939453
1700935826552405800,10.45440576171875,1.1288328170776367,-5.214821815490723,8.232099533081055
1700935826569397000,10.47139697265625,1.1289781332015991,-5.215768814086914,8.231481552124023
1700935826586390500,10.488390625,1.1301794052124023,-5.213435173034668,8.232794761657715
1700935826603380700,10.505380615234374,1.1313155889511108,-5.209116458892822,8.235372543334961
1700935826620376800,10.522376953125,1.1312413215637207,-5.2050347328186035,8.237961769104004
1700935826637354500,10.5393544921875,1.131148338317871,-5.203658103942871,8.23884391784668
1700935826654359800,10.55635986328125,1.1321423053741455,-5.204488754272461,8.23818302154541
1700935826671349800,10.573349853515625,1.1338979005813599,-5.204824447631836,8.237730979919434
1700935826688340200,10.59034033203125,1.1351866722106934,-5.203423500061035,8.23843765258789
1700935826705323800,10.60732373046875,1.1361453533172607,-5.201725959777832,8.239377975463867
1700935826722323700,10.62432373046875,1.1374744176864624,-5.19970703125,8.240468978881836
1700935826739311600,10.6413115234375,1.14043128490448,-5.196585655212402,8.24202823638916
1700935826756308500,10.65830859375,1.1436806917190552,-5.193824768066406,8.243319511413574
1700935826773302500,10.675302490234374,1.145339846611023,-5.19357967376709,8.243241310119629
1700935826790288100,10.6922880859375,1.1443332433700562,-5.196157455444336,8.2417573928833
1700935826807286800,10.709286865234375,1.1411552429199219,-5.200229167938232,8.239631652832031
1700935826824278800,10.72627880859375,1.1393767595291138,-5.203341960906982,8.237909317016602
1700935826841274000,10.743274169921875,1.1405264139175415,-5.203877925872803,8.237412452697754
1700935826858265600,10.760265625,1.1427377462387085,-5.202432155609131,8.238019943237305
1700935826875254800,10.7772548828125,1.1456698179244995,-5.202260971069336,8.237720489501953
1700935826892247000,10.7942470703125,1.149631381034851,-5.204879283905029,8.235513687133789
1700935826909236000,10.811236083984374,1.1535849571228027,-5.20883846282959,8.232458114624023
1700935826926235100,10.828235107421875,1.1559109687805176,-5.2130584716796875,8.229459762573242
1700935826943233800,10.84523388671875,1.1570874452590942,-5.216672420501709,8.22700309753418
1700935826960224800,10.862224853515626,1.1566301584243774,-5.219134330749512,8.225506782531738
1700935826977216500,10.879216552734375,1.1543117761611938,-5.220101833343506,8.225218772888184
1700935826994209800,10.896209716796875,1.1532695293426514,-5.221526145935059,8.224461555480957
1700935827011201300,10.913201171875,1.154205322265625,-5.224014759063721,8.222748756408691
1700935827028194000,10.930194091796874,1.1548163890838623,-5.228147029876709,8.220037460327148
1700935827045184500,10.9471845703125,1.1526298522949219,-5.233018398284912,8.217243194580078
1700935827062182100,10.96418212890625,1.1487680673599243,-5.235640525817871,8.216113090515137
1700935827079170800,10.9811708984375,1.1442539691925049,-5.234470844268799,8.217487335205078
1700935827096165400,10.998165283203125,1.1390033960342407,-5.230009078979492,8.22105884552002
1700935827113156000,11.015156005859374,1.1353299617767334,-5.225066184997559,8.224708557128906
1700935827130149600,11.032149658203124,1.1352214813232422,-5.222052097320557,8.226635932922363
1700935827147128300,11.04912841796875,1.1378681659698486,-5.222198963165283,8.226178169250488
1700935827164134700,11.066134765625,1.1403158903121948,-5.225019454956055,8.224048614501953
1700935827181126100,11.083126220703125,1.1411206722259521,-5.227231979370117,8.222530364990234
1700935827198119400,11.100119384765625,1.1405868530273438,-5.226459503173828,8.22309684753418
1700935827215107300,11.117107421875,1.140576958656311,-5.223677158355713,8.224864959716797
1700935827232093200,11.13409326171875,1.1411479711532593,-5.220055103302002,8.22708511352539
1700935827249096000,11.151095947265626,1.1418206691741943,-5.216994762420654,8.22893238067627
1700935827266089500,11.16808935546875,1.1428242921829224,-5.21637487411499,8.229186058044434
1700935827283076400,11.185076416015624,1.1447889804840088,-5.218601226806641,8.22750186920166
1700935827300078800,11.202078857421874,1.1475046873092651,-5.222227096557617,8.224822044372559
1700935827317065700,11.219065673828124,1.1513413190841675,-5.225003719329834,8.222521781921387
1700935827334059000,11.23605908203125,1.1559258699417114,-5.226469993591309,8.220947265625
1700935827351050500,11.253050537109376,1.1601899862289429,-5.2260355949401855,8.220622062683105
1700935827368044300,11.270044189453126,1.1627817153930664,-5.2245306968688965,8.221212387084961
1700935827385035500,11.287035400390625,1.163783073425293,-5.222822666168213,8.22215461730957
1700935827402029300,11.304029296875,1.1644885540008545,-5.2222490310668945,8.222419738769531
1700935827419018000,11.32101806640625,1.1660652160644531,-5.222207069396973,8.222223281860352
1700935827436017000,11.338016845703125,1.1670639514923096,-5.2208452224731445,8.222947120666504
1700935827453005600,11.355005615234376,1.1656811237335205,-5.215991497039795,8.226222038269043
1700935827469986600,11.371986572265625,1.1640000343322754,-5.21019172668457,8.230134010314941
1700935827486993200,11.3889931640625,1.1653971672058105,-5.2074666023254395,8.23166275024414
1700935827503987500,11.405987548828126,1.1675130128860474,-5.208775997161865,8.2305326461792
1700935827520961300,11.422961181640625,1.1662023067474365,-5.213108062744141,8.227977752685547
1700935827537965600,11.439965576171875,1.1629141569137573,-5.218410968780518,8.225077629089355
1700935827554960600,11.456960693359376,1.1612749099731445,-5.220620155334473,8.223908424377441
1700935827571953400,11.473953369140625,1.161331057548523,-5.21821403503418,8.225428581237793
1700935827588945700,11.490945556640625,1.1616839170455933,-5.212619781494141,8.228924751281738
1700935827605938700,11.507938720703125,1.1628443002700806,-5.2077250480651855,8.231860160827637
1700935827622930400,11.524930419921875,1.1653410196304321,-5.204837322235107,8.233332633972168
1700935827639923700,11.541923828125,1.1694180965423584,-5.204284191131592,8.233104705810547
1700935827656919800,11.558919921875,1.1734294891357422,-5.205587863922119,8.231709480285645
1700935827673908700,11.57590869140625,1.1756359338760376,-5.207003116607666,8.230500221252441
1700935827690900000,11.59289990234375,1.1753839254379272,-5.206873416900635,8.230618476867676
1700935827707894000,11.60989404296875,1.1742370128631592,-5.207645893096924,8.230292320251465
1700935827724886500,11.626886474609375,1.1743115186691284,-5.210565090179443,8.228433609008789
1700935827741875000,11.643875,1.1746299266815186,-5.214108467102051,8.226143836975098
1700935827758872000,11.6608720703125,1.1739751100540161,-5.21821928024292,8.223630905151367
1700935827775863600,11.677863525390626,1.1730629205703735,-5.222659111022949,8.220941543579102
1700935827792855000,11.69485498046875,1.173453450202942,-5.2260613441467285,8.21872329711914
1700935827809846000,11.711845947265624,1.1745288372039795,-5.227383613586426,8.217729568481445
1700935827826832100,11.72883203125,1.1752524375915527,-5.228542327880859,8.216887474060059
1700935827843833300,11.745833251953124,1.1757365465164185,-5.231324195861816,8.215046882629395
1700935827860824800,11.762824951171876,1.1760929822921753,-5.235703468322754,8.21220588684082
1700935827877818400,11.779818359375,1.175866961479187,-5.241252422332764,8.208698272705078
1700935827894809900,11.796809814453125,1.1747395992279053,-5.246391296386719,8.205574989318848
1700935827911803400,11.813803466796875,1.1734803915023804,-5.249363422393799,8.20385456085205
1700935827928795000,11.830794921875,1.1723284721374512,-5.250343322753906,8.203392028808594
1700935827945788400,11.847788330078124,1.1697486639022827,-5.25001335144043,8.203972816467285
1700935827962780000,11.86477978515625,1.166866660118103,-5.250931262969971,8.20379638671875
1700935827979773000,11.88177294921875,1.1660643815994263,-5.254765033721924,8.201455116271973
1700935827996764400,11.898764404296875,1.164670705795288,-5.26096773147583,8.197676658630371
1700935828013758200,11.91575830078125,1.163196325302124,-5.269261837005615,8.19255542755127
1700935828030749700,11.932749755859374,1.161462664604187,-5.274784088134766,8.189247131347656
1700935828047743200,11.9497431640625,1.1580461263656616,-5.273805618286133,8.190362930297852
1700935828064734700,11.966734619140626,1.1526991128921509,-5.2675461769104,8.19514274597168
1700935828081728300,11.983728271484376,1.1481292247772217,-5.260467529296875,8.200329780578613
1700935828098719500,12.000719482421875,1.144704818725586,-5.2560248374938965,8.203655242919922
1700935828115713000,12.017713134765625,1.14161217212677,-5.254922389984131,8.204792022705078
1700935828132704300,12.034704345703124,1.1383284330368042,-5.256042957305908,8.2045316696167
1700935828149698000,12.051697998046874,1.13536536693573,-5.25624942779541,8.204811096191406
1700935828166689500,12.068689453125,1.1327083110809326,-5.252379417419434,8.207655906677246
1700935828183682800,12.085682861328126,1.129467487335205,-5.246136665344238,8.212093353271484
1700935828200674300,12.10267431640625,1.1262564659118652,-5.239980220794678,8.216463088989258
1700935828217667800,12.119667724609375,1.1238056421279907,-5.234572887420654,8.220244407653809
1700935828234659000,12.1366591796875,1.1224298477172852,-5.231133460998535,8.222622871398926
1700935828251664400,12.153664306640625,1.121146321296692,-5.230942249298096,8.222919464111328
1700935828268633600,12.170633544921875,1.1191465854644775,-5.232531547546387,8.222179412841797
1700935828285638000,12.187637939453126,1.1165893077850342,-5.234135150909424,8.22150707244873
1700935828302628900,12.20462890625,1.114172339439392,-5.235605239868164,8.220897674560547
1700935828319622700,12.22162255859375,1.1134964227676392,-5.236411094665527,8.220477104187012
1700935828336614100,12.2386142578125,1.1160943508148193,-5.237491607666016,8.219435691833496
1700935828353607700,12.255607666015624,1.120007038116455,-5.239207744598389,8.21781063079834
1700935828370596600,12.2725966796875,1.1228876113891602,-5.241588592529297,8.215898513793945
1700935828387595300,12.28959521484375,1.1255680322647095,-5.2433576583862305,8.21440315246582
1700935828404584000,12.306583984375,1.1301130056381226,-5.244174003601074,8.213257789611816
1700935828421575200,12.3235751953125,1.1342955827713013,-5.243399620056152,8.213174819946289
1700935828438560800,12.340560791015625,1.1371095180511475,-5.241939067840576,8.21371841430664
1700935828455562500,12.3575625,1.1388616561889648,-5.242244243621826,8.21328067779541
1700935828472554200,12.37455419921875,1.1405097246170044,-5.245965003967285,8.210677146911621
1700935828489547500,12.391547607421876,1.1429100036621094,-5.252283096313477,8.206302642822266
1700935828506538800,12.408538818359375,1.1459189653396606,-5.259198188781738,8.20145320892334
1700935828523532300,12.4255322265625,1.1492849588394165,-5.262094974517822,8.19912338256836
1700935828540524000,12.44252392578125,1.1511512994766235,-5.258796691894531,8.20097827911377
1700935828557517300,12.459517333984374,1.1517080068588257,-5.251235008239746,8.205743789672852
1700935828574510300,12.47651025390625,1.153193473815918,-5.24363374710083,8.210392951965332
1700935828591501000,12.4935009765625,1.1550663709640503,-5.239246368408203,8.212932586669922
1700935828608493800,12.510493896484375,1.1566544771194458,-5.239166736602783,8.21275806427002
1700935828625487000,12.527487060546875,1.1582335233688354,-5.243230819702148,8.209942817687988
1700935828642478600,12.544478515625,1.1597870588302612,-5.247917175292969,8.206727027893066
1700935828659456000,12.5614560546875,1.1606404781341553,-5.250284671783447,8.205092430114746
1700935828676463600,12.578463623046876,1.161121129989624,-5.2498345375061035,8.205312728881836
1700935828693457400,12.59545751953125,1.1611301898956299,-5.248107433319092,8.206417083740234
1700935828710448600,12.61244873046875,1.161333680152893,-5.248135089874268,8.20637035369873
1700935828727442200,12.629442138671875,1.1615874767303467,-5.251958847045898,8.203886032104492
1700935828744433700,12.64643359375,1.1611342430114746,-5.258358955383301,8.199850082397461
1700935828761427000,12.663427001953124,1.159934163093567,-5.263942718505859,8.196435928344727
1700935828778418700,12.680418701171876,1.1587053537368774,-5.266738414764404,8.194815635681152
1700935828795400400,12.697400390625,1.157332181930542,-5.2686381340026855,8.19378662109375
1700935828812415700,12.714415771484376,1.1560232639312744,-5.269968032836914,8.193116188049316
1700935828829397000,12.73139697265625,1.1550467014312744,-5.271359920501709,8.19235897064209
1700935828846385700,12.7483857421875,1.1534706354141235,-5.273360252380371,8.191293716430664
1700935828863384800,12.765384765625,1.152581810951233,-5.275942802429199,8.189756393432617
1700935828880373500,12.78237353515625,1.1525646448135376,-5.277503490447998,8.188752174377441
1700935828897367000,12.799366943359376,1.1520836353302002,-5.27646541595459,8.189488410949707
1700935828914345200,12.81634521484375,1.149488091468811,-5.274026393890381,8.191424369812012
1700935828931342600,12.833342529296875,1.146026849746704,-5.2746734619140625,8.191493034362793
1700935828948344800,12.8503447265625,1.143862247467041,-5.279777526855469,8.188506126403809
1700935828965337000,12.867337158203124,1.142408847808838,-5.287970066070557,8.183422088623047
1700935828982328300,12.884328369140626,1.141457200050354,-5.2951436042785645,8.178914070129395
1700935828999321900,12.90132177734375,1.142858862876892,-5.297149658203125,8.177419662475586
1700935829016311000,12.91831103515625,1.1456003189086914,-5.292694568634033,8.179922103881836
1700935829033309200,12.93530908203125,1.1473309993743896,-5.2844743728637695,8.184990882873535
1700935829050281700,12.95228173828125,1.1486107110977173,-5.277687072753906,8.189190864562988
1700935829067292000,12.9692919921875,1.1508265733718872,-5.2753586769104,8.190378189086914
1700935829084283400,12.986283447265626,1.153828501701355,-5.276849269866943,8.188997268676758
1700935829101276700,13.003276611328126,1.156128168106079,-5.280262470245361,8.186470985412598
1700935829118268200,13.02026806640625,1.1577444076538086,-5.283641338348389,8.184062004089355
1700935829135261700,13.03726171875,1.1585503816604614,-5.285930633544922,8.182470321655273
1700935829152253000,13.0542529296875,1.1590275764465332,-5.287560939788818,8.181349754333496
1700935829169244000,13.071243896484376,1.1596286296844482,-5.289458751678467,8.180036544799805
1700935829186241000,13.088240966796874,1.1613506078720093,-5.292758464813232,8.177659034729004
1700935829203231700,13.105231689453126,1.1633062362670898,-5.296960353851318,8.174659729003906
1700935829220220700,13.122220703125,1.1641119718551636,-5.301332473754883,8.171708106994629
1700935829237218800,13.13921875,1.1639857292175293,-5.303438186645508,8.170361518859863
1700935829254196200,13.1561962890625,1.1639974117279053,-5.301876544952393,8.171374320983887
1700935829271201500,13.173201416015624,1.1644072532653809,-5.299134731292725,8.173093795776367
1700935829288192800,13.19019287109375,1.1658828258514404,-5.298386096954346,8.173367500305176
1700935829305173000,13.207173095703125,1.1672016382217407,-5.299454212188721,8.17248821258545
1700935829322190800,13.22419091796875,1.1667098999023438,-5.301361560821533,8.171320915222168
1700935829339171600,13.241171630859375,1.164703130722046,-5.302519798278809,8.170856475830078
1700935829356163000,13.2581630859375,1.162917971611023,-5.301830291748047,8.17155647277832
1700935829373156600,13.275156494140624,1.1600195169448853,-5.298602104187012,8.174062728881836
1700935829390147800,13.29214794921875,1.1574113368988037,-5.294848918914795,8.176862716674805
1700935829407141400,13.309141357421876,1.1562883853912354,-5.292812347412109,8.17834186553955
1700935829424133000,13.326133056640625,1.1550712585449219,-5.294472694396973,8.177436828613281
1700935829441123800,13.343123779296874,1.1530791521072388,-5.298823833465576,8.174899101257324
1700935829458119400,13.360119384765625,1.1515437364578247,-5.301441669464111,8.173418998718262
1700935829475102200,13.377102294921874,1.1509028673171997,-5.298550605773926,8.175383567810059
1700935829492103000,13.39410302734375,1.1509367227554321,-5.290375232696533,8.180672645568848
1700935829509096400,13.411096435546876,1.153130054473877,-5.281449317932129,8.186129570007324
1700935829526088000,13.428087890625,1.1567325592041016,-5.275143623352051,8.18968677520752
1700935829543081200,13.445081298828125,1.1595765352249146,-5.272504806518555,8.1909818649292
1700935829560072700,13.46207275390625,1.162432312965393,-5.273003101348877,8.190256118774414
1700935829577066500,13.47906640625,1.1646761894226074,-5.275076389312744,8.188604354858398
1700935829594057700,13.4960576171875,1.164039134979248,-5.276638507843018,8.1876859664917
1700935829611051300,13.51305126953125,1.1613974571228027,-5.27768087387085,8.187389373779297
1700935829628040200,13.530040283203125,1.1591310501098633,-5.278482437133789,8.187192916870117
1700935829645039000,13.5470390625,1.1590296030044556,-5.278445720672607,8.187232971191406
1700935829662027500,13.564027587890624,1.160422444343567,-5.277726173400879,8.187499046325684
1700935829679021000,13.58102099609375,1.1610790491104126,-5.2765021324157715,8.188194274902344
1700935829696012500,13.598012451171876,1.157666563987732,-5.271161079406738,8.192118644714355
1700935829713006300,13.61500634765625,1.1488107442855835,-5.259159088134766,8.20107364654541
1700935829729997600,13.63199755859375,1.1362649202346802,-5.241527557373047,8.21409797668457
1700935829746991000,13.6489912109375,1.122275471687317,-5.222066879272461,8.228404998779297
1700935829763982600,13.665982666015625,1.1084233522415161,-5.202926158905029,8.242395401000977
1700935829780976400,13.682976318359374,1.0981364250183105,-5.185710906982422,8.25461196899414
1700935829797967400,13.69996728515625,1.0887179374694824,-5.168932914733887,8.266375541687012
1700935829814961000,13.7169609375,1.0762861967086792,-5.152191638946533,8.27844524383545
1700935829831952600,13.73395263671875,1.0617289543151855,-5.131765842437744,8.293000221252441
1700935829848946400,13.750946533203125,1.045150637626648,-5.10818338394165,8.309646606445312
1700935829865937700,13.767937744140625,1.02791166305542,-5.084755897521973,8.326149940490723
1700935829882920400,13.78492041015625,1.0144349336624146,-5.066030979156494,8.33920669555664
1700935829899922400,13.80192236328125,1.005134105682373,-5.055008411407471,8.34701919555664
1700935829916916000,13.818916015625,0.9977566599845886,-5.051166534423828,8.350227355957031
1700935829933907200,13.8359072265625,0.9898403882980347,-5.048966884613037,8.352500915527344
1700935829950901000,13.85290087890625,0.9824621081352234,-5.045627117156982,8.355388641357422
1700935829967892200,13.869892333984374,0.9777372479438782,-5.040663719177246,8.358939170837402
1700935829984886000,13.886885986328124,0.9763181209564209,-5.036341667175293,8.361710548400879
1700935830001877800,13.903877685546876,0.9778494834899902,-5.033878803253174,8.363012313842773
1700935830018870800,13.920870849609376,0.9814621806144714,-5.032796859741211,8.363242149353027
1700935830035862300,13.9378623046875,0.9855900406837463,-5.034913539886475,8.361482620239258
1700935830052855800,13.954855712890625,0.9889869689941406,-5.041684150695801,8.356998443603516
1700935830069847000,13.971846923828124,0.9912235736846924,-5.051060199737549,8.351069450378418
1700935830086838300,13.98883837890625,0.9930698275566101,-5.060871124267578,8.34490966796875
1700935830103835000,14.0058349609375,0.9951923489570618,-5.0693840980529785,8.339487075805664
1700935830120826000,14.022826171875,0.9983042478561401,-5.075904369354248,8.335149765014648
1700935830137817300,14.0398173828125,1.001757264137268,-5.0817646980285645,8.331162452697754
1700935830154811000,14.056810791015625,1.0051047801971436,-5.088504791259766,8.326644897460938
1700935830171802000,14.073802001953124,1.0077682733535767,-5.097228527069092,8.32098388671875
1700935830188792300,14.090792236328125,1.0080088376998901,-5.107447147369385,8.31468677520752
1700935830205787400,14.107787353515626,1.0070159435272217,-5.117668628692627,8.30851936340332
1700935830222780700,14.12478076171875,1.005272626876831,-5.127017974853516,8.30296516418457
1700935830239772200,14.141772216796875,1.0019888877868652,-5.133612155914307,8.299286842346191
1700935830256765700,14.158765625,0.9976817965507507,-5.137801647186279,8.297212600708008
1700935830273744000,14.175743896484375,0.9939796328544617,-5.141436576843262,8.295405387878418
1700935830290762800,14.1927626953125,0.9918497800827026,-5.145379066467285,8.293214797973633
1700935830307741700,14.20974169921875,0.9897018074989319,-5.147124290466309,8.292389869689941
1700935830324736000,14.226736083984376,0.9841253161430359,-5.145815849304199,8.293864250183105
1700935830341724400,14.243724365234375,0.9744119048118591,-5.144443511962891,8.295862197875977
1700935830358723300,14.260723388671876,0.9645274877548218,-5.145864009857178,8.296136856079102
1700935830375712300,14.277712158203125,0.9562621712684631,-5.1493706703186035,8.294918060302734
1700935830392705800,14.294705810546875,0.9492329359054565,-5.154266357421875,8.292684555053711
1700935830409697000,14.311697021484376,0.9444186091423035,-5.1587090492248535,8.290472030639648
1700935830426690800,14.32869091796875,0.9419513940811157,-5.159219741821289,8.290434837341309
1700935830443682000,14.34568212890625,0.9388436079025269,-5.153932571411133,8.294075965881348
1700935830460675800,14.36267578125,0.9349549412727356,-5.146100044250488,8.299375534057617
1700935830477656600,14.379656494140624,0.93044114112854,-5.140127658843994,8.303583145141602
1700935830494660600,14.39666064453125,0.9264171123504639,-5.136580467224121,8.30622673034668
1700935830511652000,14.413652099609376,0.9221179485321045,-5.1349945068359375,8.307686805725098
1700935830528645600,14.430645751953126,0.9173989295959473,-5.134947299957275,8.308236122131348
1700935830545637000,14.44763720703125,0.9141326546669006,-5.136046886444092,8.307918548583984
1700935830562630400,14.46463037109375,0.9127913117408752,-5.137893199920654,8.306923866271973
1700935830579622100,14.4816220703125,0.9115935564041138,-5.139264106750488,8.306208610534668
1700935830596615400,14.498615478515624,0.9099138975143433,-5.137989521026611,8.30717945098877
1700935830613607200,14.515607177734376,0.9083173274993896,-5.135544300079346,8.308866500854492
1700935830630600400,14.532600341796876,0.9060372114181519,-5.134937286376953,8.309490203857422
1700935830647591700,14.549591796875,0.905493438243866,-5.137142658233643,8.308186531066895
1700935830664581400,14.566581298828124,0.90656578540802,-5.14191198348999,8.305119514465332
1700935830681576700,14.58357666015625,0.9087807536125183,-5.1480393409729,8.301080703735352
1700935830698573800,14.60057373046875,0.9110050201416016,-5.153855800628662,8.297226905822754
1700935830715548200,14.617548095703125,0.915648877620697,-5.157268047332764,8.294594764709473
1700935830732555300,14.63455517578125,0.9227082133293152,-5.158201694488525,8.293230056762695
1700935830749546800,14.651546630859375,0.9297932982444763,-5.1568193435668945,8.293299674987793
1700935830766528000,14.668528076171874,0.933804452419281,-5.153747081756592,8.294759750366211
1700935830783533600,14.685533447265625,0.9365640878677368,-5.150578498840332,8.296416282653809
1700935830800523500,14.7025234375,0.9382603168487549,-5.148316860198975,8.297626495361328
1700935830817519000,14.71951904296875,0.9379498362541199,-5.147670269012451,8.298063278198242
1700935830834510300,14.73651025390625,0.935833752155304,-5.148488998413086,8.297794342041016
1700935830851501800,14.753501708984375,0.9328703880310059,-5.1497578620910645,8.297340393066406
1700935830868495400,14.770495361328125,0.9302894473075867,-5.150043964385986,8.297452926635742
1700935830885486800,14.78748681640625,0.9279707074165344,-5.1478705406188965,8.299060821533203
1700935830902482000,14.80448193359375,0.9259306192398071,-5.144172191619873,8.301581382751465
1700935830919470000,14.821469970703125,0.9243764281272888,-5.138432025909424,8.30530834197998
1700935830936460300,14.838460205078125,0.9226386547088623,-5.130173206329346,8.310606956481934
1700935830953457000,14.855456787109375,0.9196466207504272,-5.123571395874023,8.315010070800781
1700935830970450200,14.8724501953125,0.9172778725624084,-5.120751857757568,8.317008972167969
1700935830987441200,14.889441162109375,0.9160789251327515,-5.120061874389648,8.317564964294434
1700935831004435700,14.906435791015625,0.9152243733406067,-5.1188812255859375,8.318384170532227
1700935831021426700,14.9234267578125,0.913982093334198,-5.115510940551758,8.320596694946289
1700935831038420200,14.940420166015626,0.9125682711601257,-5.110025882720947,8.324119567871094
1700935831055411700,14.95741162109375,0.9123104214668274,-5.104514122009277,8.32752799987793
1700935831072405200,14.9744052734375,0.9149147272109985,-5.101616382598877,8.329019546508789
1700935831089396700,14.991396728515625,0.9195206165313721,-5.102730751037598,8.327829360961914
1700935831106390000,15.00839013671875,0.9251500368118286,-5.1061692237854,8.325098037719727
1700935831123379500,15.02537939453125,0.9312881231307983,-5.10856294631958,8.322943687438965
1700935831140378000,15.042378173828125,0.9381024837493896,-5.106691837310791,8.323326110839844
1700935831157366000,15.059365966796875,0.9463455677032471,-5.100722312927246,8.326053619384766
1700935831174360300,15.0763603515625,0.9557198286056519,-5.0931525230407715,8.32961654663086
1700935831191350800,15.093350830078125,0.9670450091362,-5.088315010070801,8.331266403198242
1700935831208343800,15.11034375,0.9775282144546509,-5.087977886199951,8.330249786376953
1700935831225339400,15.12733935546875,0.9854558706283569,-5.091221332550049,8.32733154296875
1700935831242330000,15.144330078125,0.9907423257827759,-5.096916198730469,8.323219299316406
1700935831259321600,15.161321533203125,0.9963395595550537,-5.102998733520508,8.318824768066406
1700935831276315100,15.178315185546875,1.0030384063720703,-5.108560562133789,8.314603805541992
1700935831293306600,15.195306640625,1.0104360580444336,-5.112092971801758,8.311535835266113
1700935831310300200,15.212300048828125,1.018072485923767,-5.113332271575928,8.309843063354492
1700935831327291600,15.229291748046874,1.0252207517623901,-5.113196849822998,8.309046745300293
1700935831344285000,15.246284912109376,1.0308758020401,-5.112461090087891,8.30880069732666
1700935831361276700,15.263276611328125,1.035210371017456,-5.112089157104492,8.308490753173828
1700935831378270000,15.28027001953125,1.0387903451919556,-5.1151933670043945,8.306132316589355
1700935831395261700,15.29726171875,1.0398788452148438,-5.121973991394043,8.3018159866333
1700935831412255200,15.314255126953125,1.0377211570739746,-5.130897045135498,8.296574592590332
1700935831429246500,15.33124658203125,1.0368835926055908,-5.138033390045166,8.292261123657227
1700935831446240300,15.348240234375,1.0382325649261475,-5.140798568725586,8.290377616882324
1700935831463231500,15.3652314453125,1.0384857654571533,-5.140186309814453,8.290726661682129
1700935831480225000,15.38222509765625,1.0349587202072144,-5.136961460113525,8.293166160583496
1700935831497216300,15.39921630859375,1.0292556285858154,-5.134032249450684,8.295689582824707
1700935831514199800,15.41619970703125,1.0256543159484863,-5.132717132568359,8.296950340270996
1700935831531201500,15.433201416015624,1.0251833200454712,-5.132999420166016,8.296833038330078
1700935831548194800,15.45019482421875,1.0259671211242676,-5.134456157684326,8.295833587646484
1700935831565175800,15.46717578125,1.025592565536499,-5.136632919311523,8.294532775878906
1700935831582164700,15.484164794921876,1.0244196653366089,-5.138474464416504,8.293537139892578
1700935831599171300,15.50117138671875,1.0221669673919678,-5.139730930328369,8.293037414550781
1700935831616164900,15.518164794921875,1.020401120185852,-5.139578819274902,8.29334831237793
1700935831633153300,15.5351533203125,1.0206516981124878,-5.138379096984863,8.294060707092285
1700935831650163200,15.5521630859375,1.0237691402435303,-5.1369733810424805,8.294547080993652
1700935831667141600,15.5691416015625,1.0288091897964478,-5.135402202606201,8.294897079467773
1700935831684135000,15.586135009765625,1.0339254140853882,-5.13419771194458,8.295007705688477
1700935831701126700,15.603126708984375,1.0361249446868896,-5.133516311645508,8.295154571533203
1700935831718120200,15.6201201171875,1.0367523431777954,-5.134936332702637,8.294197082519531
1700935831735111400,15.637111328125,1.038164734840393,-5.138521194458008,8.291799545288086
1700935831752105000,15.65410498046875,1.0433948040008545,-5.144040107727051,8.2877197265625
1700935831769096200,15.67109619140625,1.0506224632263184,-5.15106725692749,8.282440185546875
1700935831786090200,15.68809033203125,1.0567615032196045,-5.1564812660217285,8.278290748596191
1700935831803081200,15.705081298828125,1.0615862607955933,-5.159492492675781,8.275794982910156
1700935831820064500,15.722064453125,1.0668309926986694,-5.159917831420898,8.274855613708496
1700935831837066500,15.73906640625,1.072446584701538,-5.159431457519531,8.274433135986328
1700935831854060000,15.75606005859375,1.0772557258605957,-5.158514499664307,8.27437973022461
1700935831871051800,15.7730517578125,1.081310749053955,-5.157354831695557,8.274574279785156
1700935831888044800,15.790044921875,1.08656644821167,-5.156490325927734,8.274425506591797
1700935831905033700,15.80703369140625,1.090101957321167,-5.155226707458496,8.274747848510742
1700935831922032400,15.824032470703125,1.090017557144165,-5.152935981750488,8.276183128356934
1700935831939021600,15.841021484375,1.0884054899215698,-5.15165901184082,8.277192115783691
1700935831956012300,15.85801220703125,1.0881034135818481,-5.152082920074463,8.27696704864502
1700935831973009200,15.875009033203124,1.0892146825790405,-5.155553340911865,8.274659156799316
1700935831989999900,15.891999755859375,1.0911024808883667,-5.15996789932251,8.271658897399902
1700935832006991400,15.908991455078125,1.0941377878189087,-5.160783290863037,8.270750045776367
1700935832023982300,15.925982421875,1.0963819026947021,-5.156793594360352,8.272940635681152
1700935832040970000,15.942969970703125,1.0960773229599,-5.1496782302856445,8.277413368225098
1700935832057955800,15.959955810546875,1.0943312644958496,-5.14310884475708,8.281726837158203
1700935832074951000,15.976950927734375,1.09348464012146,-5.140096664428711,8.283707618713379
1700935832091955200,15.993955078125,1.092263102531433,-5.140951156616211,8.283339500427246
1700935832108948200,16.0109482421875,1.0917085409164429,-5.144949913024902,8.280928611755371
1700935832125944000,16.027944091796876,1.092731237411499,-5.150723457336426,8.277204513549805
1700935832142920700,16.044920654296874,1.0947470664978027,-5.155796527862549,8.273777961730957
1700935832159924700,16.0619248046875,1.0956220626831055,-5.156964302062988,8.272934913635254
1700935832176917800,16.078917724609376,1.0949087142944336,-5.154872894287109,8.274332046508789
1700935832193908700,16.09590869140625,1.0952718257904053,-5.152355670928955,8.275853157043457
1700935832210901500,16.112901611328127,1.0957820415496826,-5.151377201080322,8.276392936706543
1700935832227894800,16.129894775390625,1.0973124504089355,-5.152168273925781,8.275697708129883
1700935832244876000,16.1468759765625,1.1000878810882568,-5.154663562774658,8.27377700805664
1700935832261880000,16.163880126953124,1.1032252311706543,-5.1565937995910645,8.272154808044434
1700935832278871300,16.180871337890625,1.105022668838501,-5.156427383422852,8.272019386291504
1700935832295864800,16.19786474609375,1.1055293083190918,-5.154359817504883,8.27324104309082
1700935832312856600,16.214856689453125,1.104962706565857,-5.1527276039123535,8.274332046508789
1700935832329849900,16.231849853515627,1.1044166088104248,-5.152376651763916,8.274624824523926
1700935832346841300,16.24884130859375,1.1026161909103394,-5.153075218200684,8.274428367614746
1700935832363835000,16.2658349609375,1.1000677347183228,-5.15396785736084,8.274213790893555
1700935832380826400,16.282826416015624,1.097841739654541,-5.154379367828369,8.274251937866211
1700935832397819600,16.299819580078125,1.096100091934204,-5.15390682220459,8.274776458740234
1700935832414811100,16.31681103515625,1.0949569940567017,-5.151812553405762,8.27623176574707
1700935832431805000,16.333804931640625,1.0924440622329712,-5.147574424743652,8.27920150756836
1700935832448793900,16.3507939453125,1.0885063409805298,-5.142930030822754,8.282605171203613
1700935832465792500,16.36779248046875,1.0864019393920898,-5.140563011169434,8.284350395202637
1700935832482781400,16.384781494140626,1.087864875793457,-5.1394267082214355,8.284862518310547
1700935832499775000,16.40177490234375,1.0885530710220337,-5.137670516967773,8.285861015319824
1700935832516766500,16.418766357421877,1.0867284536361694,-5.135770320892334,8.28727912902832
1700935832533759700,16.435759765625,1.0857075452804565,-5.135454177856445,8.287609100341797
1700935832550751200,16.452751220703124,1.0859466791152954,-5.137572765350342,8.286263465881348
1700935832567745000,16.4697451171875,1.086519479751587,-5.141308784484863,8.2838716506958
1700935832584736300,16.486736328125,1.0867860317230225,-5.145307540893555,8.281353950500488
1700935832601730000,16.50372998046875,1.0881448984146118,-5.146827220916748,8.280230522155762
1700935832618721300,16.52072119140625,1.090149998664856,-5.144533634185791,8.281393051147461
1700935832635714800,16.53771484375,1.091081976890564,-5.140349388122559,8.283868789672852
1700935832652710000,16.5547099609375,1.0900602340698242,-5.137300968170166,8.285895347595215
1700935832669696300,16.5716962890625,1.0888994932174683,-5.137076377868652,8.28618335723877
1700935832686691000,16.588691162109374,1.0885679721832275,-5.13888692855835,8.28510570526123
1700935832703684900,16.605684814453124,1.0884826183319092,-5.141908168792725,8.283243179321289
1700935832720676400,16.62267626953125,1.0867421627044678,-5.145120143890381,8.281476020812988
1700935832737670100,16.639670166015627,1.0826458930969238,-5.148017883300781,8.280211448669434
1700935832754661400,16.656661376953124,1.078551173210144,-5.149956226348877,8.279540061950684
1700935832771655000,16.673655029296874,1.0758938789367676,-5.15066385269165,8.279447555541992
1700935832788646100,16.690646240234376,1.0743876695632935,-5.1500420570373535,8.280027389526367
1700935832805639700,16.7076396484375,1.072202205657959,-5.148523807525635,8.281257629394531
1700935832822631200,16.724631103515627,1.0687663555145264,-5.147317409515381,8.282448768615723
1700935832839633700,16.741633544921875,1.0646716356277466,-5.148329734802246,8.2823486328125
1700935832856616400,16.758616455078126,1.0612132549285889,-5.149970531463623,8.281771659851074
1700935832873609700,16.775609619140624,1.0569459199905396,-5.151041030883789,8.281652450561523
1700935832890601200,16.792601318359374,1.0529778003692627,-5.152054309844971,8.281526565551758
1700935832907594800,16.8095947265625,1.0500514507293701,-5.153658866882324,8.280898094177246
1700935832924586200,16.826586181640625,1.0470901727676392,-5.155155658721924,8.280344009399414
1700935832941579800,16.843579833984375,1.0432740449905396,-5.156207084655762,8.280171394348145
1700935832958571500,16.860571533203125,1.0388973951339722,-5.157077789306641,8.28017807006836
1700935832975565000,16.87756494140625,1.0353434085845947,-5.157951831817627,8.28007984161377
1700935832992556500,16.894556640625,1.0327694416046143,-5.159165859222412,8.279644966125488
1700935833009547800,16.9115478515625,1.0307177305221558,-5.160837650299072,8.27885913848877
1700935833026541000,16.928541015625,1.0285465717315674,-5.163173675537109,8.277671813964844
1700935833043537700,16.94553759765625,1.0271319150924683,-5.165353298187256,8.27648639678955
1700935833060526000,16.962526123046874,1.0260297060012817,-5.167200565338135,8.275470733642578
1700935833077520100,16.97952001953125,1.024905800819397,-5.169004440307617,8.274483680725098
1700935833094511600,16.99651171875,1.0239989757537842,-5.169527053833008,8.27426815032959
1700935833111505000,17.0135048828125,1.0217784643173218,-5.1681718826293945,8.275390625
1700935833128496400,17.030496337890625,1.0189343690872192,-5.16829252243042,8.275665283203125
1700935833145490200,17.047490234375,1.0191106796264648,-5.171363830566406,8.273725509643555
1700935833162481400,17.0644814453125,1.0184917449951172,-5.176180839538574,8.270790100097656
1700935833179474700,17.081474609375,1.0138218402862549,-5.181868076324463,8.267800331115723
1700935833196466200,17.098466064453124,1.0083576440811157,-5.187065124511719,8.265210151672363
1700935833213460000,17.1154599609375,1.0068385601043701,-5.188569068908691,8.264451026916504
1700935833230451500,17.132451416015623,1.0082857608795166,-5.184709548950195,8.26669692993164
1700935833247444700,17.14944482421875,1.0084959268569946,-5.178243160247803,8.270723342895508
1700935833264436200,17.166436279296875,1.006698489189148,-5.174472808837891,8.273300170898438
1700935833281426400,17.183426513671876,1.005105972290039,-5.176049709320068,8.27250862121582
1700935833298419000,17.2004189453125,1.0044175386428833,-5.181434154510498,8.269221305847168
1700935833315417300,17.217417236328124,1.003519892692566,-5.187674522399902,8.26541519165039
1700935833332406300,17.23440625,1.0015915632247925,-5.192526340484619,8.262601852416992
1700935833349400000,17.251400146484375,0.9985781908035278,-5.195262432098389,8.261247634887695
1700935833366391600,17.2683916015625,0.9957934617996216,-5.196184158325195,8.261005401611328
1700935833383384800,17.285384765625,0.9947552680969238,-5.195934295654297,8.261285781860352
1700935833400372200,17.302372314453127,0.9935229420661926,-5.195484161376953,8.261716842651367
1700935833417374200,17.319374267578127,0.9923783540725708,-5.196584701538086,8.261162757873535
1700935833434363100,17.336363037109376,0.990233302116394,-5.1974287033081055,8.260890007019043
1700935833451353000,17.35335302734375,0.9858973026275635,-5.196669101715088,8.261886596679688
1700935833468346400,17.370346435546875,0.9801065325737,-5.194295883178711,8.264067649841309
1700935833485322200,17.387322265625,0.9725837707519531,-5.191142559051514,8.266936302185059
1700935833502329000,17.4043291015625,0.9658419489860535,-5.188323974609375,8.269495964050293
1700935833519327700,17.42132763671875,0.9623061418533325,-5.187168121337891,8.27063274383545
1700935833536316400,17.43831640625,0.9620447754859924,-5.18725061416626,8.270611763000488
1700935833553310200,17.455310302734375,0.9620757699012756,-5.186954021453857,8.270794868469238
1700935833570301400,17.472301513671876,0.9611744284629822,-5.184744834899902,8.272283554077148
1700935833587295000,17.489294921875,0.9596635103225708,-5.179525375366211,8.275728225708008
1700935833604286500,17.506286376953124,0.9579771757125854,-5.172744274139404,8.280162811279297
1700935833621280000,17.523280029296874,0.9576634764671326,-5.1652374267578125,8.28488540649414
1700935833638271500,17.540271484375,0.958803653717041,-5.158098220825195,8.289201736450195
1700935833655262500,17.557262451171876,0.9604052305221558,-5.152490615844727,8.292501449584961
1700935833672259300,17.57425927734375,0.9622304439544678,-5.1487507820129395,8.2946138381958
1700935833689250000,17.59125,0.9644628763198853,-5.145120620727539,8.296605110168457
1700935833706241300,17.6082412109375,0.9666313529014587,-5.139803409576416,8.299647331237793
1700935833723235000,17.625235107421876,0.9693622589111328,-5.135294437408447,8.302120208740234
1700935833740226600,17.6422265625,0.9740906357765198,-5.133208751678467,8.302855491638184
1700935833757209300,17.659209228515625,0.979269802570343,-5.1337809562683105,8.30189323425293
1700935833774211600,17.676211669921877,0.9818761944770813,-5.136140823364258,8.300126075744629
1700935833791205000,17.693205078125,0.9834166169166565,-5.138256549835205,8.29863452911377
1700935833808196600,17.710196533203124,0.9861867427825928,-5.137362957000732,8.298858642578125
1700935833825190000,17.72718994140625,0.9896424412727356,-5.132556438446045,8.301422119140625
1700935833842180600,17.7441806640625,0.9934972524642944,-5.126519203186035,8.304691314697266
1700935833859171600,17.761171630859376,0.9982539415359497,-5.122035503387451,8.306886672973633
1700935833876156400,17.778156494140624,1.0038301944732666,-5.119696140289307,8.307657241821289
1700935833893160200,17.79516015625,1.0089949369430542,-5.118565082550049,8.307727813720703
1700935833910151700,17.812151611328126,1.0133415460586548,-5.117208480834961,8.30803394317627
1700935833927145000,17.82914501953125,1.0167971849441528,-5.113546848297119,8.309865951538086
1700935833944136700,17.84613671875,1.0203449726104736,-5.1060004234313965,8.314071655273438
1700935833961130000,17.8631298828125,1.0227090120315552,-5.09471321105957,8.320701599121094
1700935833978121500,17.88012158203125,1.024048924446106,-5.07905912399292,8.33010196685791
1700935833995115300,17.897115234375,1.0186847448349,-5.060097694396973,8.342290878295898
1700935834012106800,17.914106689453124,1.011147379875183,-5.041343688964844,8.354552268981934
1700935834029100300,17.931100341796874,1.00711190700531,-5.02304744720459,8.36605167388916
1700935834046091800,17.948091796875,1.0086710453033447,-5.005598545074463,8.37631607055664
1700935834063085300,17.965085205078125,1.011319875717163,-4.987297534942627,8.386906623840332
1700935834080076800,17.982076904296875,1.009052038192749,-4.964849948883057,8.400487899780273
1700935834097070000,17.999070068359377,1.0036720037460327,-4.9399614334106445,8.415790557861328
1700935834114061800,18.016061767578126,0.9981604218482971,-4.91547155380249,8.43077278137207
1700935834131052300,18.03305224609375,0.995596706867218,-4.893742084503174,8.443707466125488
1700935834148049200,18.050049072265626,0.9943795800209045,-4.87466287612915,8.454879760742188
1700935834165030400,18.067030517578125,0.9918918609619141,-4.856293201446533,8.465734481811523
1700935834182032100,18.0840322265625,0.9866159558296204,-4.838572978973389,8.476492881774902
1700935834199025000,18.10102490234375,0.9779942035675049,-4.8250861167907715,8.485176086425781
1700935834216017000,18.118016845703124,0.9677239060401917,-4.819445610046387,8.489555358886719
1700935834233010200,18.13501025390625,0.9588791131973267,-4.8220295906066895,8.489092826843262
1700935834250000100,18.152000244140623,0.9513876438140869,-4.828232288360596,8.486410140991211
1700935834266995500,18.168995361328125,0.9428726434707642,-4.834713935852051,8.483670234680176
1700935834283986700,18.185986572265627,0.9299765825271606,-4.839636325836182,8.482285499572754
1700935834300980500,18.20298046875,0.9136269092559814,-4.842526435852051,8.482414245605469
1700935834317972000,18.219971923828126,0.8991299271583557,-4.843034744262695,8.483673095703125
1700935834334965200,18.23696533203125,0.8892977833747864,-4.8421196937561035,8.485230445861816
1700935834351956500,18.25395654296875,0.8823986649513245,-4.84087610244751,8.48666000366211
1700935834368950300,18.2709501953125,0.8748089671134949,-4.837308883666992,8.489479064941406
1700935834385942000,18.28794189453125,0.8628359436988831,-4.825113773345947,8.497640609741211
1700935834402935600,18.304935546875,0.8483272194862366,-4.800574779510498,8.512986183166504
1700935834419927000,18.321927001953124,0.8341243267059326,-4.766401767730713,8.53356647491455
1700935834436920300,18.33892041015625,0.8291457295417786,-4.732729434967041,8.552772521972656
1700935834453911800,18.355911865234376,0.8351271748542786,-4.701066493988037,8.569636344909668
1700935834470903000,18.372903076171873,0.8419637084007263,-4.664547920227051,8.588900566101074
1700935834487899100,18.389899169921875,0.8392345309257507,-4.620137691497803,8.613138198852539
1700935834504890000,18.40689013671875,0.8220323324203491,-4.572551250457764,8.64014720916748
1700935834521881600,18.423881591796874,0.7931985259056091,-4.522557735443115,8.669106483459473
1700935834538865200,18.440865234375,0.761691689491272,-4.4699931144714355,8.699142456054688
1700935834555867000,18.457866943359374,0.7392655611038208,-4.421451091766357,8.725844383239746
1700935834572857900,18.47485791015625,0.729770839214325,-4.3846588134765625,8.745187759399414
1700935834589854500,18.4918544921875,0.7207529544830322,-4.350800037384033,8.762829780578613
1700935834606845200,18.50884521484375,0.7068299055099487,-4.318257808685303,8.78004264831543
1700935834623837000,18.5258369140625,0.6824607253074646,-4.288236141204834,8.796669960021973
1700935834640830500,18.54283056640625,0.6539874076843262,-4.261607646942139,8.811759948730469
1700935834657822200,18.559822265625,0.6300877928733826,-4.236636638641357,8.825532913208008
1700935834674820000,18.576820068359375,0.6140658259391785,-4.21276330947876,8.838080406188965
1700935834691807000,18.593806884765623,0.6046047806739807,-4.191502094268799,8.848834991455078
1700935834708800500,18.610800537109377,0.5982321500778198,-4.172884464263916,8.858061790466309
1700935834725781200,18.62778125,0.5895899534225464,-4.1578755378723145,8.86569595336914
1700935834742785500,18.64478564453125,0.5765764117240906,-4.148416519165039,8.87098217010498
1700935834759774200,18.661774169921873,0.5612596273422241,-4.146907329559326,8.87267017364502
1700935834776773000,18.678773193359376,0.5489936470985413,-4.15093469619751,8.871553421020508
1700935834793761800,18.69576171875,0.5405537486076355,-4.157512187957764,8.868990898132324
1700935834810755800,18.712755859375,0.5306158661842346,-4.1650238037109375,8.866067886352539
1700935834827747000,18.7297470703125,0.5157905220985413,-4.17149019241333,8.863901138305664
1700935834844738000,18.746738037109374,0.4952998161315918,-4.176316261291504,8.862798690795898
1700935834861734400,18.763734375,0.4727579355239868,-4.182135581970215,8.861285209655762
1700935834878725600,18.7807255859375,0.4508931338787079,-4.190989017486572,8.858240127563477
1700935834895716900,18.797716796875,0.43208470940589905,-4.20295524597168,8.853506088256836
1700935834912710700,18.814710693359373,0.4158572256565094,-4.216945648193359,8.847630500793457
1700935834929702000,18.831701904296875,0.39724960923194885,-4.227263450622559,8.843559265136719
1700935834946695700,18.84869580078125,0.37491706013679504,-4.234113693237305,8.841257095336914
1700935834963687200,18.865687255859374,0.35354897379875183,-4.241332054138184,8.838677406311035
1700935834980680400,18.882680419921876,0.3403158485889435,-4.249309539794922,8.835365295410156
1700935834997672000,18.899671875,0.3368186354637146,-4.25591516494751,8.832318305969238
1700935835014664700,18.916664794921875,0.3392113149166107,-4.259706497192383,8.830399513244629
1700935835031658000,18.933657958984377,0.3449570834636688,-4.262143135070801,8.829001426696777
1700935835048650800,18.950650634765626,0.353840172290802,-4.265564918518066,8.826997756958008
1700935835065642200,18.967642333984376,0.36226484179496765,-4.268862724304199,8.825061798095703
1700935835082635800,18.9846357421875,0.3674919605255127,-4.2706146240234375,8.823996543884277
1700935835099627300,19.001627197265623,0.36977413296699524,-4.270745277404785,8.82383918762207
1700935835116620800,19.018620849609373,0.37265682220458984,-4.27001953125,8.824069023132324
1700935835133612000,19.035612060546875,0.3767250180244446,-4.270749568939209,8.823542594909668
1700935835150605800,19.052605712890625,0.38172614574432373,-4.272067070007324,8.822689056396484
1700935835167597300,19.069597412109374,0.3851458728313446,-4.27455997467041,8.821332931518555
1700935835184590800,19.0865908203125,0.3868696391582489,-4.278071403503418,8.819554328918457
1700935835201582600,19.10358251953125,0.3873441517353058,-4.280384063720703,8.818411827087402
1700935835218576000,19.120575927734375,0.3868100047111511,-4.280048370361328,8.818597793579102
1700935835235556600,19.137556640625,0.38506606221199036,-4.278740406036377,8.81930923461914
1700935835252560600,19.154560546875,0.38470879197120667,-4.277507781982422,8.819924354553223
1700935835269549800,19.1715498046875,0.38774847984313965,-4.276921272277832,8.820075035095215
1700935835286537500,19.188537353515624,0.3935927748680115,-4.276544570922852,8.819998741149902
1700935835303531500,19.205531494140626,0.4021013379096985,-4.275274753570557,8.820229530334473
1700935835320531000,19.222531005859373,0.40850579738616943,-4.273899555206299,8.820603370666504
1700935835337512000,19.239511962890624,0.41181913018226624,-4.273078441619873,8.820845603942871
1700935835354516200,19.25651611328125,0.41408199071884155,-4.269131183624268,8.822650909423828
1700935835371507200,19.273507080078126,0.41263216733932495,-4.262759685516357,8.825798988342285
1700935835388500700,19.290500732421876,0.40939778089523315,-4.255206108093262,8.829594612121582
1700935835405492200,19.3074921875,0.4071512818336487,-4.247281551361084,8.833513259887695
1700935835422475500,19.3244755859375,0.40448877215385437,-4.241086483001709,8.836610794067383
1700935835439466800,19.341466796875,0.4006907045841217,-4.23646879196167,8.83899974822998
1700935835456471000,19.358470947265626,0.3968254029750824,-4.2332072257995605,8.84073543548584
1700935835473447400,19.375447509765625,0.39498090744018555,-4.230081081390381,8.842315673828125
1700935835490456300,19.392456298828126,0.39616087079048157,-4.223018169403076,8.845636367797852
1700935835507447300,19.409447265625,0.3986143469810486,-4.211171627044678,8.851171493530273
1700935835524440800,19.42644091796875,0.40185898542404175,-4.196737766265869,8.857878684997559
1700935835541432300,19.443432373046875,0.405911386013031,-4.181439399719238,8.864927291870117
1700935835558426000,19.460426025390625,0.4111010730266571,-4.168456554412842,8.870800971984863
1700935835575417600,19.47741748046875,0.4165360629558563,-4.156673431396484,8.876072883605957
1700935835592403700,19.49440380859375,0.4230808615684509,-4.141737461090088,8.882743835449219
1700935835609402600,19.511402587890625,0.42947420477867126,-4.122298240661621,8.891475677490234
1700935835626396200,19.528396240234375,0.435682475566864,-4.098993301391602,8.90194034576416
1700935835643387600,19.5453876953125,0.4439811408519745,-4.07151985168457,8.914130210876465
1700935835660381200,19.562381103515627,0.4551481604576111,-4.041322708129883,8.927298545837402
1700935835677372700,19.57937255859375,0.4698159098625183,-4.008458614349365,8.94134521484375
1700935835694366500,19.596366455078126,0.48667898774147034,-3.9693593978881836,8.957869529724121
1700935835711357700,19.613357666015624,0.5002447962760925,-3.9227919578552246,8.977615356445312
1700935835728351200,19.630351318359374,0.5130689144134521,-3.8694968223571777,8.999993324279785
1700935835745342700,19.6473427734375,0.5302425026893616,-3.813579559326172,9.022836685180664
1700935835762337500,19.664337646484373,0.5502229928970337,-3.761995553970337,9.043272018432617
1700935835779326200,19.681326171875,0.5698594450950623,-3.7193493843078613,9.059680938720703
1700935835796321000,19.698321044921876,0.5857509970664978,-3.6865234375,9.072076797485352
1700935835813320200,19.7153203125,0.5974714159965515,-3.6626968383789062,9.080957412719727
1700935835830306300,19.732306396484375,0.6061151027679443,-3.647489547729492,9.086504936218262
1700935835847287000,19.749287109375,0.6129241585731506,-3.641098737716675,9.08860969543457
1700935835864291300,19.766291259765627,0.6148248314857483,-3.6418778896331787,9.088170051574707
1700935835881283000,19.783282958984376,0.6086615324020386,-3.647955894470215,9.086146354675293
1700935835898276400,19.8002763671875,0.5979377627372742,-3.658684492111206,9.082544326782227
1700935835915267600,19.817267578125,0.5865622758865356,-3.672381639480591,9.077757835388184
1700935835932261400,19.834261474609374,0.5769880414009094,-3.6875200271606445,9.072232246398926
1700935835949253000,19.851253173828123,0.5679634809494019,-3.703428030014038,9.06631851196289
1700935835966246400,19.868246337890625,0.553424060344696,-3.7172515392303467,9.06156063079834
1700935835983240200,19.885240234375,0.5329190492630005,-3.7258596420288086,9.059253692626953
1700935836000231400,19.9022314453125,0.5106672048568726,-3.7346787452697754,9.056903839111328
1700935836017228500,19.919228515625,0.49060070514678955,-3.748164176940918,9.052440643310547
1700935836034216400,19.936216552734376,0.47386452555656433,-3.7670276165008545,9.045501708984375
1700935836051205400,19.953205322265624,0.4599522352218628,-3.789433002471924,9.03685474395752
1700935836068204300,19.970204345703124,0.4458893835544586,-3.8140504360198975,9.027198791503906
1700935836085193200,19.987193115234376,0.4284132421016693,-3.8371798992156982,9.018238067626953
1700935836102186500,20.0041865234375,0.40666744112968445,-3.857102870941162,9.010744094848633
1700935836119178000,20.021177978515624,0.385782927274704,-3.875530958175659,9.003752708435059
1700935836136171500,20.038171630859374,0.3685927093029022,-3.891040325164795,8.997780799865723
1700935836153163000,20.0551630859375,0.3519290089607239,-3.8996551036834717,8.994717597961426
1700935836170156500,20.072156494140625,0.3308231830596924,-3.900660514831543,8.99508285522461
1700935836187148000,20.08914794921875,0.30721360445022583,-3.8949320316314697,8.998403549194336
1700935836204141800,20.106141845703124,0.2861919701099396,-3.883005380630493,9.004246711730957
1700935836221133600,20.123133544921874,0.2690584659576416,-3.866795539855957,9.011748313903809
1700935836238126600,20.140126708984376,0.2543196976184845,-3.8505072593688965,9.019148826599121
1700935836255118000,20.1571181640625,0.24264952540397644,-3.8352627754211426,9.025962829589844
1700935836272109300,20.174109375,0.23528553545475006,-3.820225954055786,9.03253173828125
1700935836289103000,20.19110302734375,0.22933949530124664,-3.8069028854370117,9.03830623626709
1700935836306099500,20.208099365234375,0.22593730688095093,-3.797140121459961,9.042500495910645
1700935836323088100,20.225088134765624,0.224370539188385,-3.794938802719116,9.043462753295898
1700935836340082000,20.24208203125,0.22319261729717255,-3.8001787662506104,9.041291236877441
1700935836357073400,20.259073486328123,0.22194628417491913,-3.8117523193359375,9.036447525024414
1700935836374066700,20.276066650390625,0.21882006525993347,-3.8262863159179688,9.030381202697754
1700935836391058700,20.29305859375,0.2130623161792755,-3.841437339782715,9.024083137512207
1700935836408052000,20.310052001953125,0.21009163558483124,-3.8579018115997314,9.01712703704834
1700935836425043500,20.32704345703125,0.21411891281604767,-3.8762009143829346,9.009181022644043
1700935836442036700,20.34403662109375,0.22035525739192963,-3.8948285579681396,9.000992774963379
1700935836459028200,20.3610283203125,0.2221570760011673,-3.912708044052124,8.993189811706543
1700935836476022300,20.378022216796875,0.22020702064037323,-3.9261062145233154,8.987399101257324
1700935836493013500,20.395013427734376,0.21752811968326569,-3.9331910610198975,8.984365463256836
1700935836510006800,20.4120068359375,0.2165270894765854,-3.9337189197540283,8.984158515930176
1700935836526998500,20.42899853515625,0.2177634835243225,-3.9308085441589355,8.98540210723877
1700935836543991800,20.44599169921875,0.2201058715581894,-3.9239628314971924,8.988336563110352
1700935836560983300,20.4629833984375,0.22182582318782806,-3.914564847946167,8.992391586303711
1700935836577977000,20.47997705078125,0.2237410843372345,-3.9055533409118652,8.996260643005371
1700935836594968600,20.496968505859375,0.2269427329301834,-3.8978734016418457,8.99951171875
1700935836611962000,20.513962158203125,0.2313632220029831,-3.8911373615264893,9.002312660217285
1700935836628953600,20.53095361328125,0.23105068504810333,-3.8827576637268066,9.005938529968262
1700935836645940700,20.547940673828126,0.22687022387981415,-3.8713815212249756,9.010939598083496
1700935836662938600,20.564938720703125,0.22314906120300293,-3.857034206390381,9.017183303833008
1700935836679931100,20.58193115234375,0.2251967489719391,-3.8433022499084473,9.022994041442871
1700935836696924700,20.598924560546877,0.23264990746974945,-3.828805685043335,9.028966903686523
1700935836713907000,20.615906982421876,0.23706045746803284,-3.8115363121032715,9.03615665435791
1700935836730909000,20.632908935546876,0.23815622925758362,-3.791252613067627,9.044655799865723
1700935836747902200,20.649902099609374,0.2409643530845642,-3.768192768096924,9.05421257019043
1700935836764893700,20.666893798828124,0.2461838722229004,-3.7427353858947754,9.064626693725586
1700935836781884700,20.683884765625,0.25024592876434326,-3.7174346446990967,9.074919700622559
1700935836798881500,20.700881591796875,0.252090722322464,-3.6941239833831787,9.084383964538574
1700935836815861500,20.717861572265626,0.2543211579322815,-3.6732733249664307,9.09277057647705
1700935836832862200,20.7348623046875,0.25697872042655945,-3.653656482696533,9.100598335266113
1700935836849858800,20.75185888671875,0.2576119601726532,-3.635174036026001,9.107976913452148
1700935836866832600,20.76883251953125,0.25540873408317566,-3.6166553497314453,9.115409851074219
1700935836883842600,20.785842529296875,0.25217318534851074,-3.598503828048706,9.122679710388184
1700935836900834000,20.802833984375,0.25068652629852295,-3.582860231399536,9.128878593444824
1700935836917827600,20.81982763671875,0.25143963098526,-3.570901870727539,9.13354206085205
1700935836934818800,20.83681884765625,0.2528388798236847,-3.5626890659332275,9.13670825958252
1700935836951812400,20.853812255859374,0.24896743893623352,-3.556907892227173,9.139065742492676
1700935836968804000,20.87080419921875,0.23968848586082458,-3.5525529384613037,9.141008377075195
1700935836985798000,20.8877978515625,0.22885243594646454,-3.550276517868042,9.142170906066895
1700935837002789000,20.9047890625,0.21931152045726776,-3.5496885776519775,9.142631530761719
1700935837019782700,20.92178271484375,0.20989282429218292,-3.5508217811584473,9.142413139343262
1700935837036774400,20.9387744140625,0.2022514045238495,-3.5546796321868896,9.141087532043457
1700935837053761000,20.955760986328126,0.19410037994384766,-3.5609192848205566,9.138833999633789
1700935837070756600,20.972756591796873,0.18573564291000366,-3.566956043243408,9.136653900146484
1700935837087752700,20.989752685546875,0.17430725693702698,-3.570666790008545,9.135431289672852
1700935837104746800,21.006746826171874,0.1615544855594635,-3.5745208263397217,9.134157180786133
1700935837121737700,21.02373779296875,0.15104205906391144,-3.5813651084899902,9.1316556930542
1700935837138729200,21.040729248046876,0.14162074029445648,-3.5904159545898438,9.128250122070312
1700935837155723000,21.057722900390626,0.12892760336399078,-3.601060628890991,9.124247550964355
1700935837172714000,21.0747138671875,0.11305621266365051,-3.6147403717041016,9.119046211242676
1700935837189708300,21.091708251953126,0.09725557267665863,-3.628232955932617,9.113866806030273
1700935837206699300,21.10869921875,0.08250217139720917,-3.6382648944854736,9.110013008117676
1700935837223692800,21.12569287109375,0.07284139841794968,-3.6458797454833984,9.107049942016602
1700935837240684500,21.1426845703125,0.06975173205137253,-3.651719331741333,9.104734420776367
1700935837257678000,21.159677978515624,0.06707604229450226,-3.6555113792419434,9.103233337402344
1700935837274669300,21.17666943359375,0.06106305867433548,-3.6578493118286133,9.102336883544922
1700935837291663000,21.1936630859375,0.056383535265922546,-3.660707950592041,9.101219177246094
1700935837308654600,21.210654541015625,0.0565437488257885,-3.6673824787139893,9.098527908325195
1700935837325648100,21.227648193359375,0.05938900262117386,-3.6768693923950195,9.094680786132812
1700935837342639400,21.244639404296876,0.06359753757715225,-3.6841185092926025,9.091718673706055
1700935837359633000,21.2616328125,0.06834927946329117,-3.6823108196258545,9.092416763305664
1700935837376614100,21.2786142578125,0.07591761648654938,-3.6704440116882324,9.097153663635254
1700935837393618200,21.2956181640625,0.08744101971387863,-3.654881238937378,9.103313446044922
1700935837410609400,21.312609375,0.10032565146684647,-3.641664981842041,9.108477592468262
1700935837427603000,21.32960302734375,0.1131608784198761,-3.63588285446167,9.110635757446289
1700935837444593400,21.346593505859374,0.1284867227077484,-3.6394495964050293,9.109007835388184
1700935837461589800,21.36358984375,0.14426690340042114,-3.6520936489105225,9.10370922088623
1700935837478578700,21.38057861328125,0.15627269446849823,-3.668696165084839,9.096833229064941
1700935837495574300,21.39757421875,0.16388021409511566,-3.685473680496216,9.089916229248047
1700935837512564700,21.414564697265625,0.17045161128044128,-3.7032856941223145,9.082551956176758
1700935837529558300,21.431558349609375,0.17669087648391724,-3.723259449005127,9.074262619018555
1700935837546550000,21.448550048828125,0.18241238594055176,-3.7440433502197266,9.065593719482422
1700935837563543300,21.465543212890626,0.18858090043067932,-3.765138626098633,9.056727409362793
1700935837580534800,21.48253466796875,0.19531863927841187,-3.7868449687957764,9.047529220581055
1700935837597528300,21.4995283203125,0.20207276940345764,-3.805405855178833,9.039588928222656
1700935837614519800,21.516519775390623,0.20587725937366486,-3.8188626766204834,9.033825874328613
1700935837631502800,21.5335029296875,0.20666371285915375,-3.8308186531066895,9.0287446975708
1700935837648505000,21.550505126953126,0.20822404325008392,-3.8464486598968506,9.022061347961426
1700935837665498400,21.567498291015625,0.2114247977733612,-3.866901397705078,9.013238906860352
1700935837682490000,21.584489990234374,0.21318510174751282,-3.889298677444458,9.003556251525879
1700935837699483600,21.601483642578124,0.21248899400234222,-3.9108359813690186,8.994239807128906
1700935837716472600,21.61847265625,0.21301202476024628,-3.931084156036377,8.985395431518555
1700935837733471000,21.635470947265624,0.2140563428401947,-3.9453797340393066,8.97910213470459
1700935837750460000,21.6524599609375,0.2127901315689087,-3.9533772468566895,8.975614547729492
1700935837767453700,21.66945361328125,0.2083710879087448,-3.9573802947998047,8.973952293395996
1700935837784445200,21.686445068359376,0.20263321697711945,-3.9591026306152344,8.973325729370117
1700935837801438500,21.7034384765625,0.19940321147441864,-3.9571194648742676,8.974271774291992
1700935837818430000,21.720429931640624,0.20005342364311218,-3.94785213470459,8.978340148925781
1700935837835423700,21.737423828125,0.20159825682640076,-3.93235445022583,8.985103607177734
1700935837852415200,21.754415283203127,0.2006504237651825,-3.9138548374176025,8.993197441101074
1700935837869406200,21.77140625,0.19738154113292694,-3.894540786743164,9.0016508102417
1700935837886402600,21.788402587890626,0.19224593043327332,-3.876110553741455,9.009714126586914
1700935837903393800,21.805393798828124,0.18647590279579163,-3.8606369495391846,9.016475677490234
1700935837920374500,21.82237451171875,0.18168878555297852,-3.8477752208709717,9.022068977355957
1700935837937379000,21.839379150390624,0.17658329010009766,-3.8364384174346924,9.026997566223145
1700935837954368000,21.856367919921876,0.16996131837368011,-3.823697328567505,9.032529830932617
1700935837971366700,21.87336669921875,0.161624938249588,-3.805969715118408,9.040164947509766
1700935837988355600,21.89035546875,0.15153293311595917,-3.785220146179199,9.04904842376709
1700935838005348900,21.907348876953126,0.1426650583744049,-3.7649075984954834,9.057662963867188
1700935838022332400,21.92433251953125,0.13786156475543976,-3.747952938079834,9.064765930175781
1700935838039334100,21.941334228515625,0.13787266612052917,-3.7318859100341797,9.071391105651855
