time,seconds_elapsed,z,y,x
1700936000806501600,0.147501708984375,8.31046199798584,5.063433647155762,1.2385367155075073
1700936000823493000,0.1644931640625,8.3163480758667,5.056657791137695,1.226654052734375
1700936000840482800,0.18148291015625,8.322310447692871,5.047797203063965,1.2227015495300293
1700936000857468400,0.198468505859375,8.32536792755127,5.041342258453369,1.2285085916519165
1700936000874468600,0.215468505859375,8.326187133789062,5.037691593170166,1.2378935813903809
1700936000891470300,0.23247021484375,8.324376106262207,5.0381669998168945,1.2480964660644531
1700936000908456200,0.249456298828125,8.300931930541992,5.06354284286499,1.3004456758499146
1700936000925450000,0.266449951171875,8.265384674072266,5.107998371124268,1.3519879579544067
1700936000942451500,0.283451416015625,8.19981861114502,5.188122272491455,1.443075180053711
1700936000959436000,0.30043603515625,8.124608039855957,5.2754716873168945,1.5479804277420044
1700936000976432400,0.317432373046875,8.063008308410645,5.341383934020996,1.641228437423706
1700936000993426700,0.3344267578125,8.023587226867676,5.377352237701416,1.7152915000915527
1700936001010417000,0.3514169921875,8.004359245300293,5.388545513153076,1.7691608667373657
1700936001027412700,0.368412841796875,7.987622261047363,5.392004489898682,1.833107590675354
1700936001044405000,0.385405029296875,7.952669620513916,5.4070820808410645,1.9376846551895142
1700936001061397800,0.402397705078125,7.891330242156982,5.444510459899902,2.0785391330718994
1700936001078394000,0.41939404296875,7.821619510650635,5.485229015350342,2.229494094848633
1700936001095385300,0.43638525390625,7.76268196105957,5.507623672485352,2.3754916191101074
1700936001112384500,0.453384521484375,7.715623378753662,5.512612342834473,2.513237476348877
1700936001129364000,0.470364013671875,7.667048454284668,5.511735916137695,2.6595582962036133
1700936001146368500,0.487368408203125,7.594577312469482,5.525341510772705,2.833568811416626
1700936001163360500,0.504360595703125,7.50569486618042,5.540754318237305,3.033264398574829
1700936001180351700,0.521351806640625,7.440032958984375,5.5237836837768555,3.220221519470215
1700936001197346000,0.538345947265625,7.441013813018799,5.456268787384033,3.3311498165130615
1700936001214339000,0.555339111328125,7.4895782470703125,5.36269474029541,3.3739936351776123
1700936001231331000,0.5723310546875,7.519742965698242,5.3043060302734375,3.3991057872772217
1700936001248326000,0.589325927734375,7.4738545417785645,5.310482501983643,3.4894673824310303
1700936001265316600,0.606316650390625,7.3363423347473145,5.364102363586426,3.693316698074341
1700936001282305300,0.62330517578125,7.137916088104248,5.4340009689331055,3.969622850418091
1700936001299300900,0.64030078125,6.9416184425354,5.4769392013549805,4.248904705047607
1700936001316300300,0.65730029296875,6.795602321624756,5.477187633514404,4.478427410125732
1700936001333284000,0.6742841796875,6.681743621826172,5.44504451751709,4.6842193603515625
1700936001350288400,0.691288330078125,6.551176071166992,5.396821022033691,4.9185895919799805
1700936001367279600,0.708279541015625,6.391051292419434,5.328333854675293,5.196096897125244
1700936001384274700,0.725274658203125,6.235875129699707,5.215896129608154,5.490391731262207
1700936001401264000,0.74226416015625,6.135247230529785,5.057156085968018,5.746305465698242
1700936001418261500,0.759261474609375,6.1086907386779785,4.856927394866943,5.94392728805542
1700936001435253000,0.7762529296875,6.116008758544922,4.617239475250244,6.124675273895264
1700936001452248600,0.79324853515625,6.096683502197266,4.3844475746154785,6.312145233154297
1700936001469239600,0.810239501953125,5.990671634674072,4.171761989593506,6.553195953369141
1700936001486235000,0.82723486328125,5.850393295288086,3.9456305503845215,6.814764022827148
1700936001503228700,0.844228759765625,5.722240924835205,3.7067337036132812,7.053524017333984
1700936001520218000,0.861218017578125,5.644398212432861,3.461832284927368,7.238273620605469
1700936001537214000,0.8782138671875,5.581302642822266,3.222608804702759,7.395941734313965
1700936001554198000,0.895197998046875,5.463218688964844,2.983407974243164,7.582125663757324
1700936001571196200,0.912196044921875,5.288431167602539,2.7393457889556885,7.795163631439209
1700936001588198000,0.929197998046875,5.105090618133545,2.4983890056610107,7.995761871337891
1700936001605186800,0.946186767578125,4.951591491699219,2.266423463821411,8.159729957580566
1700936001622183200,0.96318310546875,4.84780740737915,2.034308910369873,8.282299041748047
1700936001639171000,0.980171142578125,4.753562927246094,1.8080542087554932,8.388724327087402
1700936001656157400,0.997157470703125,4.6176629066467285,1.5907135009765625,8.507816314697266
1700936001673159400,1.014159423828125,4.433230876922607,1.3789904117584229,8.641815185546875
1700936001690155000,1.031155029296875,4.234704494476318,1.171662449836731,8.77100944519043
1700936001707148000,1.04814794921875,4.0708842277526855,0.9599251747131348,8.873700141906738
1700936001724130800,1.065130859375,3.9648756980895996,0.7290542721748352,8.943397521972656
1700936001741131800,1.0821318359375,3.878528356552124,0.4800467789173126,8.997925758361816
1700936001758129200,1.099129150390625,3.778679132461548,0.23156027495861053,9.050086975097656
1700936001775121000,1.116120849609375,3.647341251373291,0.009444423019886017,9.106752395629883
1700936001792116500,1.133116455078125,3.4913618564605713,-0.18963193893432617,9.165727615356445
1700936001809109200,1.150109130859375,3.341397285461426,-0.3842322528362274,9.215396881103516
1700936001826098400,1.167098388671875,3.2237560749053955,-0.5945876240730286,9.246079444885254
1700936001843095800,1.184095703125,3.130375385284424,-0.831139326095581,9.259918212890625
1700936001860085800,1.201085693359375,3.0293736457824707,-1.0818129777908325,9.26761531829834
1700936001877081000,1.2180810546875,2.889958381652832,-1.3195136785507202,9.281332015991211
1700936001894076400,1.235076416015625,2.710693597793579,-1.533518671989441,9.302504539489746
1700936001911065300,1.2520654296875,2.5198357105255127,-1.7320070266723633,9.321304321289062
1700936001928062000,1.26906201171875,2.3538460731506348,-1.9248069524765015,9.326876640319824
1700936001945055000,1.286054931640625,2.212170362472534,-2.1199870109558105,9.319231033325195
1700936001962049800,1.3030498046875,2.073455810546875,-2.318725109100342,9.303784370422363
1700936001979032300,1.3200322265625,1.933511734008789,-2.520571708679199,9.281399726867676
1700936001996037400,1.337037353515625,1.8126118183135986,-2.7318429946899414,9.245948791503906
1700936002013027000,1.354027099609375,1.709848165512085,-2.947422981262207,9.199197769165039
1700936002030012400,1.371012451171875,1.6413204669952393,-3.12186336517334,9.154023170471191
1700936002047015000,1.388014892578125,1.5817806720733643,-3.278456687927246,9.109654426574707
1700936002064010500,1.405010498046875,1.5074139833450317,-3.4321470260620117,9.065549850463867
1700936002080999200,1.421999267578125,1.3964060544967651,-3.584041118621826,9.024456977844238
1700936002097994200,1.438994140625,1.2750895023345947,-3.73110294342041,8.982712745666504
1700936002114995500,1.455995361328125,1.1644502878189087,-3.8688225746154785,8.939372062683105
1700936002131984100,1.472984130859375,1.0806626081466675,-3.985668659210205,8.898467063903809
1700936002148972500,1.48997265625,1.021030068397522,-4.085642337799072,8.860086441040039
1700936002165960400,1.50696044921875,1.000908613204956,-4.178397178649902,8.81903076171875
1700936002182976000,1.52397607421875,1.0210601091384888,-4.267346382141113,8.774012565612793
1700936002199953400,1.540953369140625,1.0475428104400635,-4.354091167449951,8.72815227508545
1700936002216938000,1.55793798828125,1.0679717063903809,-4.43963098526001,8.682465553283691
1700936002233944600,1.574944580078125,1.0733100175857544,-4.51792049407959,8.641325950622559
1700936002250933000,1.59193310546875,1.0693846940994263,-4.58643913269043,8.605643272399902
1700936002267930400,1.608930419921875,1.0786882638931274,-4.6452789306640625,8.572860717773438
1700936002284921900,1.625921875,1.1058889627456665,-4.687673568725586,8.54627799987793
1700936002301918200,1.642918212890625,1.1419802904129028,-4.71621036529541,8.52580451965332
1700936002318903000,1.659903076171875,1.178770661354065,-4.736670970916748,8.509440422058105
1700936002335891000,1.676890869140625,1.2117797136306763,-4.7488274574279785,8.498021125793457
1700936002352897300,1.693897216796875,1.2333699464797974,-4.75223445892334,8.493008613586426
1700936002369888000,1.710887939453125,1.251636266708374,-4.755270957946777,8.488635063171387
1700936002386882300,1.72788232421875,1.2737212181091309,-4.764866352081299,8.479965209960938
1700936002403867600,1.74486767578125,1.3030105829238892,-4.783163547515869,8.465200424194336
1700936002420866600,1.761866455078125,1.3373688459396362,-4.805074691772461,8.447415351867676
1700936002437864400,1.778864501953125,1.361058235168457,-4.825857639312744,8.431769371032715
1700936002454856200,1.795856201171875,1.3717740774154663,-4.845287799835205,8.4188814163208
1700936002471851800,1.812851806640625,1.372027039527893,-4.860213279724121,8.410231590270996
1700936002488840400,1.82984033203125,1.3655049800872803,-4.867989540100098,8.406794548034668
1700936002505834500,1.84683447265625,1.3653874397277832,-4.872627258300781,8.404125213623047
1700936002522831600,1.86383154296875,1.3772237300872803,-4.878474712371826,8.398799896240234
1700936002539821300,1.8808212890625,1.393267035484314,-4.889084815979004,8.38998031616211
1700936002556817400,1.8978173828125,1.3982555866241455,-4.9044389724731445,8.380184173583984
1700936002573801000,1.914801025390625,1.3821643590927124,-4.922857761383057,8.372050285339355
1700936002590805800,1.9318056640625,1.351983904838562,-4.9394755363464355,8.367188453674316
1700936002607798300,1.94879833984375,1.3133399486541748,-4.949953079223633,8.367151260375977
1700936002624790000,1.9657900390625,1.2749050855636597,-4.955235958099365,8.369967460632324
1700936002641785900,1.982785888671875,1.2339774370193481,-4.964445114135742,8.370645523071289
1700936002658774500,1.9997744140625,1.2092735767364502,-4.982907772064209,8.363277435302734
1700936002675760600,2.0167607421875,1.1917883157730103,-5.012082576751709,8.348340034484863
1700936002692765200,2.03376513671875,1.1795576810836792,-5.051601409912109,8.326228141784668
1700936002709755400,2.05075537109375,1.1708357334136963,-5.096749782562256,8.29990291595459
1700936002726750500,2.06775048828125,1.1642701625823975,-5.140264511108398,8.273951530456543
1700936002743745800,2.084745849609375,1.1540030241012573,-5.178370952606201,8.251598358154297
1700936002760734500,2.101734375,1.134132981300354,-5.2121381759643555,8.233071327209473
1700936002777721900,2.118721923828125,1.103938341140747,-5.242613792419434,8.217811584472656
1700936002794726700,2.1357265625,1.0682764053344727,-5.273897647857666,8.202492713928223
1700936002811716900,2.152716796875,1.0295628309249878,-5.310871601104736,8.18356704711914
1700936002828708000,2.1697080078125,1.0041569471359253,-5.345077037811279,8.16443157196045
1700936002845705000,2.186705078125,0.9834397435188293,-5.366507053375244,8.152886390686035
1700936002862688800,2.203688720703125,0.9653651118278503,-5.371431350708008,8.15180492401123
1700936002879689000,2.22068896484375,0.9497159123420715,-5.361888408660889,8.159919738769531
1700936002896684000,2.23768408203125,0.9397894144058228,-5.346810817718506,8.1709566116333
1700936002913669600,2.254669677734375,0.944776177406311,-5.333083152770996,8.179348945617676
1700936002930671000,2.271671142578125,0.9552391767501831,-5.325581073760986,8.18302059173584
1700936002947663400,2.288663330078125,0.9721221327781677,-5.32558012008667,8.181032180786133
1700936002964657700,2.30565771484375,0.9945409893989563,-5.333355903625488,8.17326831817627
1700936002981651200,2.322651123046875,1.0121320486068726,-5.345170497894287,8.163385391235352
1700936002998645000,2.33964501953125,1.0242664813995361,-5.354195594787598,8.155953407287598
1700936003015639600,2.3566396484375,1.03437077999115,-5.355862617492676,8.153584480285645
1700936003032641800,2.373641845703125,1.033574104309082,-5.3481125831604,8.158768653869629
1700936003049636600,2.39063671875,1.0259133577346802,-5.333871364593506,8.169053077697754
1700936003066613200,2.40761328125,1.0264945030212402,-5.318008899688721,8.179316520690918
1700936003083614000,2.424614013671875,1.0358242988586426,-5.302740097045898,8.18804931640625
1700936003100606200,2.441606201171875,1.0486794710159302,-5.289464950561523,8.194994926452637
1700936003117605000,2.458605224609375,1.0586199760437012,-5.277933120727539,8.201149940490723
1700936003134592300,2.47559228515625,1.0617766380310059,-5.265920162200928,8.208460807800293
1700936003151588000,2.492588134765625,1.0600417852401733,-5.24977445602417,8.219019889831543
1700936003168576000,2.509575927734375,1.0610719919204712,-5.230284214019775,8.231303215026855
1700936003185572900,2.52657275390625,1.0684603452682495,-5.212247848510742,8.241782188415527
1700936003202556700,2.543556640625,1.08156418800354,-5.198770999908447,8.24858283996582
1700936003219558700,2.56055859375,1.0956381559371948,-5.191868782043457,8.251070976257324
1700936003236550100,2.577550048828125,1.102231502532959,-5.19124698638916,8.250585556030273
1700936003253547800,2.5945478515625,1.100472331047058,-5.194422245025635,8.248822212219238
1700936003270534100,2.6115341796875,1.0908621549606323,-5.197497844696045,8.248161315917969
1700936003287536400,2.628536376953125,1.080613136291504,-5.199422836303711,8.248295783996582
1700936003304525600,2.645525634765625,1.0764168500900269,-5.201570987701416,8.247489929199219
1700936003321521700,2.662521728515625,1.085737943649292,-5.203235149383545,8.245219230651855
1700936003338510800,2.6795107421875,1.1057283878326416,-5.204511642456055,8.2417573928833
1700936003355506400,2.69650634765625,1.1284059286117554,-5.2086029052734375,8.23609733581543
1700936003372501000,2.7135009765625,1.1475857496261597,-5.221091270446777,8.225531578063965
1700936003389491200,2.7304912109375,1.1590503454208374,-5.241274833679199,8.211075782775879
1700936003406486300,2.747486328125,1.1635828018188477,-5.266943454742432,8.193992614746094
1700936003423481600,2.764481689453125,1.170256495475769,-5.295141696929932,8.174844741821289
1700936003440470300,2.78147021484375,1.1810970306396484,-5.322706699371338,8.155360221862793
1700936003457468000,2.798468017578125,1.1950244903564453,-5.349471092224121,8.135797500610352
1700936003474443000,2.815443115234375,1.2030439376831055,-5.374797344207764,8.117902755737305
1700936003491454200,2.8324541015625,1.2007360458374023,-5.396927833557129,8.10354995727539
1700936003508446000,2.849446044921875,1.1885305643081665,-5.412813186645508,8.09475040435791
1700936003525440500,2.8664404296875,1.1706477403640747,-5.426323890686035,8.08830738067627
1700936003542435300,2.883435302734375,1.1571561098098755,-5.438485622406006,8.082077980041504
1700936003559424800,2.9004248046875,1.1512311697006226,-5.445730686187744,8.078042984008789
1700936003576419800,2.917419921875,1.1503368616104126,-5.4470062255859375,8.077311515808105
1700936003593416200,2.934416259765625,1.1457704305648804,-5.4391632080078125,8.083242416381836
1700936003610404600,2.951404541015625,1.1320829391479492,-5.425974369049072,8.094029426574707
1700936003627401700,2.968401611328125,1.1127804517745972,-5.41336727142334,8.105140686035156
1700936003644393200,2.985393310546875,1.092915415763855,-5.404041290283203,8.11406135559082
1700936003661391000,3.00239111328125,1.0768051147460938,-5.397721767425537,8.120418548583984
1700936003678380500,3.019380615234375,1.0642189979553223,-5.3938307762146,8.124662399291992
1700936003695370000,3.036369873046875,1.0561832189559937,-5.391366958618164,8.12734603881836
1700936003712369700,3.05336962890625,1.0506985187530518,-5.3893351554870605,8.12940502166748
1700936003729360000,3.07035986328125,1.045188069343567,-5.390659332275391,8.129236221313477
1700936003746344700,3.0873447265625,1.0416700839996338,-5.398148536682129,8.12471866607666
1700936003763349800,3.104349853515625,1.0408766269683838,-5.409744739532471,8.117101669311523
1700936003780337000,3.1213369140625,1.0406497716903687,-5.421291828155518,8.10942554473877
1700936003797335800,3.138335693359375,1.0388593673706055,-5.42909574508667,8.104432106018066
1700936003814328600,3.15532861328125,1.0332577228546143,-5.431694984436035,8.10340690612793
1700936003831322400,3.172322265625,1.0293327569961548,-5.4282989501953125,8.106181144714355
1700936003848312800,3.189312744140625,1.0296871662139893,-5.421677589416504,8.110564231872559
1700936003865305900,3.206305908203125,1.035457730293274,-5.416799545288086,8.113089561462402
1700936003882305800,3.223305908203125,1.0456161499023438,-5.417872905731201,8.11107063293457
1700936003899296000,3.2402958984375,1.0578253269195557,-5.420411109924316,8.107789039611816
1700936003916288500,3.25728857421875,1.0662015676498413,-5.419002532958984,8.107634544372559
1700936003933270300,3.274270263671875,1.072196125984192,-5.41338586807251,8.110595703125
1700936003950271500,3.291271484375,1.0806727409362793,-5.408689498901367,8.112604141235352
1700936003967269600,3.30826953125,1.091986894607544,-5.410630702972412,8.109793663024902
1700936003984262100,3.32526220703125,1.1057084798812866,-5.4196696281433105,8.10189437866211
1700936004001256700,3.342256591796875,1.1192474365234375,-5.429787635803223,8.093256950378418
1700936004018249500,3.35924951171875,1.130590796470642,-5.434632778167725,8.088425636291504
1700936004035243000,3.376242919921875,1.1385093927383423,-5.431809425354004,8.089213371276855
1700936004052235800,3.39323583984375,1.1476552486419678,-5.422281742095947,8.094310760498047
1700936004069231600,3.410231689453125,1.1617839336395264,-5.4084320068359375,8.101558685302734
1700936004086207500,3.42720751953125,1.1780444383621216,-5.392288684844971,8.109967231750488
1700936004103215600,3.444215576171875,1.195117712020874,-5.379856109619141,8.11572265625
1700936004120210700,3.461210693359375,1.209581732749939,-5.374007701873779,8.11745548248291
1700936004137194500,3.478194580078125,1.2204864025115967,-5.372318267822266,8.116939544677734
1700936004154196500,3.495196533203125,1.2292940616607666,-5.369981288909912,8.117157936096191
1700936004171190300,3.512190185546875,1.2330304384231567,-5.363452911376953,8.120906829833984
1700936004188183300,3.529183349609375,1.230451226234436,-5.352818012237549,8.128312110900879
1700936004205177300,3.54617724609375,1.2273037433624268,-5.338213920593262,8.138384819030762
1700936004222170000,3.563170166015625,1.2312651872634888,-5.319437026977539,8.150073051452637
1700936004239164200,3.5801640625,1.2461273670196533,-5.302216053009033,8.159031867980957
1700936004256154000,3.597154052734375,1.2679427862167358,-5.2939629554748535,8.161029815673828
1700936004273151500,3.6141513671875,1.2878659963607788,-5.300413131713867,8.153718948364258
1700936004290142000,3.631141845703125,1.2958824634552002,-5.3199992179870605,8.139681816101074
1700936004307139000,3.64813916015625,1.2869395017623901,-5.3452348709106445,8.124553680419922
1700936004324130300,3.66513037109375,1.2672063112258911,-5.3679656982421875,8.112659454345703
1700936004341124600,3.68212451171875,1.2454824447631836,-5.382623672485352,8.106308937072754
1700936004358106600,3.699106689453125,1.227090835571289,-5.386203289031982,8.106735229492188
1700936004375098000,3.71609814453125,1.2168892621994019,-5.376855850219727,8.114476203918457
1700936004392106500,3.7331064453125,1.2158530950546265,-5.354730129241943,8.12924861907959
1700936004409098200,3.75009814453125,1.2179771661758423,-5.325217247009277,8.148294448852539
1700936004426088200,3.767088134765625,1.2166705131530762,-5.2949090003967285,8.16821575164795
1700936004443087400,3.78408740234375,1.2080128192901611,-5.266421318054199,8.187894821166992
1700936004460077600,3.80107763671875,1.1909878253936768,-5.240341663360596,8.207100868225098
1700936004477072000,3.81807177734375,1.172012448310852,-5.219782829284668,8.222916603088379
1700936004494061000,3.83506103515625,1.1571269035339355,-5.207513332366943,8.23279857635498
1700936004511058400,3.852058349609375,1.1431835889816284,-5.1996283531188965,8.239727020263672
1700936004528051000,3.869051025390625,1.1254074573516846,-5.1930108070373535,8.246346473693848
1700936004545040400,3.886040283203125,1.1053638458251953,-5.186272144317627,8.253293991088867
1700936004562036500,3.903036376953125,1.0867691040039062,-5.177955150604248,8.260982513427734
1700936004579033600,3.92003369140625,1.073403000831604,-5.165368556976318,8.270604133605957
1700936004596024800,3.93702490234375,1.0635823011398315,-5.1467695236206055,8.283456802368164
1700936004613019100,3.95401904296875,1.0561977624893188,-5.125352382659912,8.297670364379883
1700936004630011600,3.97101171875,1.0517925024032593,-5.109382152557373,8.308072090148926
1700936004647003600,3.988003662109375,1.0505155324935913,-5.102738380432129,8.312315940856934
1700936004664000300,4.005000244140625,1.047084093093872,-5.104340553283691,8.31176471710205
1700936004680982000,4.02198193359375,1.036629557609558,-5.107707977294922,8.31100845336914
1700936004697985500,4.038985595703125,1.0196644067764282,-5.106566429138184,8.313806533813477
1700936004714979000,4.05597900390625,1.0016947984695435,-5.1012444496154785,8.319254875183105
1700936004731970800,4.072970703125,0.986139714717865,-5.095457553863525,8.32465934753418
1700936004748970000,4.089969970703125,0.9731781482696533,-5.09163761138916,8.328520774841309
1700936004765956400,4.106956298828125,0.9627525806427002,-5.090946197509766,8.330155372619629
1700936004782953000,4.123952880859375,0.9573342800140381,-5.095081329345703,8.328251838684082
1700936004799945700,4.14094580078125,0.9532698392868042,-5.104524612426758,8.322933197021484
1700936004816929300,4.15792919921875,0.9419145584106445,-5.118741512298584,8.315491676330566
1700936004833932300,4.174932373046875,0.9226444959640503,-5.134108543395996,8.308174133300781
1700936004850926600,4.191926513671875,0.9019815921783447,-5.148426055908203,8.301580429077148
1700936004867919000,4.208919189453125,0.884647786617279,-5.161592483520508,8.295269012451172
1700936004884913700,4.22591357421875,0.8690725564956665,-5.175702095031738,8.288121223449707
1700936004901906000,4.242906005859375,0.8552497625350952,-5.19044828414917,8.2803316116333
1700936004918897400,4.2598974609375,0.8433717489242554,-5.203658103942871,8.2732572555542
1700936004935892500,4.276892578125,0.835226833820343,-5.214343547821045,8.267353057861328
1700936004952887000,4.293886962890625,0.8294538855552673,-5.222268581390381,8.262932777404785
1700936004969879600,4.310879638671875,0.8239294290542603,-5.228415012359619,8.25959587097168
1700936004986873600,4.32787353515625,0.8192315101623535,-5.231699466705322,8.25798511505127
1700936005003866400,4.344866455078125,0.8192881941795349,-5.228936195373535,8.25972843170166
1700936005020850000,4.361849853515625,0.8250173330307007,-5.219825267791748,8.264920234680176
1700936005037853400,4.378853515625,0.836959958076477,-5.208512306213379,8.270853996276855
1700936005054847200,4.39584716796875,0.8531421422958374,-5.202158451080322,8.273200035095215
1700936005071837400,4.41283740234375,0.8722426295280457,-5.2069196701049805,8.268209457397461
1700936005088836900,4.4298369140625,0.8854029774665833,-5.223453521728516,8.25637435913086
1700936005105824300,4.44682421875,0.8873603343963623,-5.2435808181762695,8.24339485168457
1700936005122821000,4.463821044921875,0.88015216588974,-5.2547430992126465,8.237058639526367
1700936005139813600,4.480813720703125,0.8703852891921997,-5.248447418212891,8.242106437683105
1700936005156808200,4.49780810546875,0.86900794506073,-5.228488445281982,8.254929542541504
1700936005173790000,4.5147900390625,0.8837028741836548,-5.205280303955078,8.268025398254395
1700936005190794200,4.531794189453125,0.9098139405250549,-5.1885175704956055,8.275725364685059
1700936005207787000,4.548787109375,0.934054434299469,-5.18377685546875,8.275996208190918
1700936005224781300,4.56578125,0.9412316083908081,-5.188961982727051,8.271933555603027
1700936005241774000,4.582774169921875,0.9317044615745544,-5.195655345916748,8.268808364868164
1700936005258768100,4.59976806640625,0.9196547865867615,-5.198534965515137,8.26834774017334
1700936005275760600,4.6167607421875,0.9189826846122742,-5.2018141746521,8.26636028289795
1700936005292755200,4.633755126953125,0.9306054711341858,-5.212141513824463,8.258552551269531
1700936005309748000,4.650748046875,0.9401007294654846,-5.230484485626221,8.245868682861328
1700936005326741800,4.66774169921875,0.9380612373352051,-5.252382278442383,8.232170104980469
1700936005343734300,4.684734375,0.9271994829177856,-5.27304220199585,8.220185279846191
1700936005360728600,4.701728515625,0.9222284555435181,-5.292618751525879,8.208154678344727
1700936005377721300,4.718721435546875,0.9303844571113586,-5.315162658691406,8.192652702331543
1700936005394715400,4.73571533203125,0.9432956576347351,-5.339605808258057,8.175262451171875
1700936005411708000,4.7527080078125,0.9505470991134644,-5.35981559753418,8.161185264587402
1700936005428693500,4.769693603515625,0.9483169913291931,-5.3682026863098145,8.155930519104004
1700936005445684200,4.786684326171875,0.9428539276123047,-5.365443706512451,8.158379554748535
1700936005462689000,4.80368896484375,0.9418637156486511,-5.358837127685547,8.162836074829102
1700936005479678700,4.8206787109375,0.9386459589004517,-5.3524169921875,8.1674165725708
1700936005496670000,4.837669921875,0.9253669381141663,-5.346040725708008,8.173107147216797
1700936005513668900,4.8546689453125,0.9091175198554993,-5.342848300933838,8.177017211914062
1700936005530662700,4.87166259765625,0.8985331654548645,-5.346738815307617,8.175644874572754
1700936005547655200,4.8886552734375,0.8942933678627014,-5.360509872436523,8.16708755493164
1700936005564649700,4.905649658203125,0.8873389959335327,-5.37877082824707,8.155831336975098
1700936005581642200,4.922642333984375,0.8724271059036255,-5.391610145568848,8.148959159851074
1700936005598636000,4.939635986328125,0.8566285371780396,-5.394545555114746,8.14869213104248
1700936005615628500,4.956628662109375,0.8522010445594788,-5.393816947937012,8.149639129638672
1700936005632623400,4.973623291015625,0.8597749471664429,-5.397897243499756,8.146141052246094
1700936005649616000,4.990615966796875,0.8686085939407349,-5.406790733337402,8.139303207397461
1700936005666610000,5.00760986328125,0.868829607963562,-5.413498878479004,8.134819984436035
1700936005683598800,5.024598876953125,0.8656496405601501,-5.414693832397461,8.13436222076416
1700936005700596700,5.0415966796875,0.867504358291626,-5.412848472595215,8.135393142700195
1700936005717589500,5.058589599609375,0.877550482749939,-5.41119909286499,8.135412216186523
1700936005734583300,5.075583251953125,0.8885250687599182,-5.411731719970703,8.133866310119629
1700936005751575800,5.092575927734375,0.8901921510696411,-5.410233974456787,8.134681701660156
1700936005768570600,5.109570556640625,0.8861502408981323,-5.403985023498535,8.139275550842285
1700936005785563100,5.126563232421875,0.8869010210037231,-5.394390106201172,8.14555549621582
1700936005802557200,5.14355712890625,0.8982604146003723,-5.386258125305176,8.149690628051758
1700936005819549400,5.160549560546875,0.9157669544219971,-5.386900901794434,8.147317886352539
1700936005836544000,5.1775439453125,0.9267842769622803,-5.394305229187012,8.1411714553833
1700936005853536500,5.19453662109375,0.9263314604759216,-5.400474548339844,8.137131690979004
1700936005870519000,5.21151904296875,0.9263647794723511,-5.403487682342529,8.135127067565918
1700936005887513900,5.228513916015625,0.939082145690918,-5.407364368438721,8.131092071533203
1700936005904518000,5.245517822265625,0.960252583026886,-5.414645195007324,8.123769760131836
1700936005921510100,5.26251025390625,0.9774384498596191,-5.426113605499268,8.114062309265137
1700936005938505200,5.279505126953125,0.983366072177887,-5.43879508972168,8.104850769042969
1700936005955497000,5.2964970703125,0.9777553677558899,-5.446095943450928,8.100626945495605
1700936005972491500,5.313491455078125,0.9679174423217773,-5.44346284866333,8.103577613830566
1700936005989483800,5.33048388671875,0.9650233387947083,-5.431814670562744,8.111735343933105
1700936006006477800,5.347477783203125,0.9736328125,-5.414515972137451,8.122264862060547
1700936006023470600,5.364470703125,0.991449236869812,-5.395773887634277,8.132573127746582
1700936006040465200,5.381465087890625,1.0145492553710938,-5.3807244300842285,8.139694213867188
1700936006057457700,5.398457763671875,1.0355263948440552,-5.371362686157227,8.143233299255371
1700936006074451500,5.415451416015625,1.0457351207733154,-5.368472576141357,8.14383602142334
1700936006091444000,5.43244384765625,1.046748399734497,-5.370916843414307,8.142094612121582
1700936006108438800,5.449438720703125,1.0486239194869995,-5.372720241546631,8.140664100646973
1700936006125428500,5.466428466796875,1.059203028678894,-5.3702192306518555,8.140942573547363
1700936006142427600,5.483427734375,1.0795097351074219,-5.363262176513672,8.142862319946289
1700936006159417900,5.50041796875,1.1032874584197998,-5.355194091796875,8.144984245300293
1700936006176412200,5.517412109375,1.1267175674438477,-5.349766254425049,8.145343780517578
1700936006193405000,5.534405029296875,1.1496384143829346,-5.347731590270996,8.143477439880371
1700936006210400300,5.551400146484375,1.1713403463363647,-5.3489990234375,8.139552116394043
1700936006227390000,5.568389892578125,1.1912848949432373,-5.353587627410889,8.133636474609375
1700936006244385800,5.5853857421875,1.209355115890503,-5.361191749572754,8.125957489013672
1700936006261369000,5.602369140625,1.2234746217727661,-5.3707122802734375,8.1175537109375
1700936006278357000,5.61935693359375,1.2360212802886963,-5.382701396942139,8.107707023620605
1700936006295362600,5.636362548828125,1.252963662147522,-5.398551940917969,8.094555854797363
1700936006312362200,5.6533623046875,1.2744319438934326,-5.416961193084717,8.078890800476074
1700936006329342000,5.670342041015625,1.2963701486587524,-5.435457706451416,8.062959671020508
1700936006346346200,5.68734619140625,1.3165884017944336,-5.452934265136719,8.047872543334961
1700936006363338500,5.70433837890625,1.3327573537826538,-5.469162464141846,8.034186363220215
1700936006380333000,5.7213330078125,1.3432788848876953,-5.482477188110352,8.023351669311523
1700936006397325800,5.738325927734375,1.350273847579956,-5.491750240325928,8.01583194732666
1700936006414319900,5.75531982421875,1.3594180345535278,-5.496211528778076,8.011226654052734
1700936006431312400,5.7723125,1.3741886615753174,-5.496662616729736,8.008398056030273
1700936006448307000,5.789306884765625,1.3942981958389282,-5.495552062988281,8.005682945251465
1700936006465299200,5.80629931640625,1.4133951663970947,-5.491782188415527,8.00492000579834
1700936006482293500,5.82329345703125,1.4249086380004883,-5.483139991760254,8.008804321289062
1700936006499286000,5.8402861328125,1.427372694015503,-5.468961238861084,8.01805305480957
1700936006516280300,5.8572802734375,1.4272130727767944,-5.452234268188477,8.029465675354004
1700936006533254400,5.87425439453125,1.4303889274597168,-5.437650680541992,8.03878402709961
1700936006550267100,5.89126708984375,1.4371874332427979,-5.428717136383057,8.043608665466309
1700936006567260000,5.908260009765625,1.4422415494918823,-5.426982879638672,8.043874740600586
1700936006584254200,5.925254150390625,1.4374780654907227,-5.433246612548828,8.040498733520508
1700936006601244200,5.942244140625,1.4193788766860962,-5.444161891937256,8.036328315734863
1700936006618243300,5.959243408203125,1.3919472694396973,-5.458163261413574,8.031628608703613
1700936006635233000,5.97623291015625,1.3625059127807617,-5.473624229431152,8.026153564453125
1700936006652227800,5.993227783203125,1.3354655504226685,-5.487240791320801,8.021397590637207
1700936006669222100,6.01022216796875,1.3140424489974976,-5.498569965362549,8.017176628112793
1700936006686212600,6.027212646484375,1.2966800928115845,-5.506889343261719,8.01429271697998
1700936006703207000,6.04420703125,1.2853022813796997,-5.513648986816406,8.011478424072266
1700936006720201700,6.06120166015625,1.2691305875778198,-5.523637771606445,8.00717544555664
1700936006737193700,6.07819384765625,1.2622665166854858,-5.539922714233398,7.99700403213501
1700936006754188300,6.095188232421875,1.2599660158157349,-5.562026023864746,7.982008934020996
1700936006771183900,6.112183837890625,1.255240559577942,-5.584709167480469,7.966899394989014
1700936006788163000,6.1291630859375,1.241917610168457,-5.602431774139404,7.956540584564209
1700936006805167600,6.146167724609375,1.2222455739974976,-5.614028453826904,7.951409816741943
1700936006822161700,6.16316162109375,1.1981600522994995,-5.62086296081543,7.950246810913086
1700936006839154200,6.180154296875,1.1721811294555664,-5.625183582305908,7.951063632965088
1700936006856148500,6.1971484375,1.148948073387146,-5.627495288848877,7.95281982421875
1700936006873141500,6.2141416015625,1.1277215480804443,-5.625874042510986,7.957004070281982
1700936006890135300,6.23113525390625,1.1087926626205444,-5.620236396789551,7.9636454582214355
1700936006907124000,6.2481240234375,1.0917441844940186,-5.610540866851807,7.972830295562744
1700936006924125700,6.265125732421875,1.0791192054748535,-5.597745418548584,7.9835357666015625
1700936006941114600,6.282114501953125,1.0720674991607666,-5.583408832550049,7.994519233703613
1700936006958108700,6.299108642578125,1.0665956735610962,-5.567549228668213,8.006302833557129
1700936006975091200,6.31609130859375,1.0605077743530273,-5.5479631423950195,8.0206937789917
1700936006992093700,6.33309375,1.0532095432281494,-5.523332118988037,8.038636207580566
1700936007009091000,6.350091064453125,1.0459140539169312,-5.4956135749816895,8.058560371398926
1700936007026082300,6.367082275390625,1.0385091304779053,-5.467996120452881,8.07828140258789
1700936007043076400,6.384076416015625,1.0301133394241333,-5.442653656005859,8.096450805664062
1700936007060069400,6.4010693359375,1.0193469524383545,-5.418720245361328,8.113846778869629
1700936007077062400,6.4180625,1.0067461729049683,-5.393741130828857,8.132043838500977
1700936007094056200,6.43505615234375,0.9937542080879211,-5.3653669357299805,8.152386665344238
1700936007111049000,6.452049072265625,0.9821323156356812,-5.333983421325684,8.174360275268555
1700936007128036600,6.46903662109375,0.9748080968856812,-5.303397178649902,8.195110321044922
1700936007145027600,6.486027587890625,0.9718821048736572,-5.276851654052734,8.212575912475586
1700936007162029600,6.503029541015625,0.9716917872428894,-5.255743026733398,8.226123809814453
1700936007179022300,6.520022216796875,0.9757620692253113,-5.242481231689453,8.234099388122559
1700936007196017200,6.53701708984375,0.9829546809196472,-5.238951206207275,8.235489845275879
1700936007213009400,6.554009521484375,0.9885923266410828,-5.242774963378906,8.232380867004395
1700936007230003500,6.57100341796875,0.9912098050117493,-5.251256942749023,8.226658821105957
1700936007246996000,6.587995849609375,0.9940714240074158,-5.263728141784668,8.218339920043945
1700936007263990500,6.604990478515625,1.0004922151565552,-5.27869176864624,8.20795726776123
1700936007280983000,6.621983154296875,1.0119138956069946,-5.293632984161377,8.196927070617676
1700936007297977300,6.638977294921875,1.025965690612793,-5.308115005493164,8.185806274414062
1700936007314969900,6.655969970703125,1.0403708219528198,-5.323345184326172,8.174089431762695
1700936007331964200,6.672964111328125,1.053382396697998,-5.339628219604492,8.161794662475586
1700936007348957000,6.68995703125,1.0646508932113647,-5.355611801147461,8.149850845336914
1700936007365950500,6.706950439453125,1.0747641324996948,-5.371012210845947,8.138381004333496
1700936007382944800,6.72394482421875,1.0828819274902344,-5.3858962059021,8.127459526062012
1700936007399936800,6.740936767578125,1.0889971256256104,-5.400740623474121,8.116785049438477
1700936007416930300,6.757930419921875,1.0905364751815796,-5.415595054626465,8.106673240661621
1700936007433924400,6.77492431640625,1.0870486497879028,-5.430753707885742,8.096997261047363
1700936007450916900,6.791916748046875,1.0798583030700684,-5.445741176605225,8.087888717651367
1700936007467911700,6.80891162109375,1.0718823671340942,-5.4598236083984375,8.079450607299805
1700936007484904200,6.825904296875,1.0654481649398804,-5.473073482513428,8.071331977844238
1700936007501898200,6.842898193359375,1.0608845949172974,-5.48365592956543,8.064748764038086
1700936007518892300,6.859892333984375,1.0562065839767456,-5.490196704864502,8.060911178588867
1700936007535881200,6.876881103515625,1.0506377220153809,-5.492862224578857,8.059822082519531
1700936007552880400,6.89388037109375,1.045730471611023,-5.490664482116699,8.061959266662598
1700936007569872000,6.910871826171875,1.0420668125152588,-5.483035564422607,8.06762409210205
1700936007586864400,6.927864501953125,1.0403130054473877,-5.469720363616943,8.076882362365723
1700936007603859000,6.94485888671875,1.0387152433395386,-5.4523210525512695,8.088842391967773
1700936007620851500,6.9618515625,1.037337303161621,-5.433883190155029,8.101417541503906
1700936007637837000,6.978837158203125,1.0333778858184814,-5.4167680740356445,8.113377571105957
1700936007654838000,6.995838134765625,1.0285834074020386,-5.403012752532959,8.123150825500488
1700936007671829800,7.012829833984375,1.0249069929122925,-5.390896320343018,8.131662368774414
1700936007688827600,7.02982763671875,1.023439645767212,-5.380571365356445,8.13868236541748
1700936007705819000,7.04681884765625,1.0245295763015747,-5.3732476234436035,8.14338207244873
1700936007722811600,7.063811767578125,1.028760313987732,-5.368544101715088,8.145950317382812
1700936007739812900,7.080812744140625,1.0365345478057861,-5.364504337310791,8.147625923156738
1700936007756798700,7.097798828125,1.0460166931152344,-5.358575820922852,8.150314331054688
1700936007773781800,7.11478173828125,1.0549733638763428,-5.3506364822387695,8.154376029968262
1700936007790785500,7.13178564453125,1.0631256103515625,-5.3423686027526855,8.158738136291504
1700936007807779600,7.148779541015625,1.0722215175628662,-5.33669376373291,8.161259651184082
1700936007824772400,7.1657724609375,1.0821603536605835,-5.335608005523682,8.16065788269043
1700936007841763300,7.182763427734375,1.0899477005004883,-5.339950084686279,8.156779289245605
1700936007858758700,7.199758544921875,1.0952458381652832,-5.350308418273926,8.149279594421387
1700936007875753700,7.216753662109375,1.0996092557907104,-5.365335941314697,8.138805389404297
1700936007892746000,7.23374609375,1.1034883260726929,-5.383273601531982,8.126426696777344
1700936007909740000,7.250739990234375,1.1087502241134644,-5.401482582092285,8.113617897033691
1700936007926732500,7.267732666015625,1.1155484914779663,-5.416345596313477,8.10276985168457
1700936007943726800,7.284726806640625,1.121093988418579,-5.427083492279053,8.094813346862793
1700936007960709000,7.301709228515625,1.125049352645874,-5.4370832443237305,8.087553024291992
1700936007977713700,7.318713623046875,1.1285216808319092,-5.449827194213867,8.078486442565918
1700936007994706400,7.33570654296875,1.1294604539871216,-5.465007305145264,8.068093299865723
1700936008011700700,7.35270068359375,1.1269880533218384,-5.480745315551758,8.057757377624512
1700936008028693200,7.369693359375,1.1242152452468872,-5.494293689727783,8.04891300201416
1700936008045687600,7.3866875,1.1219254732131958,-5.50471305847168,8.042109489440918
1700936008062679800,7.4036796875,1.1182355880737305,-5.511106014251709,8.03824520111084
1700936008079674400,7.42067431640625,1.1126047372817993,-5.514552593231201,8.036662101745605
1700936008096667000,7.4376669921875,1.1089277267456055,-5.517402648925781,8.035215377807617
1700936008113661200,7.4546611328125,1.109480619430542,-5.52014684677124,8.033252716064453
1700936008130653700,7.47165380859375,1.1105848550796509,-5.522213459014893,8.031679153442383
1700936008147648000,7.48864794921875,1.1069692373275757,-5.523344039916992,8.031399726867676
1700936008164640800,7.505640869140625,1.0987932682037354,-5.523863792419434,8.032167434692383
1700936008181634800,7.522634765625,1.089442491531372,-5.524794578552246,8.032800674438477
1700936008198627300,7.53962744140625,1.08366858959198,-5.527344703674316,8.031827926635742
1700936008215621600,7.55662158203125,1.0842750072479248,-5.530953407287598,8.029260635375977
1700936008232604000,7.57360400390625,1.0890796184539795,-5.532749176025391,8.027373313903809
1700936008249608400,7.5906083984375,1.0953010320663452,-5.53203821182251,8.027015686035156
1700936008266601000,7.60760107421875,1.1030895709991455,-5.530084133148193,8.027295112609863
1700936008283595300,7.62459521484375,1.1120179891586304,-5.528506278991699,8.027151107788086
1700936008300585700,7.641585693359375,1.1232072114944458,-5.52813196182251,8.025850296020508
1700936008317585000,7.6585849609375,1.1352860927581787,-5.527642726898193,8.02448844909668
1700936008334574600,7.67557470703125,1.1436128616333008,-5.525963306427002,8.024462699890137
1700936008351569000,7.69256884765625,1.1455435752868652,-5.52216911315918,8.026799201965332
1700936008368562000,7.70956201171875,1.1432795524597168,-5.516123294830322,8.031278610229492
1700936008385555700,7.7265556640625,1.1417244672775269,-5.506853103637695,8.037858009338379
1700936008402548200,7.74354833984375,1.1447833776474,-5.494435787200928,8.045914649963379
1700936008419543000,7.76054296875,1.1532925367355347,-5.4815521240234375,8.053484916687012
1700936008436533000,7.777532958984375,1.1649233102798462,-5.4707441329956055,8.059158325195312
1700936008453532000,7.794531982421875,1.17765474319458,-5.463464736938477,8.062244415283203
1700936008470524000,7.81152392578125,1.1893497705459595,-5.458625316619873,8.063807487487793
1700936008487514600,7.8285146484375,1.1987570524215698,-5.455740928649902,8.06436538696289
1700936008504499200,7.845499267578125,1.205623745918274,-5.452489852905273,8.06554126739502
1700936008521503200,7.862503173828125,1.2122819423675537,-5.446422576904297,8.06864070892334
1700936008538495700,7.879495849609375,1.2192217111587524,-5.43754243850708,8.073582649230957
1700936008555490300,7.896490234375,1.2250972986221313,-5.427649021148682,8.079349517822266
1700936008572482800,7.91348291015625,1.2324507236480713,-5.420965194702148,8.082717895507812
1700936008589476600,7.9304765625,1.242544174194336,-5.417665481567383,8.08338451385498
1700936008606469000,7.94746923828125,1.2515593767166138,-5.417575836181641,8.082054138183594
1700936008623453200,7.964453125,1.2568055391311646,-5.418979644775391,8.08029842376709
1700936008640455200,7.981455078125,1.2568073272705078,-5.419091701507568,8.080222129821777
1700936008657451800,7.99845166015625,1.2539469003677368,-5.417862415313721,8.081490516662598
1700936008674443000,8.015443115234374,1.2508502006530762,-5.415767192840576,8.083374977111816
1700936008691427000,8.032427001953126,1.2487574815750122,-5.415449142456055,8.083911895751953
1700936008708430300,8.049430419921874,1.2486987113952637,-5.417358875274658,8.082642555236816
1700936008725423900,8.066423828125,1.2497204542160034,-5.420715808868408,8.080233573913574
1700936008742427100,8.08342724609375,1.249563217163086,-5.424830436706543,8.077494621276855
1700936008759411000,8.100410888671876,1.245576024055481,-5.4291582107543945,8.075202941894531
1700936008776393200,8.117393310546875,1.2375602722167969,-5.432545185089111,8.074158668518066
1700936008793398000,8.13439794921875,1.22860586643219,-5.4346089363098145,8.074136734008789
1700936008810390500,8.151390625,1.221313238143921,-5.435595512390137,8.074577331542969
1700936008827392500,8.168392578125,1.2142728567123413,-5.436960697174072,8.074721336364746
1700936008844377600,8.185377685546875,1.2100927829742432,-5.43983793258667,8.073410034179688
1700936008861371400,8.202371337890625,1.2101982831954956,-5.443426609039307,8.070976257324219
1700936008878364200,8.2193642578125,1.2111157178878784,-5.444400787353516,8.07017993927002
1700936008895358500,8.2363583984375,1.2114691734313965,-5.446156024932861,8.068943977355957
1700936008912340500,8.253340576171874,1.211741328239441,-5.450039863586426,8.066280364990234
1700936008929345300,8.27034521484375,1.2124789953231812,-5.456014156341553,8.062128067016602
1700936008946337800,8.287337890625,1.2133318185806274,-5.46345853805542,8.056957244873047
1700936008963332400,8.304332275390625,1.2155940532684326,-5.470325469970703,8.051957130432129
1700936008980325000,8.3213251953125,1.2200356721878052,-5.47513484954834,8.048013687133789
1700936008997318700,8.338318603515624,1.2241917848587036,-5.476926803588867,8.046162605285645
1700936009014308600,8.35530859375,1.2265698909759521,-5.47545862197876,8.046801567077637
1700936009031306000,8.372305908203124,1.227012276649475,-5.471564292907715,8.049382209777832
1700936009048298500,8.389298583984376,1.2265024185180664,-5.467204570770264,8.052420616149902
1700936009065292500,8.40629248046875,1.2247850894927979,-5.464102745056152,8.054787635803223
1700936009082285300,8.423285400390625,1.222574234008789,-5.462823390960693,8.055990219116211
1700936009099279600,8.440279541015625,1.2199245691299438,-5.463995933532715,8.055599212646484
1700936009116272400,8.4572724609375,1.2164723873138428,-5.467111587524414,8.054004669189453
1700936009133263600,8.474263671875,1.2129850387573242,-5.471648693084717,8.051450729370117
1700936009150261500,8.491261474609376,1.2107634544372559,-5.475545883178711,8.049135208129883
1700936009167253200,8.508253173828125,1.2104458808898926,-5.47803258895874,8.047489166259766
1700936009184246000,8.52524609375,1.209605097770691,-5.479027271270752,8.046937942504883
1700936009201240000,8.542239990234375,1.2073320150375366,-5.479743480682373,8.046792984008789
1700936009218232600,8.559232666015625,1.203499436378479,-5.480998992919922,8.046510696411133
1700936009235227000,8.576226806640625,1.198690414428711,-5.4814133644104,8.046947479248047
1700936009252219400,8.593219482421874,1.1955033540725708,-5.480724811553955,8.047890663146973
1700936009269211000,8.6102109375,1.1948113441467285,-5.480222225189209,8.048335075378418
1700936009286208800,8.627208740234375,1.1952390670776367,-5.479608058929443,8.048688888549805
1700936009303200800,8.64420068359375,1.1936594247817993,-5.478151321411133,8.049917221069336
1700936009320193300,8.661193359375,1.1921157836914062,-5.474024772644043,8.052950859069824
1700936009337187300,8.678187255859376,1.1922531127929688,-5.46804141998291,8.056994438171387
1700936009354179800,8.695179931640626,1.1917243003845215,-5.462994575500488,8.06049633026123
1700936009371174100,8.712174072265626,1.1905828714370728,-5.459225177764893,8.06321907043457
1700936009388166700,8.729166748046875,1.1915576457977295,-5.45828914642334,8.063708305358887
1700936009405150200,8.746150146484375,1.192481517791748,-5.461094379425049,8.061671257019043
1700936009422153500,8.763153564453125,1.191068172454834,-5.466451168060303,8.058248519897461
1700936009439148300,8.780148193359375,1.1870830059051514,-5.471399784088135,8.0554780960083
1700936009456140500,8.797140625,1.18147611618042,-5.4723615646362305,8.05565071105957
1700936009473124000,8.8141240234375,1.1756854057312012,-5.468689918518066,8.058989524841309
1700936009490127000,8.831127197265625,1.1721382141113281,-5.461636543273926,8.064289093017578
1700936009507111400,8.848111328125,1.1729755401611328,-5.454361915588379,8.06908893585205
1700936009524114200,8.8651142578125,1.1750622987747192,-5.450291156768799,8.071535110473633
1700936009541108500,8.8821083984375,1.176166296005249,-5.4488654136657715,8.07233715057373
1700936009558100700,8.899100830078124,1.1763321161270142,-5.445554733276367,8.074545860290527
1700936009575095300,8.91609521484375,1.1756993532180786,-5.439628601074219,8.078631401062012
1700936009592088000,8.933088134765624,1.1747462749481201,-5.433148384094238,8.083130836486816
1700936009609081900,8.950081787109376,1.173458456993103,-5.428496837615967,8.086440086364746
1700936009626074600,8.96707470703125,1.1700290441513062,-5.425065994262695,8.089240074157715
1700936009643069200,8.984069091796876,1.165047287940979,-5.423095226287842,8.09128189086914
1700936009660061700,9.001061767578125,1.160319209098816,-5.4221343994140625,8.092602729797363
1700936009677055700,9.0180556640625,1.155998945236206,-5.4203643798828125,8.094408988952637
1700936009694037800,9.035037841796875,1.1505180597305298,-5.417700290679932,8.096970558166504
1700936009711042800,9.052042724609375,1.1421173810958862,-5.414196014404297,8.100504875183105
1700936009728035600,9.06903564453125,1.132991075515747,-5.410658836364746,8.104147911071777
1700936009745019100,9.08601904296875,1.127515435218811,-5.407512187957764,8.107011795043945
1700936009762022100,9.103022216796875,1.1240041255950928,-5.4045729637146,8.109458923339844
1700936009779016400,9.120016357421875,1.1198828220367432,-5.402968406677246,8.111099243164062
1700936009796009200,9.13700927734375,1.114781379699707,-5.4026618003845215,8.112004280090332
1700936009813003000,9.1540029296875,1.1096545457839966,-5.402960777282715,8.112507820129395
1700936009829995500,9.17099560546875,1.1058495044708252,-5.404244422912598,8.112174034118652
1700936009846990300,9.187990234375,1.1020612716674805,-5.406240463256836,8.111358642578125
1700936009863982800,9.20498291015625,1.0986998081207275,-5.4092254638671875,8.109823226928711
1700936009880977000,9.221976806640624,1.0980724096298218,-5.41450309753418,8.1063871383667
1700936009897969200,9.23896923828125,1.0997165441513062,-5.4226579666137695,8.10071086883545
1700936009914963700,9.255963623046876,1.0981372594833374,-5.432782173156738,8.09414005279541
1700936009931956700,9.272956787109376,1.0919359922409058,-5.443185329437256,8.087986946105957
1700936009948950800,9.28995068359375,1.085439682006836,-5.450867176055908,8.083687782287598
1700936009965943300,9.306943359375,1.0811443328857422,-5.453971862792969,8.082169532775879
1700936009982937600,9.3239375,1.079382061958313,-5.453617095947266,8.082643508911133
1700936009999928800,9.3409287109375,1.079077959060669,-5.453168869018555,8.082984924316406
1700936010016925700,9.35792578125,1.0785236358642578,-5.45426607131958,8.082317352294922
1700936010033917000,9.3749169921875,1.0770405530929565,-5.456472396850586,8.08102798461914
1700936010050911200,9.3919111328125,1.0766396522521973,-5.458245277404785,8.079883575439453
1700936010067904000,9.408904052734375,1.076289176940918,-5.458290100097656,8.079901695251465
1700936010084898000,9.42589794921875,1.0744370222091675,-5.458381175994873,8.080086708068848
1700936010101890600,9.442890625,1.0726261138916016,-5.4604010581970215,8.078959465026855
1700936010118885000,9.459885009765625,1.0713680982589722,-5.463320255279541,8.077155113220215
1700936010135867400,9.476867431640626,1.071641445159912,-5.4653849601745605,8.07572078704834
1700936010152871700,9.49387158203125,1.072722315788269,-5.4663777351379395,8.074906349182129
1700936010169863000,9.51086279296875,1.0740914344787598,-5.467240810394287,8.074137687683105
1700936010186859800,9.52785986328125,1.0744589567184448,-5.467929363250732,8.073623657226562
1700936010203851300,9.544851318359376,1.072561264038086,-5.468898296356201,8.073219299316406
1700936010220845300,9.56184521484375,1.0687892436981201,-5.47006893157959,8.072928428649902
1700936010237838000,9.578838134765626,1.0634597539901733,-5.471099376678467,8.072933197021484
1700936010254832400,9.595832275390626,1.0579484701156616,-5.4698381423950195,8.074511528015137
1700936010271825000,9.612824951171875,1.0535043478012085,-5.466407775878906,8.07741641998291
1700936010288818700,9.629818603515625,1.0492074489593506,-5.462523937225342,8.08060073852539
1700936010305800000,9.646800048828124,1.0458076000213623,-5.460447311401367,8.082446098327637
1700936010322796800,9.663796875,1.042327642440796,-5.459838390350342,8.083306312561035
1700936010339798500,9.680798583984375,1.0383644104003906,-5.458491802215576,8.084726333618164
1700936010356792800,9.697792724609375,1.0362199544906616,-5.457622528076172,8.085588455200195
1700936010373774800,9.71477490234375,1.037593960762024,-5.457822322845459,8.085275650024414
1700936010390769700,9.731769775390624,1.0396595001220703,-5.457992076873779,8.0848970413208
1700936010407772400,9.7487724609375,1.039745807647705,-5.457082748413086,8.085498809814453
1700936010424769300,9.765769287109375,1.0371931791305542,-5.456012725830078,8.086549758911133
1700936010441756000,9.782755859375,1.0381150245666504,-5.454239845275879,8.087625503540039
1700936010458753300,9.799753173828124,1.0412417650222778,-5.451092720031738,8.089346885681152
1700936010475746300,9.816746337890624,1.0443750619888306,-5.446865081787109,8.091789245605469
1700936010492740000,9.833739990234376,1.0448905229568481,-5.442666530609131,8.094547271728516
1700936010509732600,9.850732666015626,1.0453404188156128,-5.440265655517578,8.096102714538574
1700936010526727200,9.86772705078125,1.0473299026489258,-5.440160751342773,8.095915794372559
1700936010543709400,9.88470947265625,1.0526912212371826,-5.441188812255859,8.09453010559082
1700936010560714000,9.9017138671875,1.059893250465393,-5.442129611968994,8.092957496643066
1700936010577706500,9.91870654296875,1.0655955076217651,-5.442275047302246,8.092110633850098
1700936010594700500,9.935700439453125,1.0686242580413818,-5.443488597869873,8.09089469909668
1700936010611693600,9.952693603515625,1.0716279745101929,-5.446713924407959,8.088327407836914
1700936010628687400,9.969687255859375,1.0771434307098389,-5.451229572296143,8.084551811218262
1700936010645680000,9.98668017578125,1.084234356880188,-5.4558281898498535,8.080500602722168
1700936010662674700,10.0036748046875,1.0899418592453003,-5.459993839263916,8.07691764831543
1700936010679667200,10.020667236328125,1.0933855772018433,-5.462327003479004,8.074874877929688
1700936010696661200,10.0376611328125,1.0961111783981323,-5.463276386260986,8.07386302947998
1700936010713653800,10.05465380859375,1.098685383796692,-5.465033531188965,8.0723237991333
1700936010730637600,10.071637451171876,1.1024978160858154,-5.467684268951416,8.070008277893066
1700936010747641000,10.08864111328125,1.1050752401351929,-5.470521926879883,8.067733764648438
1700936010764621600,10.10562158203125,1.1065493822097778,-5.47296667098999,8.065873146057129
1700936010781630200,10.122630126953124,1.1082558631896973,-5.474405765533447,8.06466293334961
1700936010798622000,10.1396220703125,1.1122007369995117,-5.474828720092773,8.063831329345703
1700936010815614500,10.156614501953126,1.11567223072052,-5.473532199859619,8.064231872558594
1700936010832608500,10.1736083984375,1.1174722909927368,-5.471446990966797,8.065397262573242
1700936010849601500,10.1906015625,1.1194368600845337,-5.469986438751221,8.066115379333496
1700936010866595800,10.207595947265625,1.121864676475525,-5.469810485839844,8.065897941589355
1700936010883588400,10.22458837890625,1.122172236442566,-5.471289157867432,8.064852714538574
1700936010900582400,10.24158251953125,1.1208668947219849,-5.4744648933410645,8.06287956237793
1700936010917575200,10.2585751953125,1.1193434000015259,-5.478193283081055,8.060556411743164
1700936010934569200,10.2755693359375,1.1183993816375732,-5.4796977043151855,8.059664726257324
1700936010951562000,10.29256201171875,1.1178807020187378,-5.4774489402771,8.061266899108887
1700936010968556300,10.309556396484375,1.1181148290634155,-5.471538066864014,8.065247535705566
1700936010985538000,10.3265380859375,1.119633436203003,-5.4630126953125,8.07081413269043
1700936011002543400,10.34354345703125,1.1227952241897583,-5.4533796310424805,8.076886177062988
1700936011019535600,10.36053564453125,1.126159429550171,-5.443861484527588,8.082836151123047
1700936011036529700,10.37752978515625,1.1278787851333618,-5.434866905212402,8.088648796081543
1700936011053513200,10.39451318359375,1.1286877393722534,-5.4267354011535645,8.093994140625
1700936011070519300,10.411519287109375,1.1304042339324951,-5.420283794403076,8.098076820373535
1700936011087507000,10.4285068359375,1.1333982944488525,-5.415379524230957,8.100935935974121
1700936011104503600,10.445503662109376,1.1365487575531006,-5.411414623260498,8.103144645690918
1700936011121496000,10.46249609375,1.1404105424880981,-5.4076948165893555,8.105087280273438
1700936011138490400,10.479490478515626,1.1440762281417847,-5.403704643249512,8.107230186462402
1700936011155480600,10.49648046875,1.1465001106262207,-5.39950704574585,8.109684944152832
1700936011172480000,10.51347998046875,1.148341178894043,-5.39520263671875,8.112288475036621
1700936011189470000,10.530469970703125,1.151455044746399,-5.392568588256836,8.113598823547363
1700936011206464500,10.547464599609375,1.1559091806411743,-5.3926920890808105,8.112881660461426
1700936011223456800,10.564456787109375,1.1603705883026123,-5.395328044891357,8.110492706298828
1700936011240450800,10.581450927734375,1.1645463705062866,-5.399795055389404,8.106921195983887
1700936011257443600,10.598443603515625,1.169284701347351,-5.4043145179748535,8.103225708007812
1700936011274438100,10.615438232421875,1.1734850406646729,-5.407280921936035,8.100640296936035
1700936011291430700,10.6324306640625,1.1775681972503662,-5.408876895904541,8.098981857299805
1700936011308424700,10.6494248046875,1.1829168796539307,-5.410843372344971,8.096888542175293
1700936011325415400,10.66641552734375,1.1884170770645142,-5.413493633270264,8.094310760498047
1700936011342413600,10.68341357421875,1.1912658214569092,-5.4161481857299805,8.092116355895996
1700936011359404300,10.700404296875,1.1915082931518555,-5.418639659881592,8.090411186218262
1700936011376398000,10.717398193359376,1.191633939743042,-5.4225616455078125,8.08776569366455
1700936011393391000,10.73439111328125,1.1929513216018677,-5.428150653839111,8.083822250366211
1700936011410392300,10.751392333984375,1.1937810182571411,-5.434488296508789,8.079440116882324
1700936011427378200,10.768378173828125,1.1940020322799683,-5.440566539764404,8.075315475463867
1700936011444372000,10.7853720703125,1.1950843334197998,-5.4442830085754395,8.072649955749512
1700936011461364500,10.802364501953125,1.1981220245361328,-5.442584991455078,8.073345184326172
1700936011478348800,10.819348876953125,1.2004942893981934,-5.437198162078857,8.076619148254395
1700936011495352000,10.83635205078125,1.2013839483261108,-5.431398868560791,8.080390930175781
1700936011512345600,10.853345703125,1.2040899991989136,-5.427613735198975,8.082530975341797
1700936011529338600,10.870338623046875,1.2082440853118896,-5.425182342529297,8.083541870117188
1700936011546333200,10.887333251953125,1.2119758129119873,-5.423340797424316,8.084218978881836
1700936011563325400,10.904325439453125,1.214624047279358,-5.422286033630371,8.084529876708984
1700936011580319500,10.921319580078125,1.2164653539657593,-5.423537731170654,8.083413124084473
1700936011597312000,10.93831201171875,1.2175856828689575,-5.427604675292969,8.080514907836914
1700936011614306800,10.955306884765625,1.2180417776107788,-5.431611061096191,8.077753067016602
1700936011631299000,10.972299072265624,1.2197184562683105,-5.433454990386963,8.076258659362793
1700936011648292900,10.98929296875,1.2218307256698608,-5.433495044708252,8.075912475585938
1700936011665286400,11.006286376953126,1.22339928150177,-5.433110237121582,8.075935363769531
1700936011682272300,11.023272216796874,1.2236676216125488,-5.433767318725586,8.07545280456543
1700936011699273200,11.040273193359376,1.222347617149353,-5.434417247772217,8.075215339660645
1700936011716267000,11.05726708984375,1.2230159044265747,-5.4349846839904785,8.07473087310791
1700936011733259500,11.074259521484375,1.224698543548584,-5.436391830444336,8.073529243469238
1700936011750254000,11.091254150390625,1.2245794534683228,-5.439679145812988,8.071333885192871
1700936011767246800,11.108246826171875,1.2229516506195068,-5.44278621673584,8.069483757019043
1700936011784241000,11.125240966796875,1.2228955030441284,-5.444906234741211,8.068062782287598
1700936011801233400,11.1422333984375,1.2247540950775146,-5.44605827331543,8.067004203796387
1700936011818227700,11.159227783203125,1.228318452835083,-5.446678638458252,8.06604290008545
1700936011835220700,11.176220703125,1.2311882972717285,-5.447254657745361,8.065216064453125
1700936011852214500,11.193214599609375,1.233819842338562,-5.447723388671875,8.064497947692871
1700936011869203200,11.210203125,1.2339204549789429,-5.448487758636475,8.06396484375
1700936011886202600,11.22720263671875,1.233184814453125,-5.450368404388428,8.062806129455566
1700936011903197200,11.244197265625,1.2346960306167603,-5.4544525146484375,8.059814453125
1700936011920188200,11.261188232421874,1.2388031482696533,-5.4596686363220215,8.055649757385254
1700936011937180700,11.2781806640625,1.242136001586914,-5.464831829071045,8.051634788513184
1700936011954177800,11.295177734375,1.2434849739074707,-5.468876361846924,8.04867935180664
1700936011971165400,11.31216552734375,1.2435276508331299,-5.4694437980651855,8.04828929901123
1700936011988161500,11.32916162109375,1.2421603202819824,-5.465400695800781,8.051244735717773
1700936012005154600,11.346154541015625,1.2408876419067383,-5.459320545196533,8.055564880371094
1700936012022149000,11.363149169921876,1.2426202297210693,-5.454506874084473,8.058558464050293
1700936012039141600,11.3801416015625,1.247513771057129,-5.452975749969482,8.058837890625
1700936012056135700,11.3971357421875,1.2518856525421143,-5.454131126403809,8.057377815246582
1700936012073126000,11.4141259765625,1.2528358697891235,-5.455832004547119,8.056079864501953
1700936012090125600,11.43112548828125,1.2517173290252686,-5.457125186920166,8.055377960205078
1700936012107115300,11.448115234375,1.2520198822021484,-5.458521842956543,8.054384231567383
1700936012124096300,11.46509619140625,1.254159688949585,-5.460214614868164,8.05290412902832
1700936012141102000,11.48210205078125,1.256314992904663,-5.461618900299072,8.051616668701172
1700936012158094800,11.4990947265625,1.2578016519546509,-5.4628119468688965,8.050575256347656
1700936012175091000,11.516091064453125,1.2598235607147217,-5.4646735191345215,8.048994064331055
1700936012192083200,11.533083251953125,1.2608418464660645,-5.467278957366943,8.047064781188965
1700936012209075700,11.55007568359375,1.2614768743515015,-5.469491958618164,8.045461654663086
1700936012226072600,11.567072509765625,1.2636260986328125,-5.472257137298584,8.043244361877441
1700936012243060500,11.584060546875,1.266602873802185,-5.475924015045166,8.040279388427734
1700936012260056800,11.601056884765624,1.2691730260849,-5.479931354522705,8.03714370727539
1700936012277049600,11.618049560546876,1.270520806312561,-5.483359336853027,8.034591674804688
1700936012294044200,11.635044189453126,1.2707959413528442,-5.485198020935059,8.033293724060059
1700936012311036700,11.65203662109375,1.2720197439193726,-5.486072540283203,8.032501220703125
1700936012328029000,11.66902880859375,1.2736390829086304,-5.487293243408203,8.031412124633789
1700936012345024800,11.686024658203126,1.2740682363510132,-5.487749099731445,8.03103256225586
1700936012362007300,11.70300732421875,1.2737399339675903,-5.4876227378845215,8.031170845031738
1700936012379010300,11.72001025390625,1.2739770412445068,-5.487175464630127,8.031437873840332
1700936012396009000,11.737009033203124,1.2737622261047363,-5.4862141609191895,8.03212833404541
1700936012412997000,11.7539970703125,1.2740203142166138,-5.486196994781494,8.032099723815918
1700936012429991400,11.770991455078125,1.2759191989898682,-5.487281322479248,8.031057357788086
1700936012446973400,11.787973388671874,1.278503656387329,-5.487953186035156,8.030187606811523
1700936012463978200,11.804978271484375,1.278294324874878,-5.489140510559082,8.029410362243652
1700936012480970800,11.821970703125,1.27694833278656,-5.491535663604736,8.027985572814941
1700936012497965000,11.838965087890625,1.2770819664001465,-5.49375057220459,8.026448249816895
1700936012514957600,11.85595751953125,1.2781727313995361,-5.494187355041504,8.025976181030273
1700936012531950600,11.87295068359375,1.277290940284729,-5.492951393127441,8.026963233947754
1700936012548936700,11.889936767578124,1.2761077880859375,-5.490849018096924,8.028590202331543
1700936012565939000,11.90693896484375,1.2768477201461792,-5.489408016204834,8.029457092285156
1700936012582931500,11.923931396484376,1.279566764831543,-5.489654064178467,8.028854370117188
1700936012599923500,11.94092333984375,1.2824441194534302,-5.491466522216797,8.027155876159668
1700936012616920000,11.957920166015626,1.2843631505966187,-5.4933624267578125,8.025552749633789
1700936012633912600,11.97491259765625,1.285462737083435,-5.494649887084961,8.024496078491211
1700936012650905000,11.991905029296875,1.2880797386169434,-5.495851039886475,8.023253440856934
1700936012667899400,12.0088994140625,1.2907159328460693,-5.496479511260986,8.022398948669434
1700936012684892200,12.02589208984375,1.2917332649230957,-5.496915817260742,8.021936416625977
1700936012701886500,12.042886474609375,1.2913792133331299,-5.498811721801758,8.020694732666016
1700936012718879000,12.05987890625,1.2925472259521484,-5.50313663482666,8.017539024353027
1700936012735870500,12.076870361328124,1.2961102724075317,-5.508254051208496,8.013448715209961
1700936012752868000,12.0938681640625,1.3018369674682617,-5.512561798095703,8.00955581665039
1700936012769860000,12.110860107421875,1.3065547943115234,-5.5147705078125,8.0072660446167
1700936012786842000,12.127842041015626,1.3098129034042358,-5.5143561363220215,8.007019996643066
1700936012803847000,12.144846923828124,1.3107870817184448,-5.512753009796143,8.007966041564941
1700936012820841500,12.161841552734375,1.311329960823059,-5.512551307678223,8.008014678955078
1700936012837832200,12.178832275390626,1.3125684261322021,-5.5140838623046875,8.006756782531738
1700936012854826800,12.19582666015625,1.314345121383667,-5.516809463500977,8.004587173461914
1700936012871820500,12.212820556640626,1.3151408433914185,-5.519137859344482,8.002852439880371
1700936012888813000,12.22981298828125,1.3152642250061035,-5.520219326019287,8.00208568572998
1700936012905807600,12.2468076171875,1.3159071207046509,-5.519516944885254,8.002464294433594
1700936012922800400,12.26380029296875,1.3179265260696411,-5.516829967498779,8.003984451293945
1700936012939794200,12.280794189453125,1.32048499584198,-5.513025760650635,8.006184577941895
1700936012956787000,12.297786865234375,1.3228074312210083,-5.511241912841797,8.007030487060547
1700936012973770800,12.314770751953125,1.324124813079834,-5.512217998504639,8.006138801574707
1700936012990774000,12.33177392578125,1.3244084119796753,-5.514834403991699,8.004289627075195
1700936013007767800,12.348767822265625,1.3226490020751953,-5.517858982086182,8.002495765686035
1700936013024760600,12.365760498046875,1.3196128606796265,-5.519913673400879,8.001580238342285
1700936013041755100,12.382755126953125,1.3175183534622192,-5.518248081207275,8.003073692321777
1700936013058748000,12.399747802734375,1.3176218271255493,-5.513482570648193,8.006340980529785
1700936013075741700,12.41674169921875,1.3191386461257935,-5.507674694061279,8.010088920593262
1700936013092734700,12.433734619140624,1.3208261728286743,-5.502808094024658,8.013154029846191
1700936013109729000,12.45072900390625,1.3238695859909058,-5.50017786026001,8.014458656311035
1700936013126721500,12.467721435546874,1.32863187789917,-5.500247478485107,8.013622283935547
1700936013143715300,12.48471533203125,1.3341963291168213,-5.501683235168457,8.011710166931152
1700936013160708000,12.5017080078125,1.336962103843689,-5.5029144287109375,8.010403633117676
1700936013177693000,12.51869287109375,1.3369466066360474,-5.502908229827881,8.010412216186523
1700936013194695200,12.535695068359376,1.3375918865203857,-5.502814292907715,8.010368347167969
1700936013211699000,12.552698974609376,1.3399392366409302,-5.502799034118652,8.009986877441406
1700936013228681700,12.569681640625,1.3434439897537231,-5.502983093261719,8.009271621704102
1700936013245676500,12.586676513671875,1.3467286825180054,-5.504401683807373,8.007745742797852
1700936013262669000,12.6036689453125,1.3490395545959473,-5.507443904876709,8.005265235900879
1700936013279662800,12.620662841796875,1.3487513065338135,-5.5103678703308105,8.003301620483398
1700936013296656400,12.637656494140625,1.3466839790344238,-5.512288570404053,8.002326965332031
1700936013313650400,12.654650390625,1.3446801900863647,-5.512984275817871,8.002184867858887
1700936013330643000,12.671642822265625,1.3455528020858765,-5.5133490562438965,8.001785278320312
1700936013347637000,12.688636962890625,1.3481931686401367,-5.513424873352051,8.001289367675781
1700936013364629500,12.70562939453125,1.3514251708984375,-5.514060020446777,8.000307083129883
1700936013381615900,12.722615966796875,1.3532817363739014,-5.5152058601379395,7.999203205108643
1700936013398605800,12.739605712890626,1.35444176197052,-5.516963958740234,7.997795581817627
1700936013415610400,12.7566103515625,1.355065941810608,-5.517760276794434,7.997138023376465
1700936013432603100,12.77360302734375,1.3568216562271118,-5.517146587371826,7.997265338897705
1700936013449595100,12.79059521484375,1.359524130821228,-5.515934944152832,7.997641086578369
1700936013466592800,12.8075927734375,1.3631974458694458,-5.514069557189941,7.998301982879639
1700936013483584300,12.824584228515626,1.3655492067337036,-5.512485027313232,7.998992919921875
1700936013500572200,12.841572265625,1.3676977157592773,-5.511723041534424,7.999152183532715
1700936013517574100,12.85857421875,1.369717001914978,-5.5118231773376465,7.998737812042236
1700936013534561300,12.875561279296875,1.3707438707351685,-5.513681411743164,7.997280597686768
1700936013551560700,12.892560791015624,1.3691858053207397,-5.517050743103027,7.995223522186279
1700936013568542500,12.90954248046875,1.3675228357315063,-5.518989562988281,7.99416971206665
1700936013585545200,12.926545166015625,1.3689486980438232,-5.517444610595703,7.994991779327393
1700936013602538000,12.9435380859375,1.372111439704895,-5.511988162994385,7.9982147216796875
1700936013619527400,12.96052734375,1.375543236732483,-5.50461483001709,8.002699851989746
1700936013636529000,12.97752880859375,1.3782256841659546,-5.497981548309326,8.006797790527344
1700936013653519000,12.99451904296875,1.3811348676681519,-5.4943528175354,8.008788108825684
1700936013670515000,13.011514892578125,1.3844102621078491,-5.493490695953369,8.00881290435791
1700936013687502000,13.028502197265626,1.3867266178131104,-5.49412727355957,8.007974624633789
1700936013704498200,13.045498291015624,1.3883743286132812,-5.495076656341553,8.007038116455078
1700936013721492700,13.06249267578125,1.3897768259048462,-5.494666576385498,8.00707721710205
1700936013738485200,13.0794853515625,1.3921785354614258,-5.492732048034668,8.007986068725586
1700936013755479300,13.096479248046874,1.3952711820602417,-5.490898132324219,8.008706092834473
1700936013772472000,13.11347216796875,1.398860216140747,-5.488940715789795,8.009421348571777
1700936013789466400,13.13046630859375,1.4007772207260132,-5.4868550300598145,8.010515213012695
1700936013806459400,13.14745947265625,1.4016165733337402,-5.4849724769592285,8.011658668518066
1700936013823453200,13.164453125,1.402206540107727,-5.483880519866943,8.012303352355957
1700936013840445700,13.18144580078125,1.4030795097351074,-5.484013557434082,8.012059211730957
1700936013857442000,13.198442138671876,1.4043670892715454,-5.484715461730957,8.0113525390625
1700936013874431200,13.21543115234375,1.4053821563720703,-5.486041069030762,8.01026725769043
1700936013891413800,13.232413818359374,1.405414342880249,-5.488269805908203,8.008732795715332
1700936013908422400,13.24942236328125,1.4057163000106812,-5.490846157073975,8.006915092468262
1700936013925414000,13.266413818359375,1.4064902067184448,-5.493418216705322,8.00501537322998
1700936013942406400,13.283406494140625,1.4059489965438843,-5.496077060699463,8.00328540802002
1700936013959400400,13.300400390625,1.4038180112838745,-5.498467922210693,8.002015113830566
1700936013976393500,13.3173935546875,1.4017469882965088,-5.4993062019348145,8.001803398132324
1700936013993387800,13.3343876953125,1.4004193544387817,-5.498991012573242,8.002252578735352
1700936014010380500,13.351380615234374,1.3986358642578125,-5.497709274291992,8.003446578979492
1700936014027374300,13.368374267578124,1.3957304954528809,-5.496643543243408,8.004684448242188
1700936014044366800,13.385366943359376,1.392572045326233,-5.498003005981445,8.004301071166992
1700936014061361400,13.402361328125,1.3879685401916504,-5.5022664070129395,8.00217056274414
1700936014078354400,13.4193544921875,1.3804458379745483,-5.508335113525391,7.99929666519165
1700936014095347700,13.43634765625,1.3710566759109497,-5.513632774353027,7.997261047363281
1700936014112341000,13.453341064453125,1.3630462884902954,-5.515818119049072,7.997123718261719
1700936014129335600,13.47033544921875,1.35830819606781,-5.513935089111328,7.999228000640869
1700936014146328000,13.487328125,1.354892611503601,-5.508183002471924,8.003768920898438
1700936014163321900,13.50432177734375,1.351058006286621,-5.502192974090576,8.00853443145752
1700936014180314600,13.521314697265625,1.3467453718185425,-5.500741481781006,8.010257720947266
1700936014197309000,13.538308837890625,1.3426309823989868,-5.503320217132568,8.009178161621094
1700936014214301700,13.5553017578125,1.3394933938980103,-5.507784843444824,8.006632804870605
1700936014231295700,13.572295654296875,1.3368604183197021,-5.512680530548096,8.003704071044922
1700936014248288300,13.589288330078125,1.3348591327667236,-5.515712261199951,8.001949310302734
1700936014265282800,13.60628271484375,1.3319209814071655,-5.515544414520264,8.002554893493652
1700936014282273000,13.62327294921875,1.3288110494613647,-5.513588905334473,8.00441837310791
1700936014299270000,13.640269775390625,1.3264107704162598,-5.511655330657959,8.006149291992188
1700936014316264200,13.65726416015625,1.3254129886627197,-5.509721755981445,8.007643699645996
1700936014333256700,13.674256591796874,1.3257042169570923,-5.508845329284668,8.008198738098145
1700936014350249200,13.691249267578126,1.3264353275299072,-5.509271144866943,8.007782936096191
1700936014367243300,13.7082431640625,1.3271089792251587,-5.510765552520752,8.006645202636719
1700936014384235800,13.72523583984375,1.3264862298965454,-5.512103080749512,8.005826950073242
1700936014401230300,13.742230224609376,1.3255237340927124,-5.512477397918701,8.005729675292969
1700936014418223000,13.75922314453125,1.3245080709457397,-5.511466026306152,8.006593704223633
1700936014435217200,13.776217041015625,1.3244335651397705,-5.508522987365723,8.008630752563477
1700936014452209400,13.79320947265625,1.324362874031067,-5.504763603210449,8.011226654052734
1700936014469204200,13.810204345703125,1.32414972782135,-5.501192092895508,8.013715744018555
1700936014486197000,13.827197021484375,1.3234573602676392,-5.497988224029541,8.016027450561523
1700936014503190800,13.844190673828125,1.3210985660552979,-5.494420051574707,8.0188627243042
1700936014520183300,13.861183349609375,1.3181217908859253,-5.490499496459961,8.022037506103516
1700936014537177900,13.878177734375,1.3161035776138306,-5.4854655265808105,8.025812149047852
1700936014554160000,13.89516015625,1.3146436214447021,-5.479719638824463,8.029974937438965
1700936014571164400,13.912164306640625,1.3152344226837158,-5.4745378494262695,8.03341293334961
1700936014588157000,13.929156982421874,1.3177344799041748,-5.471495628356934,8.035074234008789
1700936014605151700,13.94615185546875,1.3186368942260742,-5.470699787139893,8.035469055175781
1700936014622144300,13.963144287109374,1.3150897026062012,-5.471310615539551,8.035634994506836
1700936014639138000,13.980137939453124,1.3085359334945679,-5.471865653991699,8.036325454711914
1700936014656131000,13.997131103515626,1.3012425899505615,-5.470777988433838,8.038250923156738
1700936014673127700,14.014127685546875,1.2951890230178833,-5.468642234802246,8.040681838989258
1700936014690115800,14.03111572265625,1.2908778190612793,-5.467602252960205,8.042081832885742
1700936014707110400,14.0481103515625,1.2874795198440552,-5.469048500061035,8.041643142700195
1700936014724104200,14.065104248046875,1.2851160764694214,-5.473440170288086,8.039032936096191
1700936014741101800,14.082101806640624,1.2842015027999878,-5.4811835289001465,8.03390121459961
1700936014758091800,14.099091796875,1.282729148864746,-5.490764141082764,8.027591705322266
1700936014775085800,14.1160859375,1.2788645029067993,-5.50032377243042,8.021661758422852
1700936014792078800,14.133078857421875,1.2735601663589478,-5.509202003479004,8.016410827636719
1700936014809062400,14.1500625,1.270506501197815,-5.5185651779174805,8.010454177856445
1700936014826065700,14.167065673828125,1.2715554237365723,-5.528788089752197,8.003233909606934
1700936014843059500,14.1840595703125,1.2751190662384033,-5.540667533874512,7.994448184967041
1700936014860052200,14.20105224609375,1.2762116193771362,-5.5547614097595215,7.984485626220703
1700936014877046800,14.218046875,1.26972496509552,-5.569840908050537,7.975011348724365
1700936014894039300,14.235039306640624,1.2572721242904663,-5.5838446617126465,7.967187404632568
1700936014911033600,14.25203369140625,1.2436341047286987,-5.594793319702148,7.961642742156982
1700936014928038400,14.269038330078125,1.2342250347137451,-5.602161884307861,7.957925796508789
1700936014945024000,14.28602392578125,1.228702425956726,-5.607030868530273,7.95535135269165
1700936014962009900,14.303009765625,1.2248036861419678,-5.611237049102783,7.952986240386963
1700936014979007200,14.32000732421875,1.221352458000183,-5.615151405334473,7.950753211975098
1700936014995999700,14.336999755859376,1.2210694551467896,-5.616494655609131,7.949848651885986
1700936015012994600,14.35399462890625,1.2202770709991455,-5.612312316894531,7.952922821044922
1700936015029987000,14.370987060546875,1.216103434562683,-5.602318286895752,7.960605621337891
1700936015046981000,14.387981201171876,1.2113633155822754,-5.588409423828125,7.971097946166992
1700936015063973400,14.404973388671875,1.2095811367034912,-5.571109294891357,7.983469486236572
1700936015080968200,14.42196826171875,1.2124801874160767,-5.552316188812256,7.996110916137695
1700936015097960700,14.438960693359375,1.2201306819915771,-5.535470008850098,8.006620407104492
1700936015114954800,14.455954833984375,1.2288202047348022,-5.520802021026611,8.015414237976074
1700936015131949000,14.472948974609375,1.2343446016311646,-5.50708532333374,8.023998260498047
1700936015148942000,14.489942138671875,1.2368054389953613,-5.49249792098999,8.033611297607422
1700936015165934600,14.5069345703125,1.2404146194458008,-5.476166725158691,8.044195175170898
1700936015182928600,14.5239287109375,1.2461100816726685,-5.456997871398926,8.056333541870117
1700936015199921200,14.540921142578124,1.2515617609024048,-5.436609268188477,8.069262504577637
1700936015216915700,14.557915771484375,1.2552834749221802,-5.416472434997559,8.08221435546875
1700936015233908200,14.574908203125,1.2589234113693237,-5.399229049682617,8.093178749084473
1700936015250902500,14.591902587890624,1.2642543315887451,-5.386451721191406,8.100859642028809
1700936015267895000,14.60889501953125,1.2714972496032715,-5.380957126617432,8.103377342224121
1700936015284889300,14.625889404296874,1.2771397829055786,-5.381838321685791,8.101903915405273
1700936015301882000,14.642882080078126,1.2785978317260742,-5.387917518615723,8.09763240814209
1700936015318873600,14.65987353515625,1.275905728340149,-5.399004936218262,8.090669631958008
1700936015335871200,14.676871337890624,1.275410771369934,-5.414323806762695,8.080503463745117
1700936015352863200,14.69386328125,1.2777283191680908,-5.431059837341309,8.06889820098877
1700936015369855700,14.710855712890625,1.2799944877624512,-5.448718547821045,8.056623458862305
1700936015386849800,14.727849853515625,1.2812325954437256,-5.467102527618408,8.043962478637695
1700936015403842600,14.744842529296875,1.2812609672546387,-5.486135005950928,8.030990600585938
1700936015420837000,14.761837158203125,1.2796688079833984,-5.505486488342285,8.01799201965332
1700936015437829600,14.77882958984375,1.2769149541854858,-5.524684429168701,8.00521469116211
1700936015454824000,14.795823974609375,1.2739121913909912,-5.543074607849121,7.9929704666137695
1700936015471800600,14.812800537109375,1.272294521331787,-5.561055660247803,7.980729103088379
1700936015488810500,14.829810546875,1.2716723680496216,-5.577915191650391,7.96905517578125
1700936015505803300,14.84680322265625,1.2712247371673584,-5.592576503753662,7.958843231201172
1700936015522788900,14.863788818359374,1.2717478275299072,-5.604172229766846,7.95059871673584
1700936015539788300,14.880788330078126,1.274206519126892,-5.611947536468506,7.944718837738037
1700936015556785000,14.897784912109374,1.2761337757110596,-5.615303993225098,7.942038536071777
1700936015573766700,14.9147666015625,1.2767419815063477,-5.615081787109375,7.942097187042236
1700936015590771200,14.931771240234376,1.2765358686447144,-5.613173484802246,7.943478584289551
1700936015607764000,14.948763916015626,1.2781376838684082,-5.611882209777832,7.944133758544922
1700936015624758300,14.96575830078125,1.2807706594467163,-5.610077857971191,7.944983005523682
1700936015641740800,14.98274072265625,1.2824923992156982,-5.607464790344238,7.946549892425537
1700936015658745000,14.9997451171875,1.2819725275039673,-5.603815078735352,7.949207782745361
1700936015675737900,15.01673779296875,1.2817327976226807,-5.596594333648682,7.9543328285217285
1700936015692732200,15.033732177734375,1.2831095457077026,-5.583207130432129,7.963512420654297
1700936015709725000,15.050724853515625,1.285187005996704,-5.564393043518066,7.976335525512695
1700936015726719000,15.067718994140625,1.2866263389587402,-5.544314384460449,7.990073204040527
1700936015743711500,15.08471142578125,1.2895432710647583,-5.52740478515625,8.001312255859375
1700936015760705800,15.101705810546875,1.2941677570343018,-5.514700889587402,8.009325981140137
1700936015777698800,15.11869873046875,1.2994890213012695,-5.503171443939209,8.016393661499023
1700936015794692600,15.135692626953125,1.3042235374450684,-5.490579128265381,8.024253845214844
1700936015811685000,15.15268505859375,1.3070775270462036,-5.47536563873291,8.0341796875
1700936015828680000,15.169679931640625,1.308127999305725,-5.45831298828125,8.04560375213623
1700936015845672400,15.18667236328125,1.3088785409927368,-5.440749645233154,8.05737018585205
1700936015862666500,15.20366650390625,1.3097532987594604,-5.423945426940918,8.068549156188965
1700936015879659000,15.220658935546876,1.3113446235656738,-5.409359455108643,8.078076362609863
1700936015896653600,15.237653564453124,1.3138176202774048,-5.398562431335449,8.084894180297852
1700936015913635600,15.254635498046875,1.316131353378296,-5.39146614074707,8.089253425598145
1700936015930640400,15.271640380859376,1.3179490566253662,-5.386480331420898,8.092278480529785
1700936015947633000,15.2886328125,1.3190760612487793,-5.382852077484131,8.094508171081543
1700936015964627500,15.30562744140625,1.3197753429412842,-5.379267692565918,8.096776008605957
1700936015981620200,15.3226201171875,1.3202857971191406,-5.374861240386963,8.09961986541748
1700936015998613800,15.33961376953125,1.32282292842865,-5.371194839477539,8.101637840270996
1700936016015606500,15.3566064453125,1.3262869119644165,-5.370285511016846,8.101673126220703
1700936016032601300,15.373601318359375,1.3286411762237549,-5.372552394866943,8.099784851074219
1700936016049593900,15.39059375,1.329367756843567,-5.376400470733643,8.097112655639648
1700936016066588000,15.407587890625,1.3301305770874023,-5.380681037902832,8.094141960144043
1700936016083580400,15.424580322265625,1.3306690454483032,-5.383631229400635,8.09209156036377
1700936016100575000,15.441574951171875,1.330121397972107,-5.384135723114014,8.091845512390137
1700936016117567700,15.458567626953124,1.327165126800537,-5.384938716888428,8.091796875
1700936016134561500,15.4755615234375,1.3230127096176147,-5.389084339141846,8.089717864990234
1700936016151554000,15.492553955078124,1.3185802698135376,-5.398863315582275,8.083918571472168
1700936016168548600,15.509548583984374,1.3144985437393188,-5.414755344390869,8.07394790649414
1700936016185541400,15.526541259765626,1.3116904497146606,-5.43398904800415,8.06147289276123
1700936016202535700,15.54353564453125,1.3097199201583862,-5.451549053192139,8.049928665161133
1700936016219537200,15.560537109375,1.3092402219772339,-5.463057994842529,8.042201042175293
1700936016236523500,15.5775234375,1.3109980821609497,-5.4676971435546875,8.038762092590332
1700936016253514500,15.594514404296875,1.3153151273727417,-5.468369960784912,8.03759765625
1700936016270505500,15.61150537109375,1.319919228553772,-5.468945026397705,8.036454200744629
1700936016287505700,15.628505615234374,1.3219757080078125,-5.470392227172852,8.03512954711914
1700936016304505900,15.645505859375,1.3215374946594238,-5.471266269683838,8.034605979919434
1700936016321489200,15.6624892578125,1.3197169303894043,-5.471126556396484,8.03499984741211
1700936016338483000,15.67948291015625,1.317458987236023,-5.469176292419434,8.036699295043945
1700936016355475700,15.696475830078125,1.3157124519348145,-5.465885639190674,8.039222717285156
1700936016372470000,15.713469970703125,1.3151808977127075,-5.463196277618408,8.0411376953125
1700936016389462500,15.730462646484375,1.314684271812439,-5.462337970733643,8.041803359985352
1700936016406456600,15.74745654296875,1.313983678817749,-5.462615489959717,8.041728019714355
1700936016423449300,15.764449462890624,1.314192771911621,-5.4634623527526855,8.041118621826172
1700936016440444200,15.781444091796875,1.313632845878601,-5.464508533477783,8.040499687194824
1700936016457436700,15.798436767578124,1.3109010457992554,-5.465494632720947,8.040274620056152
1700936016474430700,15.8154306640625,1.307492733001709,-5.4672770500183105,8.039617538452148
1700936016491413000,15.8324130859375,1.3046659231185913,-5.470738887786865,8.03772258758545
1700936016508417800,15.849417724609374,1.3033932447433472,-5.475788116455078,8.034488677978516
1700936016525410300,15.866410400390626,1.303051233291626,-5.480016231536865,8.031661987304688
1700936016542402000,15.883402099609375,1.3024226427078247,-5.480823993682861,8.03121280670166
1700936016559399400,15.9003994140625,1.2999097108840942,-5.478208541870117,8.033405303955078
1700936016576391700,15.9173916015625,1.2963602542877197,-5.472118377685547,8.038126945495605
1700936016593384400,15.934384521484375,1.2933509349822998,-5.463120460510254,8.044729232788086
1700936016610378200,15.951378173828125,1.2904402017593384,-5.453768253326416,8.051541328430176
1700936016627370800,15.968370849609375,1.2888283729553223,-5.448092937469482,8.05564022064209
1700936016644365300,15.985365234375,1.2899212837219238,-5.448657512664795,8.055082321166992
1700936016661357800,16.00235791015625,1.2910369634628296,-5.4541449546813965,8.051189422607422
1700936016678339000,16.019339111328126,1.289227843284607,-5.460683345794678,8.047045707702637
1700936016695328300,16.036328369140627,1.2862114906311035,-5.464665412902832,8.044825553894043
1700936016712342000,16.053342041015625,1.2854697704315186,-5.464080810546875,8.045341491699219
1700936016729321500,16.070321533203124,1.2877086400985718,-5.458731174468994,8.048613548278809
1700936016746325800,16.08732568359375,1.288843035697937,-5.449836730957031,8.054457664489746
1700936016763314200,16.104314208984373,1.2874873876571655,-5.440768718719482,8.06080150604248
1700936016780317700,16.121317626953125,1.2867470979690552,-5.434656143188477,8.065042495727539
1700936016797305600,16.1383056640625,1.287405252456665,-5.432140350341797,8.066632270812988
1700936016814299400,16.15529931640625,1.2889702320098877,-5.431496620178223,8.066815376281738
1700936016831292400,16.17229248046875,1.2904998064041138,-5.4311652183532715,8.066794395446777
1700936016848287000,16.189286865234376,1.2898718118667603,-5.429176330566406,8.06823444366455
1700936016865279500,16.206279541015626,1.2889859676361084,-5.426208972930908,8.070371627807617
1700936016882273500,16.2232734375,1.2894619703292847,-5.423928737640381,8.07182788848877
1700936016899255600,16.240255615234375,1.2926641702651978,-5.423159599304199,8.071832656860352
1700936016916250600,16.257250732421873,1.2958202362060547,-5.423331260681152,8.071211814880371
1700936016933253000,16.274253173828125,1.2976295948028564,-5.4235382080078125,8.070779800415039
1700936016950247200,16.2912470703125,1.2986373901367188,-5.423662185668945,8.070534706115723
1700936016967240000,16.308239990234377,1.2997381687164307,-5.42469596862793,8.069664001464844
1700936016984234800,16.32523486328125,1.3015364408493042,-5.427502155303955,8.067485809326172
1700936017001227000,16.34222705078125,1.3050687313079834,-5.431394577026367,8.064295768737793
1700936017018221000,16.359220947265626,1.3100298643112183,-5.4356207847595215,8.060644149780273
1700936017035213800,16.3762138671875,1.3134934902191162,-5.44018030166626,8.057003021240234
1700936017052208000,16.3932080078125,1.3141261339187622,-5.44459867477417,8.053915977478027
1700936017069200600,16.41020068359375,1.3133572340011597,-5.448050022125244,8.051705360412598
1700936017086194700,16.427194580078126,1.312816858291626,-5.4501824378967285,8.050350189208984
1700936017103199200,16.44419921875,1.3124055862426758,-5.450743198394775,8.05003833770752
1700936017120181800,16.461181640625,1.3124713897705078,-5.4499688148498535,8.050552368164062
1700936017137174800,16.4781748046875,1.3126730918884277,-5.449774742126465,8.050650596618652
1700936017154168600,16.49516845703125,1.311994194984436,-5.451151371002197,8.04982852935791
1700936017171161300,16.512161376953124,1.3091965913772583,-5.454103946685791,8.048283576965332
1700936017188155600,16.52915576171875,1.3063844442367554,-5.458783149719238,8.045567512512207
1700936017205148700,16.546148681640624,1.308504343032837,-5.464627742767334,8.041254043579102
1700936017222142500,16.563142578125,1.312381625175476,-5.4662675857543945,8.039508819580078
1700936017239135200,16.58013525390625,1.3147040605545044,-5.462400913238525,8.041755676269531
1700936017256129800,16.5971298828125,1.3166824579238892,-5.457780361175537,8.044569969177246
1700936017273112600,16.614112548828125,1.3213169574737549,-5.4544501304626465,8.046069145202637
1700936017290116600,16.63111669921875,1.3273279666900635,-5.4531049728393555,8.045991897583008
1700936017307108900,16.64810888671875,1.332566499710083,-5.454838275909424,8.043949127197266
1700936017324100900,16.665100830078124,1.3364551067352295,-5.459178447723389,8.040359497070312
1700936017341089800,16.68208984375,1.3393840789794922,-5.463082313537598,8.037219047546387
1700936017358092300,16.69909228515625,1.3416630029678345,-5.465555191040039,8.035157203674316
1700936017375072500,16.716072509765624,1.344177007675171,-5.465310096740723,8.034904479980469
1700936017392077600,16.73307763671875,1.3476139307022095,-5.462220668792725,8.036430358886719
1700936017409053200,16.75005322265625,1.3519207239151,-5.458302974700928,8.03836727142334
1700936017426064100,16.767064208984376,1.3539286851882935,-5.45612907409668,8.039505958557129
1700936017443056600,16.784056640625,1.352906584739685,-5.4563775062561035,8.039508819580078
1700936017460051000,16.801051025390624,1.3496949672698975,-5.4590606689453125,8.038228988647461
1700936017477044000,16.8180439453125,1.3463419675827026,-5.464018821716309,8.035421371459961
1700936017494037800,16.835037841796876,1.3432040214538574,-5.470494747161865,8.031538009643555
1700936017511030500,16.852030517578125,1.340897560119629,-5.476484775543213,8.027840614318848
1700936017528025000,16.869025146484375,1.3385262489318848,-5.480875015258789,8.025239944458008
1700936017545017900,16.886017822265625,1.3342288732528687,-5.4840593338012695,8.02377986907959
1700936017562011400,16.903011474609375,1.3289716243743896,-5.486323833465576,8.02310562133789
1700936017579004400,16.92000439453125,1.323623776435852,-5.488072872161865,8.02279281616211
1700936017595999000,16.9369990234375,1.3191503286361694,-5.490009307861328,8.022204399108887
1700936017612991500,16.953991455078125,1.3157265186309814,-5.491898536682129,8.02147388458252
1700936017629985500,16.970985595703127,1.311255693435669,-5.493111610412598,8.021373748779297
1700936017646978000,16.98797802734375,1.3044261932373047,-5.4947896003723145,8.02133846282959
1700936017663972400,17.004972412109375,1.2972354888916016,-5.498071670532227,8.020255088806152
1700936017680965400,17.02196533203125,1.2921007871627808,-5.502325534820557,8.018167495727539
1700936017697959400,17.03895947265625,1.287535548210144,-5.507038116455078,8.015665054321289
1700936017714951700,17.05595166015625,1.2818515300750732,-5.511176586151123,8.013733863830566
1700936017731946200,17.0729462890625,1.2774360179901123,-5.512698650360107,8.013389587402344
1700936017748939300,17.089939208984376,1.2759616374969482,-5.510250568389893,8.015310287475586
1700936017765933000,17.10693310546875,1.2757259607315063,-5.504589557647705,8.019235610961914
1700936017782925800,17.12392578125,1.275942325592041,-5.499537467956543,8.022665977478027
1700936017799920400,17.14092041015625,1.2763895988464355,-5.49745512008667,8.02402114868164
1700936017816912600,17.15791259765625,1.2780230045318604,-5.499007225036621,8.022698402404785
1700936017833907000,17.174906982421874,1.280837893486023,-5.503389835357666,8.019244194030762
1700936017850899500,17.1918994140625,1.2826383113861084,-5.509014129638672,8.015093803405762
1700936017867894000,17.20889404296875,1.2839866876602173,-5.512515544891357,8.012469291687012
1700936017884886800,17.22588671875,1.2860734462738037,-5.5141215324401855,8.011029243469238
1700936017901880600,17.242880615234377,1.288360357284546,-5.514739036560059,8.010237693786621
1700936017918873300,17.259873291015627,1.2911901473999023,-5.513909339904785,8.010354042053223
1700936017935868000,17.276867919921877,1.2936530113220215,-5.512060642242432,8.01122760772705
1700936017952860700,17.293860595703126,1.296960711479187,-5.511823654174805,8.010856628417969
1700936017969854500,17.3108544921875,1.3002699613571167,-5.513489723205566,8.009172439575195
1700936017986847000,17.327846923828126,1.3007514476776123,-5.51570463180542,8.00757122039795
1700936018003841500,17.344841552734376,1.2979357242584229,-5.518279552459717,8.00625228881836
1700936018020821800,17.36182177734375,1.2945420742034912,-5.520208835601807,8.005471229553223
1700936018037828000,17.378828125,1.292433500289917,-5.520729064941406,8.005454063415527
1700936018054824400,17.395824462890626,1.2916038036346436,-5.519519329071045,8.006420135498047
1700936018071812400,17.412812255859375,1.2910091876983643,-5.516846656799316,8.008359909057617
1700936018088808200,17.42980810546875,1.2891926765441895,-5.513325214385986,8.011076927185059
1700936018105802000,17.446802001953124,1.2853142023086548,-5.510433197021484,8.013688087463379
1700936018122794800,17.463794677734374,1.280176043510437,-5.507733345031738,8.01636791229248
1700936018139789300,17.480789306640624,1.275154948234558,-5.50504732131958,8.019011497497559
1700936018156782000,17.497781982421873,1.2691525220870972,-5.503209590911865,8.021224975585938
1700936018173765400,17.514765380859377,1.2641627788543701,-5.503447532653809,8.0218505859375
1700936018190769000,17.531768798828125,1.2614754438400269,-5.505324363708496,8.020984649658203
1700936018207763000,17.548762939453123,1.2585874795913696,-5.508318901062012,8.01938247680664
1700936018224755700,17.565755615234377,1.2541041374206543,-5.510822296142578,8.018365859985352
1700936018241754400,17.58275439453125,1.2500783205032349,-5.510146617889404,8.019457817077637
1700936018258742500,17.599742431640625,1.2464568614959717,-5.506078720092773,8.022815704345703
1700936018275737000,17.616737060546875,1.242862582206726,-5.501132011413574,8.026765823364258
1700936018292729600,17.6337294921875,1.2408920526504517,-5.498270511627197,8.029030799865723
1700936018309724000,17.650723876953126,1.2410794496536255,-5.497919082641602,8.029240608215332
1700936018326716400,17.66771630859375,1.2414683103561401,-5.499411106109619,8.028159141540527
1700936018343713500,17.684713623046875,1.2416507005691528,-5.502147674560547,8.026256561279297
1700936018360701200,17.701701171875,1.2420810461044312,-5.506222724914551,8.023395538330078
1700936018377697500,17.718697509765626,1.2426494359970093,-5.510466575622559,8.020392417907715
1700936018394690000,17.73568994140625,1.243271827697754,-5.515354156494141,8.016936302185059
1700936018411684900,17.752684814453126,1.2460724115371704,-5.5214691162109375,8.01229190826416
1700936018428677400,17.769677490234375,1.2505197525024414,-5.527712821960449,8.007290840148926
1700936018445668900,17.7866689453125,1.2538883686065674,-5.533299922943115,8.002904891967773
1700936018462666800,17.803666748046876,1.255723476409912,-5.538417339324951,7.999076843261719
1700936018479648300,17.820648193359375,1.2561298608779907,-5.543807506561279,7.99527645111084
1700936018496651000,17.837651123046875,1.2559003829956055,-5.549583435058594,7.991304397583008
1700936018513645000,17.85464501953125,1.25583815574646,-5.555724143981934,7.987046718597412
1700936018530637800,17.871637939453127,1.2563375234603882,-5.5631937980651855,7.981766700744629
1700936018547632000,17.888632080078125,1.2573250532150269,-5.57096529006958,7.976189613342285
1700936018564625000,17.905625,1.256062388420105,-5.57609224319458,7.972805023193359
1700936018581619000,17.922618896484376,1.2525955438613892,-5.576548099517822,7.973031044006348
1700936018598611700,17.93961181640625,1.2489445209503174,-5.574015140533447,7.975375652313232
1700936018615606000,17.95660595703125,1.245147705078125,-5.570253849029541,7.978597640991211
1700936018632598800,17.973598876953126,1.241833209991455,-5.564605712890625,7.983051776885986
1700936018649592600,17.990592529296876,1.2398544549942017,-5.557807922363281,7.988094329833984
1700936018666585300,18.00758544921875,1.2397735118865967,-5.551003932952881,7.992835521697998
1700936018683571000,18.024571044921874,1.2407678365707397,-5.545400142669678,7.996572971343994
1700936018700572400,18.041572509765626,1.242100715637207,-5.54163932800293,7.998971462249756
1700936018717566500,18.05856640625,1.2438361644744873,-5.539906024932861,7.999902248382568
1700936018734559500,18.0755595703125,1.2464550733566284,-5.5409369468688965,7.998780727386475
1700936018751553800,18.0925537109375,1.2509711980819702,-5.542440414428711,7.997032642364502
1700936018768546300,18.10954638671875,1.2572400569915771,-5.540376663208008,7.997480392456055
1700936018785540600,18.12654052734375,1.2637792825698853,-5.5343499183654785,8.000622749328613
1700936018802533000,18.143533203125,1.269575595855713,-5.5270538330078125,8.004746437072754
1700936018819527400,18.16052734375,1.274764060974121,-5.521463394165039,8.007780075073242
1700936018836519700,18.177519775390625,1.2820695638656616,-5.5193071365356445,8.008101463317871
1700936018853515300,18.194515380859375,1.2929604053497314,-5.520264148712158,8.00568962097168
1700936018870503400,18.21150341796875,1.3036776781082153,-5.5224833488464355,8.002420425415039
1700936018887505200,18.228505126953124,1.311761498451233,-5.523313045501709,8.000526428222656
1700936018904494000,18.245494140625,1.3163337707519531,-5.522830963134766,8.000107765197754
1700936018921488400,18.26248828125,1.3189657926559448,-5.520526885986328,8.001263618469238
1700936018938479000,18.27947900390625,1.3207460641860962,-5.5176591873168945,8.002948760986328
1700936018955477200,18.296477294921875,1.3214046955108643,-5.515588760375977,8.004267692565918
1700936018972468000,18.313468017578124,1.3212813138961792,-5.515979290008545,8.00401782989502
1700936018989462000,18.3304619140625,1.3194315433502197,-5.517141342163086,8.003521919250488
1700936019006454500,18.34745458984375,1.316728949546814,-5.517661094665527,8.003608703613281
1700936019023449300,18.364449462890626,1.3131344318389893,-5.517106533050537,8.004582405090332
1700936019040441900,18.38144189453125,1.3110729455947876,-5.5152907371521,8.006172180175781
1700936019057435100,18.39843505859375,1.3091647624969482,-5.512028694152832,8.00872802734375
1700936019074428400,18.415428466796875,1.3058216571807861,-5.507309436798096,8.012519836425781
1700936019091423200,18.43242333984375,1.300909399986267,-5.502613544464111,8.016546249389648
1700936019108415700,18.449415771484375,1.2949060201644897,-5.4996490478515625,8.019549369812012
1700936019125408500,18.466408447265625,1.2887778282165527,-5.49762487411499,8.02192497253418
1700936019142402300,18.48340234375,1.282197117805481,-5.496105194091797,8.02402114868164
1700936019159397000,18.500397216796873,1.2778303623199463,-5.494673728942871,8.025697708129883
1700936019176389600,18.5173896484375,1.2765980958938599,-5.493138790130615,8.026945114135742
1700936019193383400,18.534383544921877,1.2766478061676025,-5.4905171394348145,8.028729438781738
1700936019210376400,18.55137646484375,1.2773394584655762,-5.4895219802856445,8.02929973602295
1700936019227370200,18.568370361328125,1.2801201343536377,-5.492007255554199,8.0271577835083
1700936019244364000,18.585364013671875,1.2843377590179443,-5.499000072479248,8.021695137023926
1700936019261357300,18.602357421875,1.2863801717758179,-5.508110523223877,8.01511287689209
1700936019278350000,18.61935009765625,1.2871774435043335,-5.5164475440979,8.00925064086914
1700936019295354400,18.636354248046874,1.289293885231018,-5.521825790405273,8.005202293395996
1700936019312337200,18.653337158203126,1.2932360172271729,-5.523114204406738,8.003679275512695
1700936019329331500,18.67033154296875,1.2976080179214478,-5.521203994750977,8.004288673400879
1700936019346324000,18.687323974609374,1.303261160850525,-5.518033504486084,8.0055570602417
1700936019363318500,18.704318603515624,1.3101073503494263,-5.514759540557861,8.006694793701172
1700936019380311300,18.721311279296874,1.3158735036849976,-5.513330936431885,8.006733894348145
1700936019397305000,18.73830517578125,1.318426489830017,-5.514908313751221,8.005227088928223
1700936019414297600,18.755297607421873,1.3176668882369995,-5.518907070159912,8.002594947814941
1700936019431292200,18.772292236328123,1.3145573139190674,-5.523360729217529,8.000033378601074
1700936019448284700,18.78928466796875,1.3118243217468262,-5.528464317321777,7.9969563484191895
1700936019465279500,18.806279541015623,1.3111598491668701,-5.533074855804443,7.993875503540039
1700936019482271700,18.823271728515625,1.3122401237487793,-5.53707218170166,7.990931510925293
1700936019499266300,18.840266357421875,1.312408447265625,-5.5403733253479,7.988615989685059
1700936019516258800,18.8572587890625,1.309884786605835,-5.543511390686035,7.986852169036865
1700936019533252900,18.8742529296875,1.3067357540130615,-5.5471696853637695,7.984827518463135
1700936019550243300,18.891243408203124,1.3048609495162964,-5.5511345863342285,7.982377052307129
1700936019567241700,18.90824169921875,1.3034260272979736,-5.553662300109863,7.980854511260986
1700936019584228400,18.925228271484375,1.300423502922058,-5.554693222045898,7.980625629425049
1700936019601226800,18.942226806640626,1.2976372241973877,-5.555721759796143,7.980365753173828
1700936019618219500,18.959219482421876,1.2951703071594238,-5.556068420410156,7.980524063110352
1700936019635214000,18.976214111328126,1.2932225465774536,-5.554851055145264,7.981687545776367
1700936019652206300,18.993206298828124,1.2920759916305542,-5.552800178527832,7.983299255371094
1700936019669197800,19.01019775390625,1.2909824848175049,-5.550825119018555,7.98484992980957
1700936019686197200,19.027197265625,1.2904490232467651,-5.549163818359375,7.986090183258057
1700936019703187700,19.044187744140626,1.2906585931777954,-5.546733379364014,7.98774528503418
1700936019720177400,19.061177490234375,1.2903308868408203,-5.5436482429504395,7.9899396896362305
1700936019737177600,19.078177490234374,1.290001392364502,-5.540069103240967,7.992473602294922
1700936019754167000,19.0951669921875,1.2912362813949585,-5.535256385803223,7.995608329772949
1700936019771161900,19.112161865234373,1.292901635169983,-5.530088424682617,7.9989166259765625
1700936019788154000,19.129154052734375,1.2949426174163818,-5.526756763458252,8.000885963439941
1700936019805148200,19.146148193359377,1.2962815761566162,-5.526157379150391,8.001084327697754
1700936019822141000,19.163140869140626,1.2958649396896362,-5.52811336517334,7.999801158905029
1700936019839135200,19.18013525390625,1.294758677482605,-5.530420303344727,7.998385429382324
1700936019856128000,19.1971279296875,1.2946425676345825,-5.529397010803223,7.999111652374268
1700936019873128200,19.214128173828126,1.2952063083648682,-5.524038314819336,8.00272274017334
1700936019890107000,19.23110693359375,1.2953548431396484,-5.516571998596191,8.00784683227539
1700936019907109400,19.248109375,1.2945762872695923,-5.509302139282227,8.012974739074707
1700936019924102000,19.265101806640626,1.2938313484191895,-5.503718852996826,8.016932487487793
1700936019941096000,19.282095947265624,1.293191909790039,-5.500281810760498,8.019393920898438
1700936019958088400,19.29908837890625,1.291599154472351,-5.497829914093018,8.021331787109375
1700936019975080400,19.31608056640625,1.2893096208572388,-5.4951653480529785,8.023524284362793
1700936019992075800,19.33307568359375,1.2863070964813232,-5.493263244628906,8.025308609008789
1700936020009067300,19.3500673828125,1.2839930057525635,-5.492862701416016,8.02595329284668
1700936020026065000,19.36706494140625,1.2828025817871094,-5.493927001953125,8.02541446685791
1700936020043053000,19.384052978515626,1.2816705703735352,-5.495372772216797,8.024606704711914
1700936020060049400,19.40104931640625,1.2803926467895508,-5.496895790100098,8.023768424987793
1700936020077033500,19.418033447265625,1.2782984972000122,-5.498170852661133,8.02322769165039
1700936020094036200,19.4350361328125,1.2761454582214355,-5.499053955078125,8.022966384887695
1700936020111030800,19.45203076171875,1.274724006652832,-5.498652935028076,8.023467063903809
1700936020128023800,19.46902392578125,1.2737473249435425,-5.497715473175049,8.024264335632324
1700936020145017600,19.486017578125,1.2738007307052612,-5.497495174407959,8.024407386779785
1700936020162007600,19.503007568359376,1.2735499143600464,-5.497942924499512,8.024138450622559
1700936020179007200,19.52000732421875,1.2716858386993408,-5.499885559082031,8.023103713989258
1700936020195997200,19.5369970703125,1.2688517570495605,-5.5025458335876465,8.021729469299316
1700936020212991200,19.5539912109375,1.26862633228302,-5.504167556762695,8.020650863647461
1700936020229984300,19.570984375,1.2694369554519653,-5.5035552978515625,8.020942687988281
1700936020246978800,19.587978759765626,1.2706832885742188,-5.501132011413574,8.022408485412598
1700936020263971300,19.604971435546876,1.2712832689285278,-5.4970526695251465,8.025108337402344
1700936020280965000,19.621965087890626,1.2718931436538696,-5.492042541503906,8.028441429138184
1700936020297958000,19.6389580078125,1.2719670534133911,-5.487769603729248,8.031351089477539
1700936020314952700,19.65595263671875,1.2707633972167969,-5.483663082122803,8.034347534179688
1700936020331945200,19.6729453125,1.268802285194397,-5.478626251220703,8.038091659545898
1700936020348939300,19.689939208984374,1.2678468227386475,-5.475190162658691,8.040581703186035
1700936020365931500,19.706931640625,1.2672919034957886,-5.4744720458984375,8.041158676147461
1700936020382926000,19.723926025390625,1.2666616439819336,-5.47591495513916,8.040275573730469
1700936020399919000,19.740919189453123,1.2643601894378662,-5.477802276611328,8.039351463317871
1700936020416913200,19.7579130859375,1.2631372213363647,-5.478518962860107,8.039055824279785
1700936020433905400,19.774905517578127,1.262630581855774,-5.475412845611572,8.041251182556152
1700936020450900200,19.791900146484377,1.2630594968795776,-5.467967987060547,8.046249389648438
1700936020467882000,19.808882080078124,1.2634564638137817,-5.458922386169434,8.052327156066895
1700936020484887000,19.825886962890625,1.2634003162384033,-5.451620101928711,8.057281494140625
1700936020501879600,19.842879638671874,1.264120101928711,-5.447594165802002,8.059890747070312
1700936020518874000,19.8598740234375,1.2655906677246094,-5.44572639465332,8.060922622680664
1700936020535866600,19.87686669921875,1.2659845352172852,-5.44448184967041,8.061699867248535
1700936020552860700,19.893860595703124,1.2642855644226074,-5.443402290344238,8.06269645690918
1700936020569853400,19.910853515625,1.2622747421264648,-5.4423089027404785,8.063749313354492
1700936020586847700,19.92784765625,1.261946678161621,-5.442023277282715,8.063992500305176
1700936020603840800,19.9448408203125,1.2634518146514893,-5.443297386169434,8.062897682189941
1700936020620834600,19.96183447265625,1.2660681009292603,-5.445384502410889,8.061079025268555
1700936020637827000,19.9788271484375,1.2682605981826782,-5.446908950805664,8.05970287322998
1700936020654814000,19.99581396484375,1.2694966793060303,-5.447702884674072,8.058972358703613
1700936020671814700,20.012814697265625,1.268054723739624,-5.448221683502197,8.05884838104248
1700936020688808400,20.029808349609375,1.2640894651412964,-5.448279857635498,8.059432029724121
1700936020705801000,20.046801025390625,1.2599899768829346,-5.448184967041016,8.060136795043945
1700936020722795500,20.06379541015625,1.2583614587783813,-5.449017524719238,8.059829711914062
1700936020739777500,20.080777587890626,1.2564550638198853,-5.450747013092041,8.05895709991455
1700936020756779800,20.09777978515625,1.2540000677108765,-5.45260763168335,8.058080673217773
1700936020773767000,20.114766845703127,1.2527493238449097,-5.45473575592041,8.05683422088623
1700936020790771000,20.13177099609375,1.2522482872009277,-5.45658540725708,8.055659294128418
1700936020807760600,20.1487607421875,1.2512246370315552,-5.45888614654541,8.054262161254883
1700936020824756000,20.165755859375,1.2495990991592407,-5.461333751678467,8.052854537963867
1700936020841749000,20.1827490234375,1.248531699180603,-5.462782859802246,8.05203628540039
1700936020858728400,20.199728515625,1.2495836019515991,-5.461675643920898,8.052624702453613
1700936020875736000,20.216736083984376,1.2514852285385132,-5.456971168518066,8.055519104003906
1700936020892729900,20.233729736328126,1.2542918920516968,-5.449745178222656,8.059972763061523
1700936020909721300,20.250721435546875,1.2566094398498535,-5.44223165512085,8.064685821533203
1700936020926717400,20.267717529296874,1.2574926614761353,-5.435946941375732,8.06878662109375
1700936020943710000,20.2847099609375,1.2570236921310425,-5.431849956512451,8.07161808013916
1700936020960703700,20.301703857421874,1.2545204162597656,-5.430595874786377,8.072851181030273
1700936020977696500,20.318696533203124,1.25030517578125,-5.432839393615723,8.071995735168457
1700936020994691000,20.335691162109374,1.247226595878601,-5.437829494476318,8.069108963012695
1700936021011683800,20.352683837890623,1.247875452041626,-5.44168758392334,8.06640911102295
1700936021028678000,20.369677978515625,1.2501388788223267,-5.439607620239258,8.067461013793945
1700936021045670700,20.386670654296875,1.2520993947982788,-5.432617664337158,8.071867942810059
1700936021062665000,20.4036650390625,1.2535182237625122,-5.424335479736328,8.077214241027832
1700936021079657700,20.42065771484375,1.2547911405563354,-5.417535781860352,8.08158016204834
1700936021096651800,20.43765185546875,1.256050944328308,-5.413973331451416,8.083769798278809
1700936021113644500,20.45464453125,1.257456660270691,-5.415882110595703,8.082273483276367
1700936021130638800,20.471638916015625,1.2567239999771118,-5.421889305114746,8.07835865020752
1700936021147621600,20.48862158203125,1.2529785633087158,-5.429207801818848,8.074024200439453
1700936021164625700,20.505625732421876,1.2478914260864258,-5.43575382232666,8.070406913757324
1700936021181615900,20.522615966796874,1.2442820072174072,-5.440645694732666,8.067667961120605
1700936021198615600,20.539615478515625,1.2435367107391357,-5.4445648193359375,8.065138816833496
1700936021215605500,20.55660546875,1.2440825700759888,-5.447988510131836,8.06274127960205
1700936021232599300,20.573599365234376,1.2439650297164917,-5.451014518737793,8.060713768005371
1700936021249592000,20.590592041015626,1.2421766519546509,-5.454852104187012,8.058394432067871
1700936021266586400,20.60758642578125,1.2388136386871338,-5.459491729736328,8.055768966674805
1700936021283579400,20.624579345703125,1.2343995571136475,-5.464643478393555,8.05295181274414
1700936021300573400,20.641573486328124,1.2292636632919312,-5.469796657562256,8.050238609313965
1700936021317566200,20.658566162109373,1.2250367403030396,-5.474081516265869,8.04797077178955
1700936021334560500,20.675560546875,1.2217210531234741,-5.477679252624512,8.046028137207031
1700936021351553300,20.69255322265625,1.218374490737915,-5.48040246963501,8.044678688049316
1700936021368547300,20.70954736328125,1.2161107063293457,-5.481802940368652,8.0440673828125
1700936021385539800,20.726539794921877,1.2147605419158936,-5.48208475112915,8.04408073425293
1700936021402539300,20.743539306640624,1.2126575708389282,-5.48185920715332,8.044549942016602
1700936021419527200,20.760527099609376,1.209420919418335,-5.4818620681762695,8.045036315917969
1700936021436521200,20.777521240234375,1.206578254699707,-5.482058525085449,8.045329093933105
1700936021453513700,20.794513671875,1.2064127922058105,-5.4825520515441895,8.045018196105957
1700936021470505000,20.8115048828125,1.2090659141540527,-5.4816694259643555,8.045220375061035
1700936021487502300,20.82850244140625,1.2119206190109253,-5.477870464324951,8.047378540039062
1700936021504494300,20.845494384765626,1.2111847400665283,-5.473331451416016,8.050577163696289
1700936021521490200,20.862490234375,1.2091039419174194,-5.471628189086914,8.052048683166504
1700936021538482200,20.879482177734374,1.208524227142334,-5.473001480102539,8.051200866699219
1700936021555474700,20.896474609375,1.2093559503555298,-5.47618293762207,8.048911094665527
1700936021572466700,20.913466796875,1.209357500076294,-5.47957706451416,8.046602249145508
1700936021589463800,20.9304638671875,1.2099263668060303,-5.481113433837891,8.045469284057617
1700936021606457600,20.94745751953125,1.2109808921813965,-5.479472637176514,8.046428680419922
1700936021623448600,20.964448486328124,1.2103955745697021,-5.47560977935791,8.04914665222168
1700936021640442600,20.981442626953125,1.207579255104065,-5.472204208374023,8.051886558532715
1700936021657435100,20.99843505859375,1.2066636085510254,-5.471731662750244,8.052343368530273
1700936021674430000,21.015429931640625,1.2087124586105347,-5.4732842445373535,8.050980567932129
1700936021691422500,21.03242236328125,1.2117024660110474,-5.476097583770752,8.04861831665039
1700936021708418000,21.04941796875,1.2144821882247925,-5.4796366691589355,8.045790672302246
1700936021725407700,21.06640771484375,1.2175142765045166,-5.483312129974365,8.042826652526855
1700936021742403600,21.083403564453125,1.2184914350509644,-5.486903667449951,8.040229797363281
1700936021759388400,21.100388427734377,1.2170614004135132,-5.489853382110596,8.038432121276855
1700936021776390400,21.117390380859376,1.2151985168457031,-5.493480205535889,8.036234855651855
1700936021793383000,21.1343828125,1.2153397798538208,-5.498506546020508,8.03277587890625
1700936021810377700,21.151377685546876,1.2160547971725464,-5.503632545471191,8.029155731201172
1700936021827370200,21.168370361328126,1.2167863845825195,-5.507719039916992,8.026244163513184
1700936021844364300,21.1853642578125,1.218202829360962,-5.5106682777404785,8.024004936218262
1700936021861357000,21.202357177734374,1.2198160886764526,-5.512404918670654,8.022565841674805
1700936021878351600,21.2193515625,1.2214837074279785,-5.512338638305664,8.022356986999512
1700936021895344400,21.236344482421874,1.2236424684524536,-5.510505199432373,8.02328872680664
1700936021912338400,21.25333837890625,1.2275398969650269,-5.506930351257324,8.025147438049316
1700936021929331000,21.2703310546875,1.2330445051193237,-5.502289772033691,8.027485847473145
1700936021946325500,21.287325439453124,1.2382965087890625,-5.497920036315918,8.029670715332031
1700936021963320000,21.304320068359374,1.2412559986114502,-5.494588851928711,8.031495094299316
1700936021980310300,21.321310302734375,1.2421083450317383,-5.492250919342041,8.032959938049316
1700936021997302000,21.338302001953124,1.243825078010559,-5.489572525024414,8.034525871276855
1700936022014301700,21.3553017578125,1.2481780052185059,-5.485283851623535,8.036779403686523
1700936022031294700,21.372294677734374,1.2532247304916382,-5.479825019836426,8.039717674255371
1700936022048283100,21.389283203125,1.2572282552719116,-5.473578453063965,8.043347358703613
1700936022065278700,21.40627880859375,1.2600741386413574,-5.466859817504883,8.047469139099121
1700936022082273000,21.42327294921875,1.2614175081253052,-5.461367607116699,8.05098819732666
1700936022099266000,21.44026611328125,1.2620046138763428,-5.460996627807617,8.0511474609375
1700936022116260000,21.457260009765626,1.2639350891113281,-5.466393947601318,8.04718017578125
1700936022133252600,21.474252685546876,1.2654591798782349,-5.474708080291748,8.041287422180176
1700936022150247000,21.491246826171874,1.2647154331207275,-5.48279333114624,8.035894393920898
1700936022167240000,21.508239990234376,1.2651784420013428,-5.489042282104492,8.031554222106934
1700936022184233700,21.525233642578126,1.2688630819320679,-5.491129398345947,8.029545783996582
1700936022201226500,21.5422265625,1.27214777469635,-5.488997459411621,8.030482292175293
1700936022218221000,21.559220947265626,1.272283673286438,-5.486746311187744,8.031999588012695
1700936022235213800,21.5762138671875,1.27194344997406,-5.487442493438721,8.031578063964844
1700936022252207900,21.593207763671874,1.272823691368103,-5.491665363311768,8.028553009033203
1700936022269200400,21.610200439453124,1.273418664932251,-5.497129440307617,8.024718284606934
1700936022286184200,21.62718408203125,1.2718585729599,-5.503228664398193,8.020782470703125
1700936022303187700,21.644187744140623,1.2693294286727905,-5.509513854980469,8.01686954498291
1700936022320181500,21.661181396484373,1.267454743385315,-5.5155348777771,8.01302433013916
1700936022337174300,21.67817431640625,1.265886902809143,-5.520328044891357,8.009971618652344
1700936022354166800,21.695166748046876,1.2642812728881836,-5.5244059562683105,8.007413864135742
1700936022371161900,21.712161865234375,1.2626253366470337,-5.526949405670166,8.005918502807617
1700936022388155100,21.729155029296876,1.2616596221923828,-5.528067111968994,8.005298614501953
1700936022405148000,21.74614794921875,1.2618560791015625,-5.527782440185547,8.005464553833008
1700936022422142500,21.763142578125,1.2617592811584473,-5.526240348815918,8.006543159484863
1700936022439135200,21.78013525390625,1.2599416971206665,-5.5239386558532715,8.008419036865234
1700936022456129300,21.79712939453125,1.2569204568862915,-5.521129131317139,8.010831832885742
1700936022473122000,21.8141220703125,1.2538193464279175,-5.5178046226501465,8.013607025146484
1700936022490116900,21.831116943359376,1.2518529891967773,-5.513653755187988,8.016769409179688
1700936022507109400,21.848109375,1.2523421049118042,-5.5087385177612305,8.020072937011719
1700936022524103200,21.865103271484376,1.2561688423156738,-5.50280237197876,8.023547172546387
1700936022541096200,21.88209619140625,1.261811375617981,-5.495563983917236,8.027623176574707
1700936022558090800,21.8990908203125,1.2689745426177979,-5.488348960876465,8.0314302444458
1700936022575083000,21.9160830078125,1.2766939401626587,-5.481002330780029,8.035222053527832
1700936022592077300,21.933077392578124,1.2818775177001953,-5.472959518432617,8.039878845214844
1700936022609069600,21.950069580078125,1.2848868370056152,-5.464874744415283,8.044894218444824
1700936022626055700,21.9670556640625,1.2904404401779175,-5.456387042999268,8.049766540527344
1700936022643057000,21.984056884765625,1.2981488704681396,-5.447605609893799,8.054472923278809
1700936022660051200,22.00105126953125,1.3042384386062622,-5.440251350402832,8.05845832824707
1700936022677044000,22.0180439453125,1.3089109659194946,-5.435420989990234,8.060959815979004
1700936022694038300,22.035038330078127,1.314034342765808,-5.434175491333008,8.060967445373535
