time,seconds_elapsed,z,y,x
1700935723012119000,0.120119140625,8.878405570983887,4.153270721435547,-0.40045273303985596
1700935723029115100,0.137115234375,8.881689071655273,4.148748874664307,-0.37363767623901367
1700935723046104800,0.154104736328125,8.882543563842773,4.149127006530762,-0.3482591509819031
1700935723063095300,0.17109521484375,8.884839057922363,4.145798683166504,-0.32878413796424866
1700935723080088300,0.18808837890625,8.891135215759277,4.132485389709473,-0.32618752121925354
1700935723097080000,0.205080078125,8.897543907165527,4.117825984954834,-0.33666279911994934
1700935723114075000,0.222074951171875,8.899248123168945,4.1156511306762695,-0.31766432523727417
1700935723131052000,0.239052001953125,8.896397590637207,4.127314567565918,-0.23559749126434326
1700935723148055800,0.256055908203125,8.894383430480957,4.137399673461914,-0.08934180438518524
1700935723165047000,0.273047119140625,8.897004127502441,4.132040500640869,0.07533757388591766
1700935723182029800,0.29002978515625,8.89975643157959,4.122126579284668,0.19628475606441498
1700935723199027700,0.30702783203125,8.910394668579102,4.096533298492432,0.2436843365430832
1700935723216023300,0.324023193359375,8.929705619812012,4.054712295532227,0.23617446422576904
1700935723233024500,0.3410244140625,8.946611404418945,4.018277645111084,0.21839819848537445
1700935723250014000,0.358013916015625,8.949201583862305,4.010265827178955,0.25626111030578613
1700935723266993000,0.374992919921875,8.940825462341309,4.020810604095459,0.36169707775115967
1700935723283991600,0.391991455078125,8.934279441833496,4.0222039222717285,0.48645898699760437
1700935723300981800,0.408981689453125,8.93408203125,4.013393402099609,0.5576415061950684
1700935723317962500,0.42596240234375,8.93278694152832,4.0157060623168945,0.5617254972457886
1700935723334964700,0.44296484375,8.915534973144531,4.055893421173096,0.5468850135803223
1700935723351957500,0.45995751953125,8.874602317810059,4.142984390258789,0.5596575140953064
1700935723368946700,0.47694677734375,8.80978012084961,4.279574871063232,0.555980920791626
1700935723385939200,0.493939208984375,8.723810195922852,4.458984375,0.49869778752326965
1700935723402932200,0.51093212890625,8.602986335754395,4.695776462554932,0.41762980818748474
1700935723419913000,0.527912841796875,8.45489501953125,4.9602460861206055,0.38316819071769714
1700935723436912400,0.544912353515625,8.309037208557129,5.198786735534668,0.41064777970314026
1700935723453909500,0.561909423828125,8.174781799316406,5.404250621795654,0.4506770968437195
1700935723470895000,0.57889501953125,8.052652359008789,5.583677291870117,0.46199700236320496
1700935723487890400,0.595890380859375,7.940356731414795,5.743447780609131,0.4468386769294739
1700935723504879400,0.61287939453125,7.840917587280273,5.8742570877075195,0.49922505021095276
1700935723521876500,0.62987646484375,7.778683662414551,5.9466142654418945,0.6049556136131287
1700935723538862300,0.6468623046875,7.7795538902282715,5.9409379959106445,0.6479980945587158
1700935723555846100,0.66384619140625,7.835434436798096,5.868419647216797,0.635404109954834
1700935723572849700,0.680849609375,7.912056922912598,5.759337425231934,0.6822777390480042
1700935723589837300,0.69783740234375,7.974961280822754,5.653665542602539,0.8198621273040771
1700935723606833700,0.714833740234375,8.00822639465332,5.579316139221191,0.987747073173523
1700935723623822600,0.731822509765625,8.008605003356934,5.542567253112793,1.1740145683288574
1700935723640814800,0.74881494140625,7.9880242347717285,5.525301933288574,1.377903699874878
1700935723657807600,0.7658076171875,7.965627670288086,5.5069780349731445,1.567823052406311
1700935723674797800,0.7827978515625,7.955057621002197,5.479676246643066,1.7106482982635498
1700935723691792100,0.799792236328125,7.968188285827637,5.450016975402832,1.7439619302749634
1700935723708779800,0.81677978515625,7.992621898651123,5.418966293334961,1.7288460731506348
1700935723725773300,0.833773193359375,8.012503623962402,5.388850688934326,1.7309490442276
1700935723742758100,0.850758056640625,8.037895202636719,5.349968433380127,1.7338359355926514
1700935723759756500,0.867756591796875,8.076639175415039,5.284331798553467,1.754947543144226
1700935723776743700,0.88474365234375,8.136734962463379,5.174546718597412,1.8038082122802734
1700935723793732000,0.901732177734375,8.215332984924316,5.037625789642334,1.8348675966262817
1700935723810729200,0.918729248046875,8.289458274841309,4.920099258422852,1.820334553718567
1700935723827725800,0.935725830078125,8.346647262573242,4.84429407119751,1.761364459991455
1700935723844715000,0.952715087890625,8.363471984863281,4.835528373718262,1.7047330141067505
1700935723861708500,0.96970849609375,8.336227416992188,4.887112617492676,1.69102144241333
1700935723878697200,0.986697265625,8.281267166137695,4.982241153717041,1.6834486722946167
1700935723895688400,1.0036884765625,8.214956283569336,5.092973232269287,1.676970362663269
1700935723912681500,1.020681396484375,8.135622024536133,5.212762355804443,1.6955411434173584
1700935723929673000,1.0376728515625,8.050262451171875,5.330196857452393,1.7373507022857666
1700935723946668800,1.054668701171875,7.9606499671936035,5.435530185699463,1.821860909461975
1700935723963650000,1.071650146484375,7.889213562011719,5.488394260406494,1.9682352542877197
1700935723980647000,1.08864697265625,7.8606672286987305,5.464192867279053,2.142104387283325
1700935723997642000,1.10564208984375,7.872632026672363,5.389214038848877,2.2834525108337402
1700935724014632700,1.1226328125,7.900042533874512,5.309841632843018,2.3729796409606934
1700935724031618600,1.13961865234375,7.913037300109863,5.259068012237549,2.4417521953582764
1700935724048617200,1.1566171875,7.908084869384766,5.230655193328857,2.5176491737365723
1700935724065607700,1.173607666015625,7.867402076721191,5.221320629119873,2.6604344844818115
1700935724082601000,1.19060107421875,7.806813716888428,5.193552017211914,2.8838837146759033
1700935724099590700,1.207590576171875,7.761260509490967,5.118525505065918,3.130438804626465
1700935724116581400,1.224581298828125,7.730928897857666,5.0205230712890625,3.356070041656494
1700935724133576400,1.241576416015625,7.673923492431641,4.943115234375,3.593414068222046
1700935724150563800,1.258563720703125,7.566383361816406,4.8916096687316895,3.880478858947754
1700935724167559200,1.27555908203125,7.429811477661133,4.830683708190918,4.2069597244262695
1700935724184550000,1.2925498046875,7.280998706817627,4.740611553192139,4.5551910400390625
1700935724201539000,1.3095390625,7.124724864959717,4.629847049713135,4.902949810028076
1700935724218535200,1.32653515625,6.94900369644165,4.491434097290039,5.270150184631348
1700935724235525400,1.343525390625,6.740950107574463,4.304520130157471,5.680388927459717
1700935724252517400,1.360517333984375,6.5391058921813965,4.052151203155518,6.087386608123779
1700935724269507800,1.3775078125,6.404143810272217,3.7326676845550537,6.425748348236084
1700935724286500000,1.3945,6.341559410095215,3.3632760047912598,6.686486721038818
1700935724303494100,1.411494140625,6.254887104034424,3.0056843757629395,6.933856010437012
1700935724320474000,1.42847412109375,6.059762001037598,2.683323860168457,7.2329230308532715
1700935724337474000,1.44547412109375,5.77817964553833,2.3486313819885254,7.571834564208984
1700935724354453500,1.46245361328125,5.488610744476318,1.957364559173584,7.891767501831055
1700935724371458800,1.479458740234375,5.2696733474731445,1.5196566581726074,8.133713722229004
1700935724388449500,1.496449462890625,5.105853080749512,1.0812861919403076,8.306455612182617
1700935724405443000,1.513443115234375,4.92472505569458,0.6813503503799438,8.456888198852539
1700935724422434800,1.530434814453125,4.715070724487305,0.3201301097869873,8.596612930297852
1700935724439424000,1.547424072265625,4.51439905166626,-0.0292699933052063,8.709504127502441
1700935724456418600,1.56441845703125,4.3384904861450195,-0.3921961486339569,8.789754867553711
1700935724473394000,1.581393798828125,4.194309234619141,-0.7861640453338623,8.833224296569824
1700935724490395600,1.598395751953125,4.050893783569336,-1.1912176609039307,8.854793548583984
1700935724507395600,1.6153955078125,3.877711296081543,-1.5858558416366577,8.870430946350098
1700935724524386000,1.632385986328125,3.6711909770965576,-1.9652150869369507,8.882364273071289
1700935724541374000,1.6493740234375,3.433436155319214,-2.326958417892456,8.890045166015625
1700935724558371000,1.66637109375,3.152045726776123,-2.6607978343963623,8.90061092376709
1700935724575357700,1.683357666015625,2.851463556289673,-2.979372024536133,8.901044845581055
1700935724592353000,1.70035302734375,2.564387798309326,-3.295349359512329,8.87697696685791
1700935724609341000,1.7173408203125,2.3151566982269287,-3.6031320095062256,8.825736045837402
1700935724626334700,1.734334716796875,2.0933754444122314,-3.88910174369812,8.75949764251709
1700935724643328500,1.75132861328125,1.8727951049804688,-4.15353536605835,8.687744140625
1700935724660302000,1.768302001953125,1.6588876247406006,-4.403777599334717,8.607610702514648
1700935724677310200,1.785310302734375,1.4677730798721313,-4.64202356338501,8.51665210723877
1700935724694303000,1.802302978515625,1.3167182207107544,-4.869816780090332,8.413515090942383
1700935724711291600,1.819291748046875,1.2216737270355225,-5.093898773193359,8.29432487487793
1700935724728286200,1.8362861328125,1.181325912475586,-5.320868015289307,8.15652847290039
1700935724745266700,1.8532666015625,1.1908290386199951,-5.537877082824707,8.009367942810059
1700935724762267600,1.870267578125,1.2017849683761597,-5.716617584228516,7.881123065948486
1700935724779261000,1.887260986328125,1.2166457176208496,-5.862462997436523,7.770933628082275
1700935724796252400,1.90425244140625,1.2373617887496948,-5.9637250900268555,7.690190315246582
1700935724813246000,1.921245849609375,1.2315914630889893,-6.039444923400879,7.631802082061768
1700935724830233000,1.938233154296875,1.222591757774353,-6.0786452293396,7.602069854736328
1700935724847228000,1.955227783203125,1.2439217567443848,-6.073596477508545,7.602644920349121
1700935724864220700,1.972220703125,1.2789559364318848,-6.02463960647583,7.635712623596191
1700935724881208300,1.989208251953125,1.320862054824829,-5.944098472595215,7.6914963722229
1700935724898204000,2.006203857421875,1.3563201427459717,-5.840697288513184,7.764196872711182
1700935724915193900,2.02319384765625,1.3673509359359741,-5.717397212982178,7.8535237312316895
1700935724932186000,2.04018603515625,1.3527499437332153,-5.573171138763428,7.959017276763916
1700935724949178000,2.05717822265625,1.3316738605499268,-5.415895938873291,8.070368766784668
1700935724966169300,2.07416943359375,1.3222615718841553,-5.253908634185791,8.178274154663086
1700935724983174100,2.091174072265625,1.327096939086914,-5.0911946296691895,8.279775619506836
1700935725000151000,2.108151123046875,1.348626732826233,-4.928345680236816,8.374290466308594
1700935725017144600,2.12514453125,1.375434160232544,-4.76128625869751,8.466076850891113
1700935725034138000,2.14213818359375,1.3934593200683594,-4.584547996520996,8.560157775878906
1700935725051126300,2.159126220703125,1.3963418006896973,-4.401046276092529,8.655467987060547
1700935725068120800,2.176120849609375,1.391882061958313,-4.2301459312438965,8.740975379943848
1700935725085111800,2.19311181640625,1.392306923866272,-4.085201740264893,8.80958080291748
1700935725102104800,2.210104736328125,1.40309476852417,-3.9637451171875,8.863191604614258
1700935725119085800,2.2270859375,1.4202574491500854,-3.8595781326293945,8.906325340270996
1700935725136087000,2.244087158203125,1.4307093620300293,-3.7694449424743652,8.943181037902832
1700935725153080300,2.261080322265625,1.4288625717163086,-3.6902925968170166,8.976426124572754
1700935725170060500,2.278060546875,1.4142234325408936,-3.6233179569244385,9.005980491638184
1700935725187061000,2.29506103515625,1.3943113088607788,-3.5821235179901123,9.025541305541992
1700935725204057300,2.312057373046875,1.3784664869308472,-3.569673538208008,9.032904624938965
1700935725221043500,2.32904345703125,1.3678377866744995,-3.5795793533325195,9.030601501464844
1700935725238038300,2.346038330078125,1.3510501384735107,-3.605912208557129,9.022647857666016
1700935725255029500,2.363029541015625,1.3230738639831543,-3.6389739513397217,9.01351547241211
1700935725272024600,2.380024658203125,1.2952874898910522,-3.669796943664551,9.005050659179688
1700935725289011700,2.39701171875,1.2754870653152466,-3.70003080368042,8.995500564575195
1700935725305994200,2.413994140625,1.2592213153839111,-3.7366867065429688,8.982630729675293
1700935725322995200,2.4309951171875,1.2456903457641602,-3.7837181091308594,8.964811325073242
1700935725339987700,2.44798779296875,1.2350436449050903,-3.8385207653045654,8.942959785461426
1700935725356981800,2.464981689453125,1.230209469795227,-3.8963403701782227,8.91858959197998
1700935725373977000,2.48197705078125,1.226142168045044,-3.954310655593872,8.893600463867188
1700935725390961400,2.49896142578125,1.218848705291748,-4.016978740692139,8.866476058959961
1700935725407945500,2.515945556640625,1.208328366279602,-4.084508419036865,8.837015151977539
1700935725424945000,2.53294482421875,1.2034283876419067,-4.158949375152588,8.802898406982422
1700935725441941500,2.54994140625,1.2105646133422852,-4.238935470581055,8.763679504394531
1700935725458922800,2.5669228515625,1.223529577255249,-4.320947170257568,8.721725463867188
1700935725475921700,2.583921630859375,1.2364885807037354,-4.400218963623047,8.68016529083252
1700935725492915200,2.600915283203125,1.243911862373352,-4.473104953765869,8.641767501831055
1700935725509909200,2.6179091796875,1.2476623058319092,-4.537431240081787,8.607623100280762
1700935725526897400,2.6348974609375,1.25249445438385,-4.590173244476318,8.578908920288086
1700935725543890400,2.651890380859375,1.2581291198730469,-4.6363725662231445,8.553203582763672
1700935725560878300,2.66887841796875,1.268880009651184,-4.684491157531738,8.525351524353027
1700935725577873000,2.685872802734375,1.2838760614395142,-4.731847286224365,8.496905326843262
1700935725594854100,2.702854248046875,1.2995119094848633,-4.7745361328125,8.470606803894043
1700935725611858700,2.719858642578125,1.3083397150039673,-4.809661388397217,8.44935131072998
1700935725628844300,2.73684423828125,1.3124830722808838,-4.832411289215088,8.43571662902832
1700935725645839400,2.75383935546875,1.3153736591339111,-4.844382286071777,8.42839527130127
1700935725662820400,2.7708203125,1.3235605955123901,-4.847833633422852,8.425130844116211
1700935725679823000,2.787822998046875,1.3340744972229004,-4.8464860916137695,8.424246788024902
1700935725696814600,2.804814697265625,1.3444374799728394,-4.842071533203125,8.425138473510742
1700935725713804000,2.821803955078125,1.3513667583465576,-4.833765983581543,8.428797721862793
1700935725730799900,2.8387998046875,1.3524905443191528,-4.819607734680176,8.43671989440918
1700935725747790300,2.855790283203125,1.347252607345581,-4.7985029220581055,8.449579238891602
1700935725764771300,2.872771240234375,1.3405274152755737,-4.769148826599121,8.467249870300293
1700935725781763000,2.88976318359375,1.3344484567642212,-4.734894752502441,8.487411499023438
1700935725798765300,2.906765380859375,1.3307020664215088,-4.699747562408447,8.5075101852417
1700935725815757600,2.923757568359375,1.33170485496521,-4.6647796630859375,8.52657699584961
1700935725832746200,2.940746337890625,1.3347383737564087,-4.629830837249756,8.545129776000977
1700935725849739000,2.957739013671875,1.3373477458953857,-4.592620849609375,8.564781188964844
1700935725866733000,2.974733154296875,1.3403911590576172,-4.554650783538818,8.584556579589844
1700935725883723000,2.991722900390625,1.346611499786377,-4.521220684051514,8.601239204406738
1700935725900713000,3.008712890625,1.3546645641326904,-4.49118709564209,8.615696907043457
1700935725917715500,3.025715576171875,1.3590502738952637,-4.461267471313477,8.630539894104004
1700935725934697000,3.042697021484375,1.3581781387329102,-4.4340500831604,8.64469051361084
1700935725951692500,3.059692626953125,1.3559056520462036,-4.4107184410095215,8.656972885131836
1700935725968680400,3.076680419921875,1.3568856716156006,-4.389752388000488,8.667470932006836
1700935725985672000,3.093671875,1.3639788627624512,-4.369763374328613,8.676453590393066
1700935726002670800,3.1106708984375,1.3755736351013184,-4.35065221786499,8.684224128723145
1700935726019651800,3.12765185546875,1.3874285221099854,-4.332226753234863,8.691546440124512
1700935726036655900,3.14465576171875,1.3975708484649658,-4.316068172454834,8.697957038879395
1700935726053640700,3.161640625,1.403061032295227,-4.3040595054626465,8.703022956848145
1700935726070634200,3.17863427734375,1.4046626091003418,-4.297073841094971,8.706215858459473
1700935726087623400,3.19562353515625,1.4098514318466187,-4.294414520263672,8.706690788269043
1700935726104617000,3.212616943359375,1.4213640689849854,-4.295812606811523,8.704127311706543
1700935726121611800,3.22961181640625,1.433760404586792,-4.301823139190674,8.69912338256836
1700935726138601200,3.246601318359375,1.4407399892807007,-4.314021587371826,8.691926956176758
1700935726155587800,3.263587890625,1.4395129680633545,-4.332363605499268,8.683004379272461
1700935726172572000,3.280572021484375,1.4347410202026367,-4.3550496101379395,8.672438621520996
1700935726189578200,3.297578125,1.4309955835342407,-4.378738880157471,8.661120414733887
1700935726206558000,3.314557861328125,1.4300014972686768,-4.4031901359558105,8.648879051208496
1700935726223559400,3.331559326171875,1.4317151308059692,-4.430741786956787,8.634513854980469
1700935726240551400,3.348551513671875,1.4309666156768799,-4.462118625640869,8.6184663772583
1700935726257543000,3.36554296875,1.4262371063232422,-4.494732856750488,8.602288246154785
1700935726274538000,3.3825380859375,1.4207431077957153,-4.525900840759277,8.586840629577637
1700935726291523300,3.3995234375,1.4157791137695312,-4.554126262664795,8.572726249694824
1700935726308521700,3.416521728515625,1.4093950986862183,-4.580484867095947,8.559723854064941
1700935726325510100,3.43351025390625,1.3998916149139404,-4.604234218597412,8.548534393310547
1700935726342502100,3.450502197265625,1.3897536993026733,-4.625489234924316,8.538707733154297
1700935726359493600,3.46749365234375,1.3798245191574097,-4.644200325012207,8.530158042907715
1700935726376483000,3.484483154296875,1.3700289726257324,-4.658988952636719,8.523670196533203
1700935726393480000,3.50147998046875,1.364522933959961,-4.6695556640625,8.518770217895508
1700935726410469000,3.51846923828125,1.363596796989441,-4.6813435554504395,8.512445449829102
1700935726427460600,3.535460693359375,1.3618569374084473,-4.696345806121826,8.504457473754883
1700935726444441900,3.55244189453125,1.3568809032440186,-4.714721202850342,8.495081901550293
1700935726461440300,3.569440185546875,1.3488304615020752,-4.7355217933654785,8.484786033630371
1700935726478440000,3.58643994140625,1.3395320177078247,-4.755101680755615,8.475305557250977
1700935726495427800,3.603427734375,1.3326653242111206,-4.769319534301758,8.468395233154297
1700935726512419600,3.620419677734375,1.329267144203186,-4.775715351104736,8.465325355529785
1700935726529410800,3.637410888671875,1.3277959823608398,-4.774250507354736,8.466381072998047
1700935726546403000,3.654403076171875,1.3300386667251587,-4.767085075378418,8.470065116882324
1700935726563384600,3.671384521484375,1.337754726409912,-4.756745338439941,8.474663734436035
1700935726580386600,3.688386474609375,1.3471944332122803,-4.743816375732422,8.480412483215332
1700935726597378000,3.7053779296875,1.3553179502487183,-4.727477550506592,8.488238334655762
1700935726614370000,3.7223701171875,1.364456057548523,-4.709498882293701,8.496763229370117
1700935726631369000,3.739368896484375,1.3766156435012817,-4.6924567222595215,8.504227638244629
1700935726648351200,3.756351318359375,1.3896160125732422,-4.6768927574157715,8.510684967041016
1700935726665347600,3.77334765625,1.403183937072754,-4.664100646972656,8.51547622680664
1700935726682337300,3.790337158203125,1.4149669408798218,-4.655460834503174,8.518255233764648
1700935726699328800,3.807328857421875,1.423454761505127,-4.649677753448486,8.520000457763672
1700935726716320500,3.824320556640625,1.4307827949523926,-4.643901348114014,8.52192211151123
1700935726733312300,3.841312255859375,1.4384160041809082,-4.637506484985352,8.52411937713623
1700935726750304300,3.85830419921875,1.4437940120697021,-4.631170272827148,8.526654243469238
1700935726767291600,3.875291748046875,1.448006272315979,-4.624731540679932,8.529435157775879
1700935726784287700,3.892287841796875,1.4583529233932495,-4.618349075317383,8.531128883361816
1700935726801279000,3.909279052734375,1.4668433666229248,-4.618254661560059,8.529725074768066
1700935726818268000,3.926267822265625,1.4711697101593018,-4.621875286102295,8.527018547058105
1700935726835263000,3.943262939453125,1.4708194732666016,-4.627653121948242,8.523944854736328
1700935726852254500,3.96025439453125,1.4671860933303833,-4.632994174957275,8.521669387817383
1700935726869246200,3.97724609375,1.4630085229873657,-4.6367411613464355,8.52034854888916
1700935726886238500,3.994238525390625,1.4597960710525513,-4.636722087860107,8.52091121673584
1700935726903229700,4.011229736328125,1.4576185941696167,-4.636843681335449,8.52121639251709
1700935726920221400,4.028221435546875,1.4575848579406738,-4.638189315795898,8.520491600036621
1700935726937213200,4.045213134765625,1.456235408782959,-4.639617919921875,8.519944190979004
1700935726954194200,4.062194091796875,1.451271414756775,-4.64202880859375,8.519477844238281
1700935726971196700,4.07919677734375,1.4455004930496216,-4.64737606048584,8.51754379272461
1700935726988189000,4.09618896484375,1.4386543035507202,-4.655308723449707,8.51436996459961
1700935727005177600,4.113177490234375,1.4301807880401611,-4.664650917053223,8.5106840133667
1700935727022172700,4.130172607421875,1.4204963445663452,-4.676918029785156,8.505571365356445
1700935727039166500,4.14716650390625,1.4102497100830078,-4.691502094268799,8.499241828918457
1700935727056155600,4.16415576171875,1.4000383615493774,-4.704716205596924,8.493624687194824
1700935727073136600,4.18113671875,1.3929681777954102,-4.713800430297852,8.48974895477295
1700935727090140000,4.198139892578125,1.389861822128296,-4.721933841705322,8.485737800598145
1700935727107131000,4.215130859375,1.390594244003296,-4.729481220245361,8.481411933898926
1700935727124123100,4.232123046875,1.3924802541732788,-4.7357611656188965,8.47760009765625
1700935727141114400,4.2491142578125,1.3937557935714722,-4.743346691131592,8.47314739227295
1700935727158106600,4.266106689453125,1.3932956457138062,-4.751997470855713,8.468375205993652
1700935727175097900,4.283097900390625,1.3916435241699219,-4.759103775024414,8.464654922485352
1700935727192089600,4.300089599609375,1.390665888786316,-4.764743804931641,8.461642265319824
1700935727209081300,4.317081298828125,1.391634225845337,-4.769791603088379,8.458638191223145
1700935727226073900,4.334073974609375,1.393312931060791,-4.775092601776123,8.455370903015137
1700935727243054300,4.351054443359375,1.3955962657928467,-4.780532360076904,8.451920509338379
1700935727260056600,4.368056640625,1.3996188640594482,-4.784355163574219,8.449090957641602
1700935727277048600,4.385048583984375,1.4034864902496338,-4.786179065704346,8.447416305541992
1700935727294040800,4.402040771484375,1.4109779596328735,-4.786035537719727,8.446249961853027
1700935727311032000,4.419031982421875,1.4149739742279053,-4.7859697341918945,8.445619583129883
1700935727328024000,4.436024169921875,1.4146111011505127,-4.785356044769287,8.446025848388672
1700935727345015600,4.453015625,1.4152618646621704,-4.7854533195495605,8.445863723754883
1700935727362007800,4.4700078125,1.4192224740982056,-4.785513401031494,8.445162773132324
1700935727378999300,4.486999267578125,1.4230369329452515,-4.785099029541016,8.444756507873535
1700935727395991000,4.503990966796875,1.4257962703704834,-4.785582065582275,8.44401741027832
1700935727412982500,4.520982421875,1.4264178276062012,-4.78736686706543,8.442900657653809
1700935727429975000,4.53797509765625,1.4236725568771362,-4.789121150970459,8.442368507385254
1700935727446966300,4.55496630859375,1.4205728769302368,-4.790550708770752,8.442079544067383
1700935727463957800,4.571957763671875,1.4198077917099,-4.790829181671143,8.44205093383789
1700935727480949800,4.58894970703125,1.4192765951156616,-4.7910847663879395,8.441994667053223
1700935727497941500,4.60594140625,1.417108178138733,-4.79225492477417,8.441694259643555
1700935727514941000,4.62294091796875,1.4151660203933716,-4.7954421043396,8.440211296081543
1700935727531922400,4.63992236328125,1.4129209518432617,-4.800238609313965,8.437859535217285
1700935727548919300,4.656919189453125,1.4118742942810059,-4.805776596069336,8.434883117675781
1700935727565909000,4.673908935546875,1.4130135774612427,-4.811905384063721,8.431198120117188
1700935727582900500,4.690900390625,1.4162763357162476,-4.817806720733643,8.427279472351074
1700935727599892000,4.70789208984375,1.415510654449463,-4.823634624481201,8.424072265625
1700935727616884000,4.724884033203125,1.4081928730010986,-4.829437732696533,8.421975135803223
1700935727633876000,4.7418759765625,1.3990057706832886,-4.8349738121032715,8.420328140258789
1700935727650867500,4.758867431640625,1.394025444984436,-4.837889671325684,8.419480323791504
1700935727667848700,4.7758486328125,1.392505407333374,-4.837751865386963,8.419811248779297
1700935727684851000,4.792850830078125,1.39165461063385,-4.836606979370117,8.420609474182129
1700935727701843000,4.809843017578125,1.3892830610275269,-4.836051940917969,8.421318054199219
1700935727718834400,4.82683447265625,1.3850709199905396,-4.838713645935059,8.42048454284668
1700935727735826200,4.843826171875,1.3793927431106567,-4.8431010246276855,8.418893814086914
1700935727752817700,4.860817626953125,1.374321460723877,-4.846992492675781,8.41748332977295
1700935727769800700,4.87780078125,1.3706130981445312,-4.84951114654541,8.416637420654297
1700935727786801700,4.8948017578125,1.368882656097412,-4.85216760635376,8.415387153625488
1700935727803793400,4.91179345703125,1.3678144216537476,-4.8535566329956055,8.414759635925293
1700935727820785000,4.928784912109375,1.3662432432174683,-4.854388236999512,8.414534568786621
1700935727837777200,4.945777099609375,1.3644568920135498,-4.856540203094482,8.413583755493164
1700935727854768400,4.962768310546875,1.3626270294189453,-4.859830856323242,8.411978721618652
1700935727871760600,4.9797607421875,1.3598449230194092,-4.862422943115234,8.410932540893555
1700935727888765700,4.996765625,1.355697512626648,-4.864783763885498,8.410237312316895
1700935727905739800,5.01373974609375,1.3530516624450684,-4.867088317871094,8.409329414367676
1700935727922735900,5.03073583984375,1.3506033420562744,-4.8697662353515625,8.408173561096191
1700935727939728600,5.047728759765625,1.3463881015777588,-4.873042106628418,8.406951904296875
1700935727956725000,5.06472509765625,1.3411473035812378,-4.8767805099487305,8.405619621276855
1700935727973726500,5.0817265625,1.3352065086364746,-4.879690170288086,8.404878616333008
1700935727990701600,5.09870166015625,1.3311835527420044,-4.879986763000488,8.405344009399414
1700935728007694600,5.115694580078125,1.3294758796691895,-4.877846717834473,8.406854629516602
1700935728024686300,5.132686279296875,1.3257267475128174,-4.873141765594482,8.410175323486328
1700935728041678600,5.1496787109375,1.320318579673767,-4.864597797393799,8.415969848632812
1700935728058670000,5.166670166015625,1.3175058364868164,-4.849330425262451,8.425216674804688
1700935728075661800,5.183661865234375,1.3184247016906738,-4.826615333557129,8.43810749053955
1700935728092653000,5.200653076171875,1.321220874786377,-4.802587032318115,8.451370239257812
1700935728109643000,5.21764306640625,1.3227834701538086,-4.779720306396484,8.464077949523926
1700935728126621700,5.23462158203125,1.3209161758422852,-4.758096218109131,8.476544380187988
1700935728143628500,5.251628662109375,1.3158633708953857,-4.737597465515137,8.488802909851074
1700935728160620500,5.26862060546875,1.3079584836959839,-4.720107078552246,8.499761581420898
1700935728177610000,5.28560986328125,1.2995551824569702,-4.705584526062012,8.509099006652832
1700935728194606600,5.302606689453125,1.2953041791915894,-4.693639755249023,8.516340255737305
1700935728211585500,5.31958544921875,1.2942830324172974,-4.684587001800537,8.521478652954102
1700935728228587300,5.336587158203125,1.2926218509674072,-4.675079345703125,8.526949882507324
1700935728245565700,5.353565673828125,1.2896990776062012,-4.661046981811523,8.535070419311523
1700935728262578000,5.370577880859375,1.286135196685791,-4.640926361083984,8.546565055847168
1700935728279563000,5.38756298828125,1.2841708660125732,-4.616797924041748,8.559917449951172
1700935728296554500,5.404554443359375,1.285286784172058,-4.5917487144470215,8.573213577270508
1700935728313547000,5.421547119140625,1.2914272546768188,-4.568716526031494,8.584589004516602
1700935728330538200,5.438538330078125,1.3009271621704102,-4.546971321105957,8.594694137573242
1700935728347529700,5.45552978515625,1.3121556043624878,-4.5262370109558105,8.603926658630371
1700935728364521200,5.472521240234375,1.32138192653656,-4.509390830993652,8.611355781555176
1700935728381508900,5.4895087890625,1.3285189867019653,-4.499446392059326,8.615459442138672
1700935728398505500,5.50650537109375,1.3356674909591675,-4.4975361824035645,8.615350723266602
1700935728415493000,5.5234931640625,1.3428364992141724,-4.501837730407715,8.61198902130127
1700935728432492800,5.540492919921875,1.3479007482528687,-4.509758472442627,8.607053756713867
1700935728449481000,5.55748095703125,1.3509670495986938,-4.521210670471191,8.60056209564209
1700935728466472400,5.574472412109375,1.3508317470550537,-4.535063743591309,8.59328556060791
1700935728483464200,5.591464111328125,1.3489021062850952,-4.552391529083252,8.584423065185547
1700935728500456000,5.6084560546875,1.3457612991333008,-4.572183609008789,8.574390411376953
1700935728517448000,5.625447998046875,1.3401333093643188,-4.590771198272705,8.565335273742676
1700935728534439700,5.642439697265625,1.332345724105835,-4.606469631195068,8.558120727539062
1700935728551420700,5.659420654296875,1.3249127864837646,-4.618195533752441,8.55295181274414
1700935728568423000,5.6764228515625,1.318113088607788,-4.624640941619873,8.550520896911621
1700935728585415000,5.693414794921875,1.313555121421814,-4.626245021820068,8.550353050231934
1700935728602406000,5.710406005859375,1.3108139038085938,-4.6251444816589355,8.551370620727539
1700935728619399000,5.72739892578125,1.305359125137329,-4.620103359222412,8.554929733276367
1700935728636389600,5.7443896484375,1.2983660697937012,-4.6107401847839355,8.561041831970215
1700935728653382400,5.76138232421875,1.294236183166504,-4.599587440490723,8.567665100097656
1700935728670374000,5.778373779296875,1.2939400672912598,-4.5883002281188965,8.57375717163086
1700935728687365600,5.79536572265625,1.2933132648468018,-4.578164100646973,8.579269409179688
1700935728704354600,5.8123544921875,1.2898902893066406,-4.570126056671143,8.58406925201416
1700935728721352000,5.82935205078125,1.2849774360656738,-4.566014766693115,8.586993217468262
1700935728738340900,5.8463408203125,1.2815173864364624,-4.567849159240723,8.586533546447754
1700935728755332600,5.86333251953125,1.2806224822998047,-4.575015068054199,8.582853317260742
1700935728772324400,5.880324462890625,1.2808483839035034,-4.58612060546875,8.576889991760254
1700935728789316000,5.897316162109375,1.2807364463806152,-4.599540710449219,8.569718360900879
1700935728806307800,5.914307861328125,1.2782750129699707,-4.614922523498535,8.561811447143555
1700935728823299300,5.93129931640625,1.2755417823791504,-4.629913330078125,8.554122924804688
1700935728840291300,5.948291259765625,1.2775638103485107,-4.641615867614746,8.547476768493652
1700935728857283300,5.965283447265625,1.28219735622406,-4.649334907531738,8.542586326599121
1700935728874274800,5.98227490234375,1.286247730255127,-4.655865669250488,8.538418769836426
1700935728891266800,5.999266845703125,1.2920178174972534,-4.664897918701172,8.532615661621094
1700935728908258300,6.01625830078125,1.2997440099716187,-4.676030158996582,8.525346755981445
1700935728925250800,6.033250732421875,1.3060110807418823,-4.686539173126221,8.518614768981934
1700935728942228200,6.050228271484375,1.3117246627807617,-4.696717262268066,8.512128829956055
1700935728959234000,6.067234130859375,1.3183399438858032,-4.708285331726074,8.504712104797363
1700935728976232000,6.08423193359375,1.3239210844039917,-4.721400737762451,8.496570587158203
1700935728993217800,6.1012177734375,1.327315092086792,-4.73554801940918,8.488164901733398
1700935729010209000,6.118208984375,1.3319212198257446,-4.749753475189209,8.479501724243164
1700935729027200800,6.13520068359375,1.3384584188461304,-4.76327657699585,8.470882415771484
1700935729044192500,6.152192626953125,1.3452953100204468,-4.776636123657227,8.462271690368652
1700935729061182200,6.16918212890625,1.3484896421432495,-4.7874298095703125,8.455662727355957
1700935729078176300,6.18617626953125,1.3416188955307007,-4.792942523956299,8.453631401062012
1700935729095168000,6.20316796875,1.3272998332977295,-4.797043800354004,8.453564643859863
1700935729112159700,6.22015966796875,1.3166807889938354,-4.802004337310791,8.452409744262695
1700935729129151700,6.23715185546875,1.3122047185897827,-4.805609703063965,8.451055526733398
1700935729146143500,6.2541435546875,1.3170897960662842,-4.810622692108154,8.447442054748535
1700935729163121400,6.271121337890625,1.3228036165237427,-4.816192626953125,8.443374633789062
1700935729180126200,6.288126220703125,1.324386477470398,-4.822082042694092,8.439764976501465
1700935729197113000,6.305113037109375,1.3225557804107666,-4.826822757720947,8.437341690063477
1700935729214110700,6.32211083984375,1.322155237197876,-4.829980373382568,8.43559741973877
1700935729231102200,6.339102294921875,1.3241310119628906,-4.831562042236328,8.434381484985352
1700935729248076500,6.35607666015625,1.3290855884552002,-4.8297343254089355,8.434649467468262
1700935729265086200,6.373086181640625,1.3345082998275757,-4.82362699508667,8.437288284301758
1700935729282077700,6.39007763671875,1.3388630151748657,-4.8147149085998535,8.441686630249023
1700935729299069400,6.4070693359375,1.3425192832946777,-4.804913520812988,8.44668960571289
1700935729316057000,6.42405712890625,1.3442354202270508,-4.794036865234375,8.452594757080078
1700935729333053200,6.44105322265625,1.3460294008255005,-4.783761501312256,8.458128929138184
1700935729350037800,6.458037841796875,1.3479973077774048,-4.774308681488037,8.463154792785645
1700935729367035400,6.475035400390625,1.3484796285629272,-4.763595104217529,8.469114303588867
1700935729384031000,6.492031005859375,1.3463842868804932,-4.753325939178467,8.475214004516602
1700935729401020200,6.509020263671875,1.3441188335418701,-4.744867324829102,8.480311393737793
1700935729418017000,6.52601708984375,1.342308521270752,-4.7370147705078125,8.484987258911133
1700935729435004000,6.54300390625,1.3409504890441895,-4.7278361320495605,8.490320205688477
1700935729451995100,6.5599951171875,1.339804768562317,-4.718274116516113,8.495819091796875
1700935729468987400,6.5769873046875,1.3388928174972534,-4.707995891571045,8.50166130065918
1700935729485979000,6.593978759765625,1.3386151790618896,-4.697930335998535,8.507270812988281
1700935729502970600,6.610970703125,1.3387625217437744,-4.689574718475342,8.511858940124512
1700935729519962400,6.62796240234375,1.3395111560821533,-4.681163311004639,8.516369819641113
1700935729536954600,6.64495458984375,1.340656042098999,-4.672205448150635,8.521106719970703
1700935729553935600,6.661935546875,1.3430145978927612,-4.66397762298584,8.525240898132324
1700935729570937900,6.678937744140625,1.345932960510254,-4.658811569213867,8.527606010437012
1700935729587929300,6.695929443359375,1.3491802215576172,-4.656642913818359,8.528276443481445
1700935729604921900,6.712921875,1.3505308628082275,-4.657261371612549,8.527724266052246
1700935729621913600,6.72991357421875,1.3509048223495483,-4.659176349639893,8.526620864868164
1700935729638905000,6.746905029296875,1.3529983758926392,-4.66184663772583,8.524828910827637
1700935729655896600,6.763896484375,1.3575156927108765,-4.663093090057373,8.523428916931152
1700935729672888800,6.780888916015625,1.3642674684524536,-4.661945819854736,8.522977828979492
1700935729689880300,6.79788037109375,1.3728070259094238,-4.6589789390563965,8.523228645324707
1700935729706872000,6.8148720703125,1.3815664052963257,-4.654568195343018,8.524223327636719
1700935729723863800,6.83186376953125,1.3862900733947754,-4.650601387023926,8.52562141418457
1700935729740856300,6.848856201171875,1.3869967460632324,-4.6479620933532715,8.526946067810059
1700935729757847800,6.865847900390625,1.3874627351760864,-4.645185470581055,8.528382301330566
1700935729774839300,6.88283935546875,1.3897794485092163,-4.639555931091309,8.5310697555542
1700935729791830800,6.899830810546875,1.3946995735168457,-4.630998611450195,8.534915924072266
1700935729808823000,6.916822998046875,1.3984084129333496,-4.622498035430908,8.53891658782959
1700935729825815000,6.93381494140625,1.3990458250045776,-4.614476680755615,8.543149948120117
1700935729842806800,6.950806884765625,1.3988282680511475,-4.608818054199219,8.546238899230957
1700935729859798300,6.96779833984375,1.3969563245773315,-4.604909420013428,8.548649787902832
1700935729876790300,6.984790283203125,1.3948358297348022,-4.60215425491333,8.550480842590332
1700935729893782000,7.001781982421875,1.3928272724151611,-4.599174499511719,8.552411079406738
1700935729910777000,7.018777099609375,1.3898227214813232,-4.59651517868042,8.554329872131348
1700935729927762000,7.035761962890625,1.3851274251937866,-4.596794128417969,8.554941177368164
1700935729944757500,7.052757568359375,1.3785459995269775,-4.59977912902832,8.554400444030762
1700935729961749000,7.0697490234375,1.3725508451461792,-4.604630470275879,8.552754402160645
1700935729978740700,7.08674072265625,1.368394374847412,-4.609925270080566,8.550567626953125
1700935729995732700,7.103732666015625,1.3643723726272583,-4.612284183502197,8.54993724822998
1700935730012724700,7.120724853515625,1.358750581741333,-4.606457710266113,8.553973197937012
1700935730029716200,7.13771630859375,1.3506954908370972,-4.593257427215576,8.56234359741211
1700935730046707700,7.154707763671875,1.3426295518875122,-4.579301357269287,8.57108211517334
1700935730063699200,7.17169921875,1.3366153240203857,-4.568362712860107,8.577858924865723
1700935730080693800,7.18869384765625,1.331526517868042,-4.5642170906066895,8.580856323242188
1700935730097681700,7.205681640625,1.3249890804290771,-4.566549777984619,8.580626487731934
1700935730114675200,7.22267529296875,1.3177303075790405,-4.565380096435547,8.582365989685059
1700935730131664100,7.2396640625,1.3084675073623657,-4.553424835205078,8.590130805969238
1700935730148661800,7.256661865234375,1.299794316291809,-4.533158302307129,8.602157592773438
1700935730165650400,7.273650390625,1.2947198152542114,-4.514019012451172,8.612980842590332
1700935730182642400,7.290642333984375,1.2929846048355103,-4.5022382736206055,8.619405746459961
1700935730199633700,7.307633544921875,1.291904091835022,-4.498725891113281,8.621400833129883
1700935730216639200,7.32463916015625,1.2908127307891846,-4.5020670890808105,8.619820594787598
1700935730233617700,7.34161767578125,1.2892403602600098,-4.510532855987549,8.615629196166992
1700935730250609400,7.358609375,1.2869952917099,-4.5233306884765625,8.6092529296875
1700935730267601000,7.375600830078125,1.2854820489883423,-4.53928804397583,8.601076126098633
1700935730284593200,7.39259326171875,1.2855130434036255,-4.557646751403809,8.59135913848877
1700935730301584600,7.409584716796875,1.2877750396728516,-4.579649925231934,8.579309463500977
1700935730318565600,7.426565673828125,1.2913765907287598,-4.607552528381348,8.563815116882324
1700935730335568100,7.443568115234375,1.2953981161117554,-4.644094467163086,8.543444633483887
1700935730352560000,7.46056005859375,1.2995320558547974,-4.689116477966309,8.518186569213867
1700935730369545500,7.47754541015625,1.304793357849121,-4.735099792480469,8.491905212402344
1700935730386543600,7.494543701171875,1.3109078407287598,-4.771978855133057,8.470293045043945
1700935730403524600,7.511524658203125,1.315661907196045,-4.796545028686523,8.455668449401855
1700935730420527600,7.528527587890625,1.3189562559127808,-4.812516689300537,8.446072578430176
1700935730437518800,7.545518798828125,1.322075366973877,-4.8247599601745605,8.438596725463867
1700935730454510600,7.562510498046875,1.3288549184799194,-4.834325313568115,8.432056427001953
1700935730471502300,7.57950244140625,1.3382221460342407,-4.8409576416015625,8.426766395568848
1700935730488494600,7.59649462890625,1.345809817314148,-4.847179412841797,8.421979904174805
1700935730505486000,7.613486083984375,1.3510392904281616,-4.856810569763184,8.415593147277832
1700935730522478000,7.63047802734375,1.3561286926269531,-4.86995792388916,8.407172203063965
1700935730539469300,7.64746923828125,1.361865758895874,-4.883394241333008,8.398447036743164
1700935730556461800,7.6644619140625,1.3664519786834717,-4.893529891967773,8.391799926757812
1700935730573453300,7.681453369140625,1.369816780090332,-4.898591041564941,8.388298034667969
1700935730590442500,7.6984423828125,1.3737387657165527,-4.89849853515625,8.38770866394043
1700935730607436800,7.715436767578125,1.3780966997146606,-4.8946638107299805,8.389233589172363
1700935730624429000,7.732428955078125,1.3815699815750122,-4.888509273529053,8.392250061035156
1700935730641420500,7.749420654296875,1.3858633041381836,-4.882777690887451,8.394878387451172
1700935730658409700,7.76640966796875,1.390930414199829,-4.878910064697266,8.396288871765137
1700935730675406600,7.783406494140625,1.395003080368042,-4.874990940093994,8.397889137268066
1700935730692396000,7.80039599609375,1.3979365825653076,-4.870471000671387,8.400023460388184
1700935730709387500,7.817387451171875,1.4004958868026733,-4.8661956787109375,8.40207576751709
1700935730726379500,7.834379638671875,1.4031587839126587,-4.8611063957214355,8.404576301574707
1700935730743371300,7.851371337890625,1.4081745147705078,-4.854202747344971,8.40772819519043
1700935730760369000,7.868368896484375,1.4153375625610352,-4.846240520477295,8.411117553710938
1700935730777355000,7.88535498046875,1.4207123517990112,-4.837538719177246,8.4152193069458
1700935730794346500,7.902346435546875,1.4236456155776978,-4.828022003173828,8.420186996459961
1700935730811338200,7.919338134765625,1.4279673099517822,-4.8189802169799805,8.424633979797363
1700935730828330500,7.93633056640625,1.4333314895629883,-4.810769557952881,8.428415298461914
1700935730845322000,7.953322021484375,1.438746690750122,-4.803959369659424,8.431376457214355
1700935730862314000,7.97031396484375,1.446244239807129,-4.7977118492126465,8.433650016784668
1700935730879305200,7.98730517578125,1.45481276512146,-4.791823387145996,8.435524940490723
1700935730896297700,8.004297607421876,1.4614204168319702,-4.787127494812012,8.437047004699707
1700935730913289200,8.021289306640625,1.4641022682189941,-4.782577991485596,8.439162254333496
1700935730930281000,8.038281005859375,1.4657578468322754,-4.779080867767334,8.44085693359375
1700935730947272400,8.0552724609375,1.4677330255508423,-4.777062892913818,8.441655158996582
1700935730964266200,8.072266357421874,1.4701652526855469,-4.777384281158447,8.441051483154297
1700935730981256200,8.089256103515625,1.4726756811141968,-4.780130863189697,8.439057350158691
1700935730998245600,8.10624560546875,1.4739480018615723,-4.784690856933594,8.436250686645508
1700935731015242200,8.1232421875,1.4735729694366455,-4.788834095001221,8.433964729309082
1700935731032232200,8.140232177734376,1.4729520082473755,-4.790877342224121,8.432914733886719
1700935731049223700,8.1572236328125,1.474482536315918,-4.793219089508057,8.431314468383789
1700935731066215700,8.174215576171875,1.4757548570632935,-4.798266410827637,8.42821979522705
1700935731083206700,8.19120654296875,1.4727897644042969,-4.807319641113281,8.423579216003418
1700935731100199000,8.208198974609376,1.4673833847045898,-4.819525718688965,8.417545318603516
1700935731117188000,8.22518798828125,1.4626442193984985,-4.832587718963623,8.41087818145752
1700935731134185200,8.242185302734375,1.459035873413086,-4.842155456542969,8.406002044677734
1700935731151174100,8.259174072265624,1.4568016529083252,-4.845708847045898,8.404340744018555
1700935731168166100,8.276166259765626,1.4546104669570923,-4.845815658569336,8.404658317565918
1700935731185158000,8.293157958984375,1.4526463747024536,-4.845930099487305,8.404932975769043
1700935731202139600,8.3101396484375,1.4521440267562866,-4.848953723907471,8.403276443481445
1700935731219141000,8.32714111328125,1.4521067142486572,-4.85316276550293,8.400853157043457
1700935731236133400,8.34413330078125,1.4513152837753296,-4.856854438781738,8.398856163024902
1700935731253124600,8.36112451171875,1.4491745233535767,-4.860934257507324,8.396864891052246
1700935731270116600,8.37811669921875,1.447497010231018,-4.86541748046875,8.394556999206543
1700935731287108600,8.395108642578125,1.4474321603775024,-4.868686199188232,8.392672538757324
1700935731304097800,8.412097900390625,1.4476954936981201,-4.871551990509033,8.390963554382324
1700935731321084700,8.429084716796876,1.4479776620864868,-4.874162197113037,8.389398574829102
1700935731338084000,8.446083984375,1.4499353170394897,-4.876251697540283,8.387846946716309
1700935731355075300,8.463075439453124,1.4526749849319458,-4.876194477081299,8.387406349182129
1700935731372067800,8.48006787109375,1.4555675983428955,-4.8743462562561035,8.387979507446289
1700935731389059300,8.497059326171875,1.4582993984222412,-4.872650623321533,8.388489723205566
1700935731406051000,8.514051025390625,1.4600998163223267,-4.871116638183594,8.389067649841309
1700935731423042600,8.53104248046875,1.4608064889907837,-4.870704174041748,8.38918399810791
1700935731440035000,8.54803515625,1.4609894752502441,-4.872043132781982,8.388375282287598
1700935731457023700,8.565023681640625,1.461795449256897,-4.873887538909912,8.387163162231445
1700935731474021000,8.582021240234376,1.4634990692138672,-4.873894214630127,8.386861801147461
1700935731491009800,8.599009765625,1.4657821655273438,-4.872518539428711,8.387261390686035
1700935731508002000,8.616001953125,1.4697365760803223,-4.870281219482422,8.38786792755127
1700935731524993800,8.632993896484376,1.4721146821975708,-4.8680195808410645,8.388764381408691
1700935731541985300,8.6499853515625,1.4733177423477173,-4.864433288574219,8.390633583068848
1700935731558977300,8.666977294921875,1.4753621816635132,-4.859433650970459,8.393171310424805
1700935731575969500,8.683969482421874,1.4775832891464233,-4.853816032409668,8.396031379699707
1700935731592961000,8.7009609375,1.4777607917785645,-4.850729465484619,8.397783279418945
1700935731609952500,8.717952392578125,1.4753096103668213,-4.852108478546143,8.397417068481445
1700935731626944000,8.734944091796875,1.4723385572433472,-4.856574058532715,8.395358085632324
1700935731643936800,8.751936767578124,1.4692643880844116,-4.861907005310059,8.392809867858887
1700935731660928300,8.76892822265625,1.4651991128921509,-4.8652520179748535,8.391580581665039
1700935731677920000,8.785919921875,1.4616724252700806,-4.864076614379883,8.392876625061035
1700935731694911500,8.802911376953125,1.4604614973068237,-4.857460975646973,8.396919250488281
1700935731711901200,8.819901123046876,1.4611762762069702,-4.847376346588135,8.402620315551758
1700935731728897800,8.836897705078124,1.4614440202713013,-4.838302135467529,8.407801628112793
1700935731745887000,8.853886962890625,1.4621951580047607,-4.833155632019043,8.410629272460938
1700935731762868000,8.870867919921874,1.4625664949417114,-4.8313984870910645,8.411576271057129
1700935731779871000,8.88787109375,1.4610190391540527,-4.830393314361572,8.412423133850098
1700935731796862500,8.904862548828126,1.4598881006240845,-4.8300395011901855,8.412821769714355
1700935731813854500,8.9218544921875,1.461176872253418,-4.8291707038879395,8.413095474243164
1700935731830843400,8.938843505859374,1.4622600078582764,-4.827658653259277,8.413774490356445
1700935731847841000,8.955841064453125,1.462156891822815,-4.825804233551025,8.414857864379883
1700935731864831500,8.97283154296875,1.4619174003601074,-4.82354736328125,8.416192054748535
1700935731881820000,8.98981982421875,1.4619882106781006,-4.823784351348877,8.416046142578125
1700935731898813000,9.00681298828125,1.4610780477523804,-4.827285289764404,8.414194107055664
1700935731915805400,9.023805419921874,1.4588643312454224,-4.831138610839844,8.412367820739746
1700935731932796700,9.040796630859376,1.4566291570663452,-4.832991600036621,8.411690711975098
1700935731949788700,9.05778857421875,1.4539216756820679,-4.833746433258057,8.411724090576172
1700935731966780400,9.074780517578125,1.4525823593139648,-4.833487510681152,8.412105560302734
1700935731983772700,9.091772705078125,1.4520127773284912,-4.831576824188232,8.413301467895508
1700935732000753400,9.10875341796875,1.4506422281265259,-4.829373836517334,8.414802551269531
1700935732017756000,9.125755859375,1.4473531246185303,-4.8283915519714355,8.415931701660156
1700935732034744800,9.142744873046874,1.442923665046692,-4.829129219055176,8.416269302368164
1700935732051731500,9.1597314453125,1.4394009113311768,-4.830493927001953,8.416090965270996
1700935732068731100,9.176731201171876,1.4364259243011475,-4.831375598907471,8.416091918945312
1700935732085723000,9.193722900390625,1.434524416923523,-4.832174777984619,8.415956497192383
1700935732102714400,9.21071435546875,1.4355543851852417,-4.83156156539917,8.41613483428955
1700935732119707000,9.227706787109375,1.4373546838760376,-4.828927993774414,8.417338371276855
1700935732136698600,9.24469873046875,1.4388636350631714,-4.826406002044678,8.418527603149414
1700935732153677800,9.261677734375,1.4401671886444092,-4.825152397155762,8.419023513793945
1700935732170681900,9.278681884765625,1.4405425786972046,-4.825690269470215,8.418649673461914
1700935732187672600,9.295672607421874,1.4382610321044922,-4.827845096588135,8.417805671691895
1700935732204667000,9.3126669921875,1.4361639022827148,-4.831075668334961,8.416308403015137
1700935732221657600,9.32965771484375,1.43601393699646,-4.83220100402832,8.415688514709473
1700935732238649000,9.346649169921875,1.436519980430603,-4.829126358032227,8.417366981506348
1700935732255641300,9.363641357421875,1.4362908601760864,-4.823378562927246,8.420701026916504
1700935732272632600,9.380632568359376,1.4366322755813599,-4.8169684410095215,8.424311637878418
1700935732289624600,9.39762451171875,1.4388647079467773,-4.81154203414917,8.427030563354492
1700935732306616000,9.414615966796875,1.442151427268982,-4.807229042053223,8.428929328918457
1700935732323608600,9.431608642578125,1.443119764328003,-4.804491996765137,8.43032455444336
1700935732340594700,9.4485947265625,1.4424690008163452,-4.8017897605896,8.431975364685059
1700935732357592000,9.465592041015626,1.4420579671859741,-4.80003023147583,8.4330472946167
1700935732374583300,9.482583251953125,1.4418096542358398,-4.801501750946045,8.432252883911133
1700935732391575800,9.499575927734375,1.4399789571762085,-4.805124759674072,8.430502891540527
1700935732408567000,9.516567138671874,1.4383455514907837,-4.808169841766357,8.429043769836426
1700935732425559300,9.533559326171876,1.4380213022232056,-4.810741424560547,8.427632331848145
1700935732442550800,9.55055078125,1.439311146736145,-4.811081409454346,8.427216529846191
1700935732459543000,9.56754296875,1.441132664680481,-4.808858394622803,8.428175926208496
1700935732476534500,9.584534423828124,1.4418237209320068,-4.806748867034912,8.429261207580566
1700935732493526300,9.6015263671875,1.4415453672409058,-4.8058037757873535,8.42984676361084
1700935732510517500,9.618517578125,1.440742015838623,-4.8069305419921875,8.429341316223145
1700935732527498800,9.635498779296874,1.4390363693237305,-4.809847831726074,8.427967071533203
1700935732544496600,9.65249658203125,1.4373807907104492,-4.813307285308838,8.426276206970215
1700935732561493500,9.669493408203126,1.4364255666732788,-4.814445495605469,8.425787925720215
1700935732578482400,9.686482421875,1.435686469078064,-4.814006805419922,8.426165580749512
1700935732595480000,9.70347998046875,1.4364001750946045,-4.812623977661133,8.426833152770996
1700935732612469000,9.720468994140624,1.437844157218933,-4.8107500076293945,8.427659034729004
1700935732629460700,9.737460693359376,1.4398531913757324,-4.809248924255371,8.428170204162598
1700935732646452200,9.7544521484375,1.4404125213623047,-4.808445930480957,8.428532600402832
1700935732663444500,9.771444580078125,1.438253402709961,-4.8069844245910645,8.429734230041504
1700935732680438800,9.788438720703125,1.4361817836761475,-4.806039810180664,8.430627822875977
1700935732697425200,9.805425048828125,1.4370553493499756,-4.807109832763672,8.4298677444458
1700935732714419700,9.822419677734375,1.4376628398895264,-4.810036659240723,8.428095817565918
1700935732731409200,9.8394091796875,1.4343547821044922,-4.814646244049072,8.426027297973633
1700935732748406000,9.856406005859375,1.4301530122756958,-4.820728302001953,8.423262596130371
1700935732765395200,9.873395263671876,1.4274661540985107,-4.8245134353637695,8.421551704406738
1700935732782385000,9.890385009765625,1.425461769104004,-4.824325084686279,8.421998977661133
1700935732799380200,9.907380126953125,1.4236268997192383,-4.821490287780762,8.423933982849121
1700935732816370400,9.924370361328124,1.4212157726287842,-4.8180365562438965,8.426315307617188
1700935732833362400,9.941362548828126,1.4182480573654175,-4.816228866577148,8.427848815917969
1700935732850353700,9.958353759765625,1.4158763885498047,-4.8179707527160645,8.427249908447266
1700935732867346200,9.97534619140625,1.4136117696762085,-4.821179389953613,8.425797462463379
1700935732884337700,9.992337646484375,1.4089939594268799,-4.823582649230957,8.42519474029541
1700935732901329700,10.00932958984375,1.4028581380844116,-4.825724124908447,8.424992561340332
1700935732918321000,10.02632080078125,1.3984581232070923,-4.827794551849365,8.424537658691406
1700935732935313200,10.043313232421875,1.3965338468551636,-4.82856559753418,8.42441463470459
1700935732952301300,10.06030126953125,1.3949817419052124,-4.829121112823486,8.424352645874023
1700935732969297000,10.077296875,1.392301321029663,-4.830308437347412,8.424116134643555
1700935732986288400,10.094288330078125,1.3871917724609375,-4.832378387451172,8.423771858215332
1700935733003280400,10.1112802734375,1.381594181060791,-4.835538387298584,8.42287826538086
1700935733020271900,10.12827197265625,1.3771106004714966,-4.839184761047363,8.421518325805664
1700935733037264000,10.145263916015624,1.3733028173446655,-4.840829372406006,8.421195030212402
1700935733054255400,10.16225537109375,1.3695679903030396,-4.8403239250183105,8.422093391418457
1700935733071247600,10.17924755859375,1.366868019104004,-4.83876895904541,8.423426628112793
1700935733088239400,10.1962392578125,1.3650708198547363,-4.836548805236816,8.424991607666016
1700935733105231000,10.213231201171874,1.3628792762756348,-4.834627151489258,8.426450729370117
1700935733122217700,10.2302177734375,1.359722375869751,-4.834306240081787,8.427143096923828
1700935733139214800,10.24721484375,1.3552732467651367,-4.835155010223389,8.427372932434082
1700935733156206300,10.264206298828125,1.351199746131897,-4.836102485656738,8.427484512329102
1700935733173198000,10.281197998046874,1.3479937314987183,-4.836608409881592,8.42770767211914
1700935733190185700,10.298185791015625,1.3456119298934937,-4.8369646072387695,8.42788314819336
1700935733207182000,10.31518212890625,1.3439399003982544,-4.8369574546813965,8.428154945373535
1700935733224173600,10.332173583984375,1.342165231704712,-4.836045265197754,8.428961753845215
1700935733241165600,10.34916552734375,1.3401646614074707,-4.836182117462158,8.429200172424316
1700935733258157000,10.366156982421876,1.339761734008789,-4.838338851928711,8.428028106689453
1700935733275149300,10.3831494140625,1.3411405086517334,-4.842379570007324,8.425487518310547
1700935733292140800,10.400140869140625,1.340560793876648,-4.846529960632324,8.423192977905273
1700935733309132500,10.417132568359374,1.338692307472229,-4.847618103027344,8.422863960266113
1700935733326124300,10.434124267578126,1.3361788988113403,-4.845344543457031,8.424570083618164
1700935733343114200,10.4511142578125,1.3338958024978638,-4.841069221496582,8.427390098571777
1700935733360102100,10.46810205078125,1.3329799175262451,-4.836625099182129,8.430086135864258
1700935733377100000,10.48510009765625,1.3324735164642334,-4.835350036621094,8.430896759033203
1700935733394077700,10.50207763671875,1.3324004411697388,-4.836953163146973,8.429988861083984
1700935733411087000,10.519087158203124,1.3316174745559692,-4.839158535003662,8.42884635925293
1700935733428074500,10.536074462890625,1.3286582231521606,-4.840029239654541,8.428812980651855
1700935733445067300,10.5530673828125,1.3255910873413086,-4.839648723602295,8.429515838623047
1700935733462058800,10.570058837890626,1.3239651918411255,-4.838236331939697,8.430581092834473
1700935733479051000,10.587051025390625,1.3236430883407593,-4.834387302398682,8.432839393615723
1700935733496042800,10.604042724609375,1.3243929147720337,-4.830633640289307,8.434873580932617
1700935733513034800,10.62103466796875,1.3246742486953735,-4.8290696144104,8.435724258422852
1700935733530026200,10.638026123046876,1.3229724168777466,-4.829347133636475,8.435832023620605
1700935733547018200,10.655018310546875,1.3191863298416138,-4.830348014831543,8.435853004455566
1700935733564009700,10.672009765625,1.314204454421997,-4.833176136016846,8.435009956359863
1700935733580999000,10.6889990234375,1.308847188949585,-4.837674617767334,8.433263778686523
1700935733597990700,10.70599072265625,1.3041934967041016,-4.843241214752197,8.430789947509766
1700935733614988300,10.72298828125,1.3006234169006348,-4.848621845245361,8.428248405456543
1700935733631977000,10.73997705078125,1.297788381576538,-4.851377964019775,8.42710018157959
1700935733648969000,10.756968994140625,1.2955118417739868,-4.851593017578125,8.427325248718262
1700935733665960200,10.773960205078126,1.2951139211654663,-4.85034704208374,8.428104400634766
1700935733682952700,10.79095263671875,1.2968584299087524,-4.848102569580078,8.429126739501953
1700935733699944400,10.8079443359375,1.2983638048171997,-4.845828056335449,8.43020248413086
1700935733716936000,10.82493603515625,1.3000231981277466,-4.844902038574219,8.430479049682617
1700935733733928000,10.841927978515624,1.3028357028961182,-4.844749927520752,8.430131912231445
1700935733750920200,10.858920166015626,1.3068212270736694,-4.844351768493652,8.429743766784668
1700935733767911400,10.875911376953125,1.3108160495758057,-4.844015598297119,8.429317474365234
1700935733784903400,10.8929033203125,1.316619634628296,-4.845688819885254,8.427451133728027
1700935733801895000,10.90989501953125,1.3239277601242065,-4.849208831787109,8.424280166625977
1700935733818887200,10.92688720703125,1.3292192220687866,-4.853839874267578,8.42077922821045
1700935733835878700,10.943878662109375,1.332923173904419,-4.8584370613098145,8.417542457580566
1700935733852870700,10.96087060546875,1.3362964391708374,-4.860825061798096,8.415629386901855
1700935733869862100,10.977862060546874,1.3390411138534546,-4.8574934005737305,8.417116165161133
1700935733886854700,10.994854736328126,1.3423082828521729,-4.851162910461426,8.420245170593262
1700935733903843600,11.011843505859375,1.347409963607788,-4.844884872436523,8.42304515838623
1700935733920840400,11.02884033203125,1.3512632846832275,-4.841197490692139,8.424549102783203
1700935733937829400,11.045829345703124,1.3519251346588135,-4.841062545776367,8.424518585205078
1700935733954822000,11.06282177734375,1.3494690656661987,-4.842284202575684,8.424211502075195
1700935733971813400,11.0798134765625,1.346557378768921,-4.843636512756348,8.423900604248047
1700935733988802600,11.096802490234374,1.3459835052490234,-4.843349456787109,8.424155235290527
1700935734005799200,11.113799072265625,1.3461875915527344,-4.840097427368164,8.425992965698242
1700935734022789000,11.1307890625,1.3455674648284912,-4.834846496582031,8.429105758666992
1700935734039780400,11.1477802734375,1.343584418296814,-4.829864978790283,8.432276725769043
1700935734056769800,11.164769775390624,1.34031343460083,-4.82681131362915,8.43454647064209
1700935734073766700,11.1817666015625,1.3350054025650024,-4.825178623199463,8.436321258544922
1700935734090756000,11.198756103515626,1.330517292022705,-4.823683261871338,8.437885284423828
1700935734107747800,11.215747802734375,1.3288204669952393,-4.823901653289795,8.438028335571289
1700935734124739800,11.23273974609375,1.3298355340957642,-4.825732707977295,8.436821937561035
1700935734141731300,11.2497314453125,1.33187997341156,-4.828571319580078,8.434874534606934
1700935734158723600,11.2667236328125,1.3332868814468384,-4.83209753036499,8.432632446289062
1700935734175712500,11.28371240234375,1.3350507020950317,-4.835056304931641,8.430658340454102
1700935734192709400,11.30070947265625,1.3385484218597412,-4.836410045623779,8.429327011108398
1700935734209698300,11.3176982421875,1.3427622318267822,-4.835073471069336,8.429421424865723
1700935734226703400,11.334703369140625,1.3471072912216187,-4.8328351974487305,8.430012702941895
1700935734243680000,11.351679931640625,1.3506852388381958,-4.831371307373047,8.430279731750488
1700935734260676400,11.36867626953125,1.355209231376648,-4.8305487632751465,8.430025100708008
1700935734277665800,11.385665771484375,1.3629392385482788,-4.829293251037598,8.429496765136719
1700935734294654700,11.40265478515625,1.3706923723220825,-4.827436923980713,8.429304122924805
1700935734311649500,11.4196494140625,1.3759440183639526,-4.825933933258057,8.429308891296387
1700935734328641500,11.4366416015625,1.3804432153701782,-4.826204776763916,8.428420066833496
1700935734345633000,11.453633056640625,1.3845356702804565,-4.828418731689453,8.426478385925293
1700935734362614500,11.470614501953126,1.3861318826675415,-4.83205509185791,8.424132347106934
1700935734379616800,11.48761669921875,1.3849838972091675,-4.836909770965576,8.421534538269043
1700935734396608800,11.50460888671875,1.3844268321990967,-4.840680122375488,8.419458389282227
1700935734413602800,11.521602783203125,1.3861459493637085,-4.841385364532471,8.418771743774414
1700935734430589700,11.538589599609375,1.3898849487304688,-4.838390350341797,8.419875144958496
1700935734447577000,11.5555771484375,1.3936187028884888,-4.834240913391113,8.42164134979248
1700935734464576000,11.572575927734375,1.3960394859313965,-4.831344127655029,8.422903060913086
1700935734481567200,11.589567138671875,1.3971606492996216,-4.8300981521606445,8.423431396484375
1700935734498559700,11.606559814453124,1.3973311185836792,-4.830020427703857,8.42344856262207
1700935734515551200,11.62355126953125,1.3966259956359863,-4.830324172973633,8.423391342163086
1700935734532542700,11.640542724609375,1.3954076766967773,-4.830258846282959,8.42363166809082
1700935734549534700,11.65753466796875,1.3930410146713257,-4.829431056976318,8.424497604370117
1700935734566527000,11.67452685546875,1.3891137838363647,-4.8299431800842285,8.424853324890137
1700935734583508700,11.6915087890625,1.3863941431045532,-4.833430767059326,8.423298835754395
1700935734600510200,11.70851025390625,1.3847891092300415,-4.838784217834473,8.420488357543945
1700935734617498000,11.725498046875,1.3827372789382935,-4.844943046569824,8.417284965515137
1700935734634494200,11.742494140625,1.3800742626190186,-4.85142707824707,8.413986206054688
1700935734651483400,11.7594833984375,1.3788039684295654,-4.856109142303467,8.411493301391602
1700935734668480000,11.77647998046875,1.380478858947754,-4.856380462646484,8.411063194274902
1700935734685458400,11.79345849609375,1.3824560642242432,-4.853692054748535,8.412288665771484
1700935734702461400,11.81046142578125,1.3831367492675781,-4.851188659667969,8.41362190246582
1700935734719451000,11.827450927734375,1.3838319778442383,-4.850409030914307,8.413956642150879
1700935734736446700,11.84444677734375,1.384979486465454,-4.851205348968506,8.413307189941406
1700935734753419300,11.861419189453125,1.3863520622253418,-4.854094505310059,8.411416053771973
1700935734770428700,11.8784287109375,1.3877167701721191,-4.856292724609375,8.409921646118164
1700935734787420400,11.89542041015625,1.3892055749893188,-4.855382919311523,8.410201072692871
1700935734804412200,11.912412109375,1.3907381296157837,-4.851924896240234,8.411944389343262
1700935734821403600,11.929403564453125,1.3922584056854248,-4.846601486206055,8.414761543273926
1700935734838396200,11.946396240234375,1.395037293434143,-4.841278553009033,8.417364120483398
1700935734855387600,11.9633876953125,1.3975942134857178,-4.837464332580566,8.419133186340332
1700935734872379100,11.980379150390625,1.3979625701904297,-4.836402416229248,8.41968059539795
1700935734889371100,11.99737109375,1.399857997894287,-4.8386125564575195,8.418095588684082
1700935734906363400,12.01436328125,1.401405692100525,-4.84137487411499,8.416250228881836
1700935734923355000,12.03135498046875,1.3990609645843506,-4.8426899909973145,8.415884017944336
1700935734940346600,12.0483466796875,1.3964571952819824,-4.842141628265381,8.416632652282715
1700935734957338400,12.06533837890625,1.3972375392913818,-4.838587760925293,8.418546676635742
1700935734974330400,12.082330322265625,1.3991671800613403,-4.831822872161865,8.422111511230469
1700935734991321900,12.09932177734375,1.3985540866851807,-4.82535457611084,8.425919532775879
1700935735008313600,12.116313720703126,1.3973287343978882,-4.822530269622803,8.427739143371582
1700935735025305600,12.1333056640625,1.3970249891281128,-4.822270393371582,8.427937507629395
1700935735042300400,12.150300537109375,1.396776795387268,-4.823852062225342,8.427075386047363
1700935735059279000,12.167279052734376,1.3969627618789673,-4.82651424407959,8.425518989562988
1700935735076281000,12.184281005859376,1.3972656726837158,-4.830007553100586,8.423466682434082
1700935735093272800,12.20127294921875,1.3980178833007812,-4.833522796630859,8.42132568359375
1700935735110264800,12.218264892578125,1.3997156620025635,-4.836995601654053,8.419049263000488
1700935735127256600,12.235256591796874,1.402316689491272,-4.840048789978027,8.416860580444336
1700935735144248600,12.25224853515625,1.404064416885376,-4.8425374031066895,8.41513729095459
1700935735161225700,12.269225830078126,1.404044270515442,-4.8451457023620605,8.413640975952148
1700935735178232300,12.286232421875,1.403327465057373,-4.848102569580078,8.412055969238281
1700935735195223800,12.303223876953124,1.4030128717422485,-4.8512372970581055,8.41030216217041
1700935735212215600,12.320215576171876,1.4036040306091309,-4.854475975036621,8.408334732055664
1700935735229207300,12.337207275390625,1.4045714139938354,-4.857669830322266,8.406327247619629
1700935735246199300,12.35419921875,1.4045456647872925,-4.8591203689575195,8.40549373626709
1700935735263191000,12.37119091796875,1.4035835266113281,-4.859177589416504,8.405621528625488
1700935735280183000,12.38818310546875,1.4037604331970215,-4.859147071838379,8.405610084533691
1700935735297174500,12.405174560546875,1.4062414169311523,-4.858740329742432,8.40542984008789
1700935735314164500,12.42216455078125,1.4096108675003052,-4.858417987823486,8.405051231384277
1700935735331158800,12.43915869140625,1.4117152690887451,-4.858649253845215,8.404565811157227
1700935735348152300,12.45615234375,1.4145458936691284,-4.858931541442871,8.403924942016602
1700935735365141800,12.473141845703125,1.4172577857971191,-4.858203887939453,8.403888702392578
1700935735382134300,12.49013427734375,1.419215440750122,-4.856348991394043,8.404630661010742
1700935735399125800,12.507125732421875,1.419966220855713,-4.853933811187744,8.405899047851562
1700935735416117200,12.5241171875,1.4212102890014648,-4.85267448425293,8.406414985656738
1700935735433109000,12.54110888671875,1.4237546920776367,-4.854803085327148,8.404756546020508
1700935735450101200,12.558101318359375,1.424708604812622,-4.860875129699707,8.401083946228027
1700935735467093000,12.575093017578125,1.4230828285217285,-4.869289875030518,8.396485328674316
1700935735484084700,12.592084716796874,1.4220341444015503,-4.877116680145264,8.392119407653809
1700935735501072000,12.60907177734375,1.4229960441589355,-4.881109237670898,8.389636039733887
1700935735518072800,12.62607275390625,1.4245513677597046,-4.878946304321289,8.390628814697266
1700935735535060200,12.643060302734375,1.4257386922836304,-4.872430801391602,8.39421272277832
1700935735552052200,12.66005224609375,1.4266016483306885,-4.8659162521362305,8.397842407226562
1700935735569043500,12.67704345703125,1.4288537502288818,-4.862783432006836,8.399276733398438
1700935735586036000,12.694035888671875,1.4309242963790894,-4.8621296882629395,8.39930248260498
1700935735603027500,12.71102734375,1.4321305751800537,-4.862048149108887,8.39914321899414
1700935735620019200,12.728019287109374,1.4329257011413574,-4.8626813888549805,8.398640632629395
1700935735637010700,12.7450107421875,1.4333946704864502,-4.863788604736328,8.397920608520508
1700935735654003000,12.7620029296875,1.4324544668197632,-4.86477518081665,8.39750862121582
1700935735670992100,12.7789921875,1.4306538105010986,-4.86572790145874,8.397263526916504
1700935735687989200,12.7959892578125,1.4293951988220215,-4.867138385772705,8.396660804748535
1700935735704969500,12.812969482421876,1.4313089847564697,-4.867880821228027,8.395903587341309
1700935735721968400,12.829968505859375,1.4344264268875122,-4.868144989013672,8.395218849182129
1700935735738966300,12.84696630859375,1.4371815919876099,-4.866703987121582,8.395583152770996
1700935735755956700,12.863956787109375,1.4381507635116577,-4.8638176918029785,8.397089958190918
1700935735772942600,12.880942626953125,1.4378771781921387,-4.860440731048584,8.399090766906738
1700935735789929200,12.89792919921875,1.4371992349624634,-4.858644008636475,8.400247573852539
1700935735806929400,12.914929443359375,1.4359052181243896,-4.8592119216918945,8.400139808654785
1700935735823921200,12.931921142578124,1.4340208768844604,-4.8602142333984375,8.399880409240723
1700935735840912400,12.948912353515626,1.4320191144943237,-4.861955165863037,8.399215698242188
1700935735857905200,12.9659052734375,1.4311695098876953,-4.863276958465576,8.39859390258789
1700935735874896600,12.982896728515625,1.4324921369552612,-4.863476753234863,8.398255348205566
1700935735891889000,12.999888916015625,1.4327465295791626,-4.863180160522461,8.398384094238281
1700935735908877300,13.016877197265625,1.4329619407653809,-4.862890720367432,8.398512840270996
1700935735925871900,13.033871826171875,1.434041142463684,-4.86246395111084,8.398575782775879
1700935735942864000,13.05086376953125,1.4352015256881714,-4.8620405197143555,8.398624420166016
1700935735959855900,13.06785595703125,1.4350091218948364,-4.862302303314209,8.398505210876465
1700935735976847000,13.08484716796875,1.4336011409759521,-4.862711429595947,8.398508071899414
1700935735993839400,13.10183935546875,1.4326714277267456,-4.862868785858154,8.398575782775879
1700935736010830800,13.118830810546875,1.4331023693084717,-4.864087104797363,8.397796630859375
1700935736027822800,13.13582275390625,1.4342726469039917,-4.867076873779297,8.395865440368652
1700935736044814600,13.152814697265624,1.4346510171890259,-4.871340274810791,8.393326759338379
1700935736061806800,13.169806884765626,1.4336776733398438,-4.874520778656006,8.391646385192871
1700935736078798300,13.18679833984375,1.4332306385040283,-4.874782085418701,8.391571998596191
1700935736095790000,13.2037900390625,1.4329508543014526,-4.872020721435547,8.39322280883789
1700935736112781800,13.22078173828125,1.4323608875274658,-4.8669209480285645,8.396282196044922
1700935736129774000,13.237774169921876,1.4331905841827393,-4.862411975860596,8.398752212524414
1700935736146770000,13.25477001953125,1.4356671571731567,-4.860208034515381,8.399603843688965
1700935736163747300,13.271747314453124,1.43874192237854,-4.8598833084106445,8.39926528930664
1700935736180740600,13.28874072265625,1.4413390159606934,-4.860579013824463,8.398417472839355
1700935736197741300,13.3057412109375,1.4438807964324951,-4.862691879272461,8.396759986877441
1700935736214732800,13.32273291015625,1.4470006227493286,-4.864837646484375,8.394979476928711
1700935736231724500,13.339724609375,1.4500983953475952,-4.86663818359375,8.393399238586426
1700935736248716300,13.35671630859375,1.4529179334640503,-4.868648529052734,8.391745567321777
1700935736265708800,13.373708740234376,1.4545849561691284,-4.870819091796875,8.390196800231934
1700935736282700300,13.3907001953125,1.4550442695617676,-4.873129844665527,8.388774871826172
1700935736299692000,13.407692138671875,1.4552226066589355,-4.875299453735352,8.38748550415039
1700935736316683500,13.42468359375,1.4566055536270142,-4.87686824798584,8.386333465576172
1700935736333676000,13.441676025390626,1.4580076932907104,-4.877004146575928,8.38601016998291
1700935736350667500,13.45866748046875,1.4581292867660522,-4.875364780426025,8.386940956115723
1700935736367659300,13.4756591796875,1.4578404426574707,-4.872413635253906,8.388707160949707
1700935736384649200,13.492649169921876,1.457531452178955,-4.870413780212402,8.389922142028809
1700935736401631500,13.509631591796875,1.4573004245758057,-4.871170520782471,8.389522552490234
1700935736418634500,13.526634521484375,1.456313967704773,-4.873197555541992,8.388517379760742
1700935736435626500,13.54362646484375,1.454755187034607,-4.874913215637207,8.38779067993164
1700935736452618200,13.5606181640625,1.452640175819397,-4.875324249267578,8.387918472290039
1700935736469610500,13.577610595703124,1.450880527496338,-4.874120712280273,8.388920783996582
1700935736486602000,13.59460205078125,1.4513006210327148,-4.871337413787842,8.39046573638916
1700935736503591200,13.611591064453124,1.453292727470398,-4.868264675140381,8.391905784606934
1700935736520588500,13.628588623046875,1.454059362411499,-4.867281436920166,8.392340660095215
1700935736537567000,13.64556689453125,1.4547022581100464,-4.86805534362793,8.3917818069458
1700935736554569200,13.6625693359375,1.4544581174850464,-4.868078708648682,8.391810417175293
1700935736571561000,13.67956103515625,1.4518861770629883,-4.865973472595215,8.393477439880371
1700935736588566300,13.696566162109375,1.4493924379348755,-4.8636956214904785,8.39522647857666
1700935736605545000,13.713544921875,1.4488152265548706,-4.864186763763428,8.395042419433594
1700935736622536700,13.73053662109375,1.448851227760315,-4.866637229919434,8.39361572265625
1700935736639528400,13.747528564453125,1.445007562637329,-4.869797706604004,8.392444610595703
1700935736656520000,13.76452001953125,1.4407291412353516,-4.8713908195495605,8.392254829406738
1700935736673512200,13.78151220703125,1.440262794494629,-4.869313716888428,8.393543243408203
1700935736690503700,13.798503662109376,1.4416056871414185,-4.862525463104248,8.397245407104492
1700935736707496000,13.815495849609375,1.4417240619659424,-4.853691101074219,8.40233325958252
1700935736724487400,13.8324873046875,1.4388610124588013,-4.846835136413574,8.406781196594238
1700935736741479700,13.849479736328124,1.4351176023483276,-4.843544006347656,8.409317970275879
1700935736758468900,13.86646875,1.4331029653549194,-4.843286991119385,8.409810066223145
1700935736775465000,13.88346484375,1.4322781562805176,-4.844334125518799,8.409347534179688
1700935736792443600,13.900443603515624,1.430655837059021,-4.843817234039307,8.409921646118164
1700935736809447200,13.917447265625,1.4285616874694824,-4.841745376586914,8.411468505859375
1700935736826438400,13.9344384765625,1.427396297454834,-4.840007781982422,8.412668228149414
1700935736843430400,13.951430419921875,1.4265183210372925,-4.839034557342529,8.413376808166504
1700935736860422100,13.968422119140625,1.4240429401397705,-4.838803768157959,8.413928031921387
1700935736877414400,13.985414306640624,1.4210515022277832,-4.839519023895264,8.414023399353027
1700935736894406000,14.002406005859376,1.41898512840271,-4.840485572814941,8.413816452026367
1700935736911397600,14.019397705078125,1.417381763458252,-4.839418888092041,8.41469955444336
1700935736928389000,14.03638916015625,1.4152837991714478,-4.8376054763793945,8.416095733642578
1700935736945381600,14.053381591796875,1.4146453142166138,-4.836984157562256,8.416560173034668
1700935736962386200,14.07038623046875,1.4152542352676392,-4.837670803070068,8.416064262390137
1700935736979364900,14.08736474609375,1.4149365425109863,-4.838860511779785,8.41543197631836
1700935736996356600,14.104356689453125,1.414017915725708,-4.840633392333984,8.414566993713379
1700935737013348900,14.121348876953125,1.412575364112854,-4.842276573181152,8.413863182067871
1700935737030340600,14.138340576171874,1.4107046127319336,-4.843605995178223,8.413413047790527
1700935737047329800,14.155329833984375,1.4094898700714111,-4.844931125640869,8.412854194641113
1700935737064326400,14.172326416015625,1.4091016054153442,-4.845751762390137,8.412444114685059
1700935737081316400,14.18931640625,1.4069384336471558,-4.845165729522705,8.413146018981934
1700935737098307800,14.206307861328124,1.4026097059249878,-4.842806816101074,8.4152250289917
1700935737115299600,14.223299560546875,1.3986438512802124,-4.836850643157959,8.419310569763184
1700935737132291300,14.240291259765625,1.3948533535003662,-4.826956748962402,8.425614356994629
1700935737149283600,14.25728369140625,1.3898621797561646,-4.814120292663574,8.4337797164917
1700935737166275000,14.274275146484374,1.3852308988571167,-4.802912712097168,8.440929412841797
1700935737183267000,14.29126708984375,1.3820961713790894,-4.795289993286133,8.445775032043457
1700935737200258300,14.30825830078125,1.378217101097107,-4.790847301483154,8.448929786682129
1700935737217250600,14.32525048828125,1.3723912239074707,-4.7881975173950195,8.451380729675293
1700935737234242300,14.3422421875,1.3661142587661743,-4.784689903259277,8.454383850097656
1700935737251234300,14.359234375,1.3636012077331543,-4.778972625732422,8.458020210266113
1700935737268225800,14.376225830078125,1.3650360107421875,-4.768814563751221,8.463521957397461
1700935737285218000,14.393218017578125,1.3685956001281738,-4.755516529083252,8.470426559448242
1700935737302209800,14.410209716796874,1.3722583055496216,-4.743417263031006,8.476616859436035
1700935737319201500,14.427201416015626,1.3773728609085083,-4.736099720001221,8.479877471923828
1700935737336193000,14.444193115234375,1.382493495941162,-4.732917308807373,8.480820655822754
1700935737353190700,14.461190673828124,1.3858562707901,-4.731116771697998,8.481276512145996
1700935737370177000,14.478177001953124,1.388363242149353,-4.729407787322998,8.481819152832031
1700935737387168500,14.49516845703125,1.392309546470642,-4.728368759155273,8.481752395629883
1700935737404160300,14.51216015625,1.3977386951446533,-4.728115558624268,8.481000900268555
1700935737421152800,14.52915283203125,1.403733253479004,-4.729386806488037,8.479301452636719
1700935737438135800,14.5461357421875,1.4094802141189575,-4.7321038246154785,8.476832389831543
1700935737455133200,14.56313330078125,1.4150007963180542,-4.7370171546936035,8.473167419433594
1700935737472130000,14.580130126953126,1.4195247888565063,-4.743116855621338,8.468996047973633
1700935737489120300,14.597120361328125,1.4223495721817017,-4.75,8.4646635055542
1700935737506111500,14.614111572265625,1.4239996671676636,-4.756734848022461,8.460602760314941
1700935737523103200,14.631103271484376,1.4272931814193726,-4.763710975646973,8.456122398376465
1700935737540094700,14.6480947265625,1.43159818649292,-4.771092414855957,8.45123291015625
1700935737557084700,14.665084716796875,1.4357140064239502,-4.778650283813477,8.446260452270508
1700935737574081300,14.682081298828125,1.4396345615386963,-4.78587532043457,8.441502571105957
1700935737591065600,14.699065673828125,1.444878339767456,-4.791286945343018,8.437536239624023
1700935737608062200,14.716062255859375,1.4505252838134766,-4.7941389083862305,8.434946060180664
1700935737625054700,14.7330546875,1.4539917707443237,-4.795364856719971,8.433653831481934
1700935737642046500,14.75004638671875,1.4549741744995117,-4.7975172996521,8.432259559631348
1700935737659038000,14.767037841796874,1.456011176109314,-4.800777912139893,8.430224418640137
1700935737676029700,14.78402978515625,1.458224892616272,-4.805529594421387,8.427133560180664
1700935737693021700,14.801021728515625,1.46234130859375,-4.810659408569336,8.423493385314941
1700935737710009900,14.818009765625,1.4671438932418823,-4.814120292663574,8.420680046081543
1700935737727008800,14.8350087890625,1.4700713157653809,-4.813835144042969,8.420333862304688
1700935737743996700,14.85199658203125,1.4722485542297363,-4.812841892242432,8.420520782470703
1700935737760987100,14.868987060546875,1.475089430809021,-4.811401844024658,8.420845031738281
1700935737777981000,14.88598095703125,1.476091980934143,-4.810235977172852,8.42133617401123
1700935737794973000,14.902972900390624,1.4725093841552734,-4.810927391052246,8.4215669631958
1700935737811964200,14.919964111328126,1.4678642749786377,-4.812546730041504,8.421454429626465
1700935737828956400,14.936956298828125,1.4657812118530273,-4.811132907867432,8.422624588012695
1700935737845937400,14.9539375,1.4657833576202393,-4.805328845977783,8.425936698913574
1700935737862929400,14.970929443359376,1.466364860534668,-4.796590328216553,8.430813789367676
1700935737879931400,14.987931396484376,1.4654415845870972,-4.783574104309082,8.438365936279297
1700935737896923600,15.004923583984375,1.4636077880859375,-4.768221378326416,8.447368621826172
1700935737913915600,15.02191552734375,1.461910367012024,-4.753520488739014,8.455944061279297
1700935737930910000,15.038909912109375,1.4616382122039795,-4.740365028381348,8.463372230529785
1700935737947896300,15.055896240234375,1.4612751007080078,-4.729007244110107,8.469786643981934
1700935737964891400,15.072891357421875,1.4606809616088867,-4.7187819480896,8.47558879852295
1700935737981883000,15.0898828125,1.4597699642181396,-4.708992958068848,8.481189727783203
1700935737998874400,15.106874267578124,1.459679365158081,-4.699933052062988,8.486228942871094
1700935738015866000,15.1238662109375,1.4610713720321655,-4.692617416381836,8.490036964416504
1700935738032858600,15.140858642578126,1.4648146629333496,-4.687390327453613,8.492280006408691
1700935738049850000,15.15785009765625,1.4701087474822998,-4.682753562927246,8.493922233581543
1700935738066842000,15.174842041015625,1.4740995168685913,-4.680023193359375,8.494734764099121
1700935738083833000,15.1918330078125,1.4768120050430298,-4.6791791915893555,8.494728088378906
1700935738100825600,15.20882568359375,1.478664755821228,-4.67982816696167,8.494049072265625
1700935738117817300,15.2258173828125,1.47847318649292,-4.682124137878418,8.492816925048828
1700935738134807000,15.24280712890625,1.4775049686431885,-4.686557769775391,8.490541458129883
1700935738151803000,15.259802978515625,1.476776123046875,-4.693102836608887,8.487051963806152
1700935738168793300,15.27679345703125,1.477098822593689,-4.7004570960998535,8.482925415039062
1700935738185781800,15.29378173828125,1.4782016277313232,-4.707437038421631,8.478860855102539
1700935738202779600,15.310779541015625,1.479259967803955,-4.712347984313965,8.475948333740234
1700935738219768300,15.327768310546874,1.4799385070800781,-4.715404987335205,8.474127769470215
1700935738236760600,15.344760498046876,1.4786591529846191,-4.717482566833496,8.473196029663086
1700935738253752000,15.361751953125,1.4749242067337036,-4.7192230224609375,8.47287654876709
1700935738270744000,15.378744140625,1.4705464839935303,-4.721632480621338,8.472295761108398
1700935738287735300,15.3957353515625,1.468311071395874,-4.725146770477295,8.470725059509277
1700935738304725200,15.412725341796875,1.4689115285873413,-4.729422569274902,8.468234062194824
1700935738321720000,15.429719970703125,1.4704049825668335,-4.732452869415283,8.466279983520508
1700935738338713000,15.446713134765625,1.472028374671936,-4.734431266784668,8.464892387390137
1700935738355702800,15.463702880859374,1.472137212753296,-4.7365827560424805,8.46367073059082
1700935738372695300,15.4806953125,1.4699798822402954,-4.741087436676025,8.46152400970459
1700935738389686500,15.4976865234375,1.4662870168685913,-4.748521327972412,8.457993507385254
1700935738406678500,15.514678466796875,1.4631763696670532,-4.755851745605469,8.454413414001465
1700935738423670300,15.531670166015624,1.462056279182434,-4.760527610778809,8.45197582244873
1700935738440662500,15.54866259765625,1.463402271270752,-4.761661529541016,8.451104164123535
1700935738457654300,15.565654296875,1.4666790962219238,-4.761418342590332,8.450672149658203
1700935738474646000,15.58264599609375,1.4704786539077759,-4.761948585510254,8.449713706970215
1700935738491637200,15.59963720703125,1.47305166721344,-4.764072895050049,8.448066711425781
1700935738508629200,15.616629150390626,1.4731659889221191,-4.766757488250732,8.446534156799316
1700935738525622300,15.633622314453126,1.4718071222305298,-4.769489288330078,8.445226669311523
1700935738542613200,15.65061328125,1.4708774089813232,-4.772575855255127,8.443646430969238
1700935738559605000,15.66760498046875,1.4719293117523193,-4.775378227233887,8.441878318786621
1700935738576597200,15.68459716796875,1.4715468883514404,-4.776374816894531,8.441380500793457
1700935738593588700,15.701588623046876,1.4685800075531006,-4.775975704193115,8.442124366760254
1700935738610580500,15.71858056640625,1.4652518033981323,-4.775791168212891,8.442806243896484
1700935738627572000,15.735572021484375,1.4636011123657227,-4.777156829833984,8.442319869995117
1700935738644564500,15.752564453125,1.4620357751846313,-4.778438091278076,8.441864967346191
1700935738661561300,15.769561279296875,1.4614075422286987,-4.778134822845459,8.442148208618164
1700935738678548000,15.7865478515625,1.4630765914916992,-4.775570392608643,8.443307876586914
1700935738695539500,15.80353955078125,1.465916633605957,-4.771819114685059,8.44493579864502
1700935738712532000,15.820531982421874,1.468532919883728,-4.7673797607421875,8.446990013122559
1700935738729523200,15.837523193359376,1.4707777500152588,-4.765578746795654,8.447614669799805
1700935738746510800,15.8545107421875,1.4723912477493286,-4.765639305114746,8.44729995727539
1700935738763506700,15.871506591796875,1.472309947013855,-4.765780925750732,8.447233200073242
1700935738780488400,15.888488525390626,1.471498966217041,-4.76685094833374,8.446769714355469
1700935738797490700,15.90549072265625,1.4717401266098022,-4.767410755157471,8.446413040161133
1700935738814482700,15.922482666015625,1.4719702005386353,-4.765715599060059,8.447328567504883
1700935738831474200,15.93947412109375,1.4711664915084839,-4.763666152954102,8.448625564575195
1700935738848466700,15.956466796875,1.4708369970321655,-4.764389514923096,8.448274612426758
1700935738865458200,15.973458251953126,1.4699000120162964,-4.767335891723633,8.446775436401367
1700935738882449700,15.99044970703125,1.4683897495269775,-4.7719902992248535,8.444408416748047
1700935738899428600,16.0074287109375,1.4654464721679688,-4.777149200439453,8.442004203796387
1700935738916425700,16.02442578125,1.4619107246398926,-4.781455039978027,8.440179824829102
1700935738933427200,16.04142724609375,1.4604321718215942,-4.7863640785217285,8.437651634216309
1700935738950417400,16.05841748046875,1.4621986150741577,-4.792096138000488,8.43409252166748
1700935738967406300,16.07540625,1.4633766412734985,-4.7977447509765625,8.43067455291748
1700935738984403500,16.092403564453125,1.4631444215774536,-4.803371429443359,8.427511215209961
1700935739001392600,16.109392578125,1.4612668752670288,-4.807624340057373,8.425411224365234
1700935739018384400,16.12638427734375,1.4582903385162354,-4.810211181640625,8.424450874328613
1700935739035376000,16.143376220703125,1.4548866748809814,-4.809746265411377,8.425305366516113
1700935739052368400,16.160368408203126,1.450943112373352,-4.808499813079834,8.42669677734375
1700935739069360000,16.177360107421876,1.4468567371368408,-4.808995723724365,8.427116394042969
1700935739086352000,16.194351806640626,1.4446061849594116,-4.8118462562561035,8.425874710083008
1700935739103340800,16.2113408203125,1.4416977167129517,-4.814718723297119,8.424732208251953
1700935739120338700,16.228338623046874,1.43729567527771,-4.81571626663208,8.42491340637207
1700935739137326800,16.245326904296874,1.432291030883789,-4.815300464630127,8.426004409790039
1700935739154320000,16.26231982421875,1.4281474351882935,-4.813502788543701,8.427735328674316
1700935739171321900,16.27932177734375,1.4229480028152466,-4.81043815612793,8.430362701416016
1700935739188303400,16.296303466796875,1.4178398847579956,-4.806552886962891,8.433438301086426
1700935739205294600,16.313294677734376,1.4141845703125,-4.804009437561035,8.435502052307129
1700935739222286600,16.33028662109375,1.4110667705535889,-4.802908897399902,8.436651229858398
1700935739239278000,16.347278076171875,1.4064972400665283,-4.802613258361816,8.437581062316895
1700935739256266500,16.3642666015625,1.402428388595581,-4.8022942543029785,8.438440322875977
1700935739273261800,16.38126171875,1.3998521566390991,-4.801292896270752,8.43943977355957
1700935739290253800,16.39825390625,1.398797631263733,-4.799206733703613,8.44079875946045
1700935739307245600,16.41524560546875,1.396615982055664,-4.7971343994140625,8.442338943481445
1700935739324237800,16.43223779296875,1.392134666442871,-4.7961602210998535,8.443632125854492
1700935739341229600,16.4492294921875,1.3890522718429565,-4.797916412353516,8.443143844604492
1700935739358221300,16.46622119140625,1.3888137340545654,-4.801563739776611,8.441108703613281
1700935739375212800,16.483212890625,1.387463092803955,-4.805393695831299,8.4391508102417
1700935739392205000,16.500205078125,1.3850224018096924,-4.808335304260254,8.437874794006348
1700935739409196800,16.51719677734375,1.3830299377441406,-4.809504508972168,8.437535285949707
1700935739426188500,16.5341884765625,1.3828296661376953,-4.808073043823242,8.438384056091309
1700935739443180300,16.55118017578125,1.384203553199768,-4.805691719055176,8.439515113830566
1700935739460172500,16.568172607421875,1.3878328800201416,-4.803340911865234,8.440258026123047
1700935739477163800,16.585163818359376,1.3910976648330688,-4.800431728363037,8.441375732421875
1700935739494155300,16.6021552734375,1.3914169073104858,-4.797492504119873,8.4429931640625
1700935739511148300,16.619148193359376,1.3894031047821045,-4.7973785400390625,8.443389892578125
1700935739528140000,16.63614013671875,1.3869810104370117,-4.800321102142334,8.442115783691406
1700935739545131500,16.653131591796875,1.3846330642700195,-4.805176734924316,8.439740180969238
1700935739562128000,16.6701279296875,1.381864309310913,-4.8099799156188965,8.437456130981445
1700935739579114800,16.68711474609375,1.378127098083496,-4.81240701675415,8.43668270111084
1700935739596107000,16.70410693359375,1.3737478256225586,-4.810212135314941,8.43864917755127
1700935739613098800,16.7210986328125,1.3699140548706055,-4.804835796356201,8.442333221435547
1700935739630098700,16.7380986328125,1.3665872812271118,-4.799291133880615,8.446025848388672
1700935739647082500,16.75508251953125,1.3637022972106934,-4.796256065368652,8.448216438293457
1700935739664074500,16.772074462890625,1.361754298210144,-4.795259475708008,8.449097633361816
1700935739681066200,16.789066162109375,1.3611955642700195,-4.794361114501953,8.449695587158203
1700935739698057700,16.8060576171875,1.3614388704299927,-4.793043613433838,8.450403213500977
1700935739715049700,16.8230498046875,1.3620212078094482,-4.790432929992676,8.451790809631348
1700935739732042200,16.840042236328124,1.3627532720565796,-4.787306308746338,8.45344352722168
1700935739749033500,16.857033447265625,1.364924430847168,-4.785415172576904,8.454164505004883
1700935739766025500,16.874025390625,1.3679643869400024,-4.785311698913574,8.453731536865234
1700935739783006700,16.8910068359375,1.370841145515442,-4.7869415283203125,8.45234203338623
1700935739800009200,16.90800927734375,1.373355507850647,-4.789449691772461,8.450514793395996
1700935739817000700,16.925000732421875,1.3768874406814575,-4.790106296539307,8.449566841125488
1700935739833992700,16.94199267578125,1.3816792964935303,-4.788745403289795,8.449556350708008
1700935739850984200,16.958984130859374,1.3872215747833252,-4.787243843078613,8.449498176574707
1700935739867976400,16.9759765625,1.3925527334213257,-4.786302089691162,8.4491548538208
1700935739884968400,16.992968505859373,1.3962078094482422,-4.785173416137695,8.449191093444824
1700935739901960200,17.009960205078126,1.3979281187057495,-4.785109996795654,8.448943138122559
1700935739918951400,17.026951416015624,1.3985975980758667,-4.7864460945129395,8.448075294494629
1700935739935944000,17.04394384765625,1.400772213935852,-4.788740158081055,8.446414947509766
1700935739952932000,17.06093212890625,1.4042294025421143,-4.790961742401123,8.444581985473633
1700935739969927400,17.077927490234377,1.4073432683944702,-4.791450023651123,8.443784713745117
1700935739986904300,17.094904296875,1.4090948104858398,-4.78997802734375,8.444328308105469
1700935740003908900,17.111908935546875,1.4107048511505127,-4.789440155029297,8.444364547729492
1700935740020905700,17.12890576171875,1.4129338264465332,-4.791187286376953,8.442999839782715
1700935740037895000,17.14589501953125,1.4138691425323486,-4.794088363647461,8.441197395324707
1700935740054886100,17.16288623046875,1.4130505323410034,-4.7965087890625,8.439959526062012
1700935740071879000,17.17987890625,1.4125841856002808,-4.798459053039551,8.43892765045166
1700935740088870700,17.19687060546875,1.4133533239364624,-4.800734519958496,8.437504768371582
1700935740105862100,17.213862060546877,1.4145350456237793,-4.803340435028076,8.435824394226074
1700935740122853600,17.230853515625,1.4151042699813843,-4.80497932434082,8.434795379638672
1700935740139843300,17.24784326171875,1.4144690036773682,-4.804481506347656,8.435184478759766
1700935740156848600,17.2648486328125,1.413020372390747,-4.801651954650879,8.437040328979492
1700935740173829400,17.281829345703127,1.4103922843933105,-4.796576976776123,8.440364837646484
1700935740190820900,17.29882080078125,1.4097099304199219,-4.791629314422607,8.44328784942627
1700935740207813400,17.3158134765625,1.4113153219223022,-4.788532257080078,8.444777488708496
1700935740224804900,17.332804931640624,1.4149798154830933,-4.787473678588867,8.444764137268066
1700935740241786400,17.349786376953126,1.4169061183929443,-4.787901401519775,8.444198608398438
1700935740258788400,17.366788330078126,1.41825532913208,-4.789552688598633,8.443036079406738
1700935740275780900,17.38378076171875,1.4216722249984741,-4.790465354919434,8.441944122314453
1700935740292772600,17.400772705078126,1.4251790046691895,-4.790971755981445,8.441064834594727
1700935740309764000,17.41776416015625,1.4306976795196533,-4.79175329208374,8.439687728881836
1700935740326755800,17.434755859375,1.43795645236969,-4.791601181030273,8.4385404586792
1700935740343748400,17.451748291015626,1.4461653232574463,-4.790444850921631,8.437793731689453
1700935740360729000,17.46872900390625,1.4539543390274048,-4.790761470794678,8.436274528503418
1700935740377728800,17.485728759765625,1.4597676992416382,-4.791473388671875,8.434867858886719
1700935740394726100,17.50272607421875,1.4626152515411377,-4.791213035583496,8.434521675109863
1700935740411715600,17.519715576171876,1.4645652770996094,-4.789567470550537,8.4351167678833
1700935740428707300,17.536707275390626,1.4681771993637085,-4.787131309509277,8.435873031616211
1700935740445699000,17.553698974609375,1.4734212160110474,-4.7841477394104,8.436651229858398
1700935740462679300,17.57067919921875,1.4778707027435303,-4.779598712921143,8.438450813293457
1700935740479683000,17.58768310546875,1.480608344078064,-4.775403022766113,8.440346717834473
1700935740496674600,17.604674560546876,1.4826887845993042,-4.7725653648376465,8.441585540771484
1700935740513666300,17.621666259765625,1.4839210510253906,-4.769368648529053,8.44317626953125
1700935740530658800,17.638658935546875,1.484123945236206,-4.763955116271973,8.446196556091309
1700935740547649800,17.65564990234375,1.4845253229141235,-4.7573628425598145,8.449840545654297
1700935740564641800,17.672641845703126,1.486579179763794,-4.751267433166504,8.45290756225586
1700935740581633800,17.6896337890625,1.489128589630127,-4.745862007141113,8.455496788024902
1700935740598621700,17.70662158203125,1.489757776260376,-4.742875576019287,8.457059860229492
1700935740615621000,17.72362109375,1.4876316785812378,-4.741929054260254,8.457964897155762
1700935740632608500,17.7406083984375,1.4852585792541504,-4.742326259613037,8.458159446716309
1700935740649601000,17.75760107421875,1.4819269180297852,-4.7436909675598145,8.457979202270508
1700935740666592800,17.7745927734375,1.4778791666030884,-4.745846748352051,8.457478523254395
1700935740683585300,17.791585205078125,1.475040316581726,-4.74638557434082,8.457672119140625
1700935740700576500,17.808576416015626,1.4732708930969238,-4.7445597648620605,8.459003448486328
1700935740717568300,17.825568359375,1.473807454109192,-4.739680290222168,8.461645126342773
1700935740734560000,17.84256005859375,1.475313663482666,-4.732670307159424,8.465304374694824
1700935740751552500,17.859552490234375,1.4774963855743408,-4.725008010864258,8.46920394897461
1700935740768544300,17.876544189453124,1.4791994094848633,-4.719657897949219,8.471888542175293
1700935740785536000,17.893535888671874,1.4801315069198608,-4.719840049743652,8.471625328063965
1700935740802527500,17.910527587890623,1.4802154302597046,-4.723048210144043,8.46982192993164
1700935740819519700,17.927519775390625,1.4805773496627808,-4.726534366607666,8.467814445495605
1700935740836511200,17.94451123046875,1.4826964139938354,-4.730403900146484,8.46528148651123
1700935740853493200,17.9614931640625,1.4856023788452148,-4.733956813812256,8.462785720825195
1700935740870495000,17.978494873046873,1.488266110420227,-4.737171173095703,8.46052074432373
1700935740887487200,17.9954873046875,1.4907821416854858,-4.739580154418945,8.458727836608887
1700935740904478700,18.012478759765624,1.4945533275604248,-4.740980625152588,8.457275390625
1700935740921466400,18.02946630859375,1.4980429410934448,-4.741665363311768,8.45627498626709
1700935740938466600,18.046466552734376,1.5001105070114136,-4.7422380447387695,8.455587387084961
1700935740955454500,18.063454345703125,1.5011297464370728,-4.74266242980957,8.455167770385742
1700935740972446000,18.080446044921874,1.500535011291504,-4.742714881896973,8.455244064331055
1700935740989438200,18.097438232421876,1.4985636472702026,-4.743740558624268,8.4550199508667
1700935741006419200,18.114419189453123,1.4961268901824951,-4.744920253753662,8.454787254333496
1700935741023422000,18.131421875,1.4953988790512085,-4.745367527008057,8.454666137695312
1700935741040415700,18.148415771484373,1.4973223209381104,-4.745417594909668,8.45429801940918
1700935741057403100,18.165403076171874,1.4993419647216797,-4.744060039520264,8.454703330993652
1700935741074396700,18.182396728515624,1.498458981513977,-4.741293430328369,8.45641040802002
1700935741091389700,18.1993896484375,1.4966309070587158,-4.737928867340088,8.45862102508545
1700935741108381000,18.216380859375,1.4960575103759766,-4.734527587890625,8.460625648498535
1700935741125372700,18.23337255859375,1.4960025548934937,-4.731567859649658,8.46229076385498
1700935741142364400,18.250364501953126,1.4956949949264526,-4.729734897613525,8.463370323181152
1700935741159356700,18.267356689453123,1.4963622093200684,-4.728759288787842,8.463796615600586
1700935741176348400,18.284348388671877,1.4973887205123901,-4.72747278213501,8.464333534240723
1700935741193340200,18.301340087890626,1.4976097345352173,-4.726698398590088,8.464726448059082
1700935741210331600,18.31833154296875,1.4975956678390503,-4.727914810180664,8.464049339294434
1700935741227322600,18.335322509765625,1.4973869323730469,-4.732072830200195,8.461764335632324
1700935741244317400,18.3523173828125,1.4959996938705444,-4.739275932312012,8.457976341247559
1700935741261297200,18.369297119140626,1.4948159456253052,-4.746838092803955,8.453943252563477
1700935741278299100,18.386299072265626,1.4961081743240356,-4.751672267913818,8.451000213623047
1700935741295289300,18.403289306640627,1.4984803199768066,-4.7525315284729,8.450095176696777
1700935741312285400,18.420285400390625,1.500381588935852,-4.750445365905762,8.450932502746582
1700935741329275100,18.437275146484374,1.5014898777008057,-4.748985767364502,8.451555252075195
1700935741346268700,18.4542685546875,1.5038533210754395,-4.750161647796631,8.45047378540039
1700935741363256800,18.4712568359375,1.507384181022644,-4.753595352172852,8.447914123535156
1700935741380239600,18.488239501953124,1.510893702507019,-4.756246089935303,8.445793151855469
1700935741397242000,18.5052421875,1.5138731002807617,-4.758390426635742,8.444051742553711
1700935741414233900,18.52223388671875,1.5160006284713745,-4.760519504547119,8.442471504211426
1700935741431226400,18.539226318359376,1.516079306602478,-4.761892318725586,8.441681861877441
1700935741448218000,18.556218017578125,1.5149306058883667,-4.762969017028809,8.44128131866455
1700935741465209600,18.573209716796875,1.5131752490997314,-4.763104438781738,8.441520690917969
1700935741482198800,18.59019873046875,1.5117242336273193,-4.7627177238464355,8.441998481750488
1700935741499196000,18.60719580078125,1.5116535425186157,-4.761594772338867,8.442643165588379
1700935741516175400,18.62417529296875,1.5128422975540161,-4.75924825668335,8.443753242492676
1700935741533177000,18.641177001953125,1.5139026641845703,-4.756687164306641,8.44500732421875
1700935741550168600,18.65816845703125,1.5142546892166138,-4.7548065185546875,8.446002960205078
1700935741567161000,18.6751611328125,1.51334810256958,-4.7527570724487305,8.447318077087402
1700935741584152600,18.692152587890625,1.5112141370773315,-4.750825881958008,8.448786735534668
1700935741601144300,18.709144287109375,1.5092442035675049,-4.749207019805908,8.450048446655273
1700935741618135800,18.7261357421875,1.5082601308822632,-4.746717929840088,8.45162296295166
1700935741635128600,18.743128662109374,1.5075592994689941,-4.743980884552002,8.453285217285156
1700935741652118500,18.760118408203127,1.5059641599655151,-4.7417683601379395,8.45481014251709
1700935741669111000,18.777111083984376,1.5031280517578125,-4.740520477294922,8.456014633178711
1700935741686095400,18.794095458984376,1.5010071992874146,-4.7409234046936035,8.45616626739502
1700935741703093500,18.811093505859375,1.4994120597839355,-4.741734504699707,8.45599365234375
1700935741720091600,18.828091552734374,1.4971868991851807,-4.742554187774658,8.455928802490234
1700935741737077500,18.845077392578126,1.496116042137146,-4.742956638336182,8.455892562866211
1700935741754070800,18.86207080078125,1.4978201389312744,-4.741916656494141,8.456174850463867
1700935741771063300,18.879063232421874,1.4982788562774658,-4.739031791687012,8.457709312438965
1700935741788054800,18.8960546875,1.4952811002731323,-4.735812664031982,8.460042953491211
1700935741805046800,18.913046875,1.4918694496154785,-4.73587703704834,8.460611343383789
1700935741822038000,18.9300380859375,1.4895472526550293,-4.740520477294922,8.458417892456055
1700935741839030800,18.94703076171875,1.4860190153121948,-4.747788906097412,8.454961776733398
1700935741856022300,18.964022216796874,1.4810155630111694,-4.754090309143066,8.452298164367676
1700935741873014300,18.98101416015625,1.476653814315796,-4.757988929748535,8.450867652893066
1700935741890005500,18.998005615234376,1.473789930343628,-4.757880687713623,8.451427459716797
1700935741906997800,19.014997802734374,1.470818042755127,-4.753727912902832,8.454282760620117
1700935741923989500,19.031989501953124,1.4673857688903809,-4.7490644454956055,8.457499504089355
1700935741940981800,19.048981689453125,1.4641238451004028,-4.747501850128174,8.458941459655762
1700935741957973200,19.06597314453125,1.4605742692947388,-4.748902797698975,8.458768844604492
1700935741974965500,19.082965576171876,1.4552083015441895,-4.750859260559082,8.45859432220459
1700935741991957000,19.09995703125,1.4493920803070068,-4.75262451171875,8.458600997924805
1700935742008948700,19.11694873046875,1.4453744888305664,-4.752599716186523,8.459303855895996
1700935742025940200,19.133940185546876,1.4446301460266113,-4.750368595123291,8.460683822631836
1700935742042932700,19.1509326171875,1.4482918977737427,-4.7477240562438965,8.461540222167969
1700935742059924500,19.167924560546876,1.4512132406234741,-4.745927810668945,8.462048530578613
1700935742076916500,19.18491650390625,1.4496368169784546,-4.746292591094971,8.462115287780762
1700935742093907000,19.201906982421875,1.4451838731765747,-4.749300479888916,8.461188316345215
1700935742110904000,19.218904052734374,1.4413050413131714,-4.752859592437744,8.459850311279297
1700935742127881700,19.2358818359375,1.439795970916748,-4.7562713623046875,8.45819091796875
1700935742144883700,19.2528837890625,1.4395254850387573,-4.759562969207764,8.45638370513916
1700935742161876700,19.269876708984373,1.4398374557495117,-4.7618536949157715,8.455042839050293
1700935742178867700,19.28686767578125,1.4404513835906982,-4.763489246368408,8.454015731811523
1700935742195859200,19.303859130859376,1.4407347440719604,-4.764142036437988,8.453600883483887
1700935742212851200,19.320851318359374,1.4401201009750366,-4.762712478637695,8.454509735107422
1700935742229842700,19.3378427734375,1.4384186267852783,-4.759775161743164,8.456454277038574
1700935742246835200,19.354835205078125,1.4382634162902832,-4.757481575012207,8.457769393920898
1700935742263829800,19.371829833984375,1.4392898082733154,-4.75579309463501,8.458544731140137
1700935742280818700,19.388818603515624,1.4393360614776611,-4.755004405975342,8.458980560302734
1700935742297807400,19.405807373046876,1.4372082948684692,-4.756903648376465,8.458274841308594
1700935742314805000,19.422804931640623,1.4353251457214355,-4.759648323059082,8.457050323486328
1700935742331790600,19.43979052734375,1.4348267316818237,-4.762021541595459,8.455799102783203
1700935742348786000,19.456785888671874,1.4353526830673218,-4.764222621917725,8.454469680786133
1700935742365781000,19.473781005859376,1.4374585151672363,-4.7660932540893555,8.453059196472168
1700935742382766600,19.4907666015625,1.4412665367126465,-4.768285274505615,8.451173782348633
1700935742399761400,19.507761474609374,1.445076584815979,-4.771303653717041,8.448819160461426
1700935742416753200,19.524753173828124,1.4469640254974365,-4.773497104644775,8.447256088256836
1700935742433745000,19.541744873046873,1.4474765062332153,-4.773630619049072,8.447092056274414
1700935742450737400,19.5587373046875,1.447359561920166,-4.77110481262207,8.448540687561035
1700935742467729000,19.57572900390625,1.4474753141403198,-4.767131328582764,8.450762748718262
1700935742484720600,19.592720703125,1.4502291679382324,-4.76431131362915,8.45188045501709
1700935742501712400,19.60971240234375,1.4524273872375488,-4.763553619384766,8.45193099975586
1700935742518704400,19.626704345703125,1.4537570476531982,-4.76423454284668,8.451318740844727
1700935742535696100,19.643696044921874,1.4542970657348633,-4.764853000640869,8.450876235961914
1700935742552674000,19.660674072265625,1.453420877456665,-4.765091419219971,8.450894355773926
1700935742569683700,19.67768359375,1.4551092386245728,-4.764912128448486,8.450703620910645
1700935742586672000,19.694672119140623,1.4582769870758057,-4.764257907867432,8.45052719116211
1700935742603663600,19.71166357421875,1.459429144859314,-4.763173580169678,8.45093822479248
1700935742620655400,19.7286552734375,1.4615055322647095,-4.7629828453063965,8.45068645477295
1700935742637647400,19.7456474609375,1.4641045331954956,-4.763150215148926,8.450143814086914
1700935742654639600,19.7626396484375,1.465157389640808,-4.762816905975342,8.45014762878418
1700935742671631000,19.779631103515626,1.4659554958343506,-4.7619242668151855,8.45051383972168
1700935742688622800,19.796622802734376,1.4649124145507812,-4.761196613311768,8.451104164123535
1700935742705617000,19.813616943359374,1.4629555940628052,-4.7608323097229,8.451648712158203
1700935742722602000,19.83060205078125,1.4619700908660889,-4.759912014007568,8.452336311340332
1700935742739593000,19.847593017578124,1.4637452363967896,-4.7591962814331055,8.452432632446289
1700935742756590300,19.86459033203125,1.4664469957351685,-4.758306980133057,8.452465057373047
1700935742773581800,19.881581787109376,1.4677398204803467,-4.755879878997803,8.453607559204102
1700935742790574300,19.89857421875,1.4683054685592651,-4.752635478973389,8.455331802368164
1700935742807566000,19.915566162109375,1.46942937374115,-4.7497334480285645,8.456768989562988
1700935742824557800,19.932557861328124,1.4714223146438599,-4.747479438781738,8.457688331604004
1700935742841549300,19.94954931640625,1.4735010862350464,-4.745768070220947,8.458285331726074
1700935742858539300,19.966539306640627,1.4761857986450195,-4.745499134063721,8.457968711853027
1700935742875536100,19.9835361328125,1.4795725345611572,-4.745872974395752,8.457167625427246
1700935742892525000,20.000525146484375,1.483370304107666,-4.744847774505615,8.457077026367188
1700935742909516500,20.0175166015625,1.4863040447235107,-4.743412017822266,8.457365989685059
1700935742926509000,20.034509033203125,1.4888453483581543,-4.744095325469971,8.456537246704102
1700935742943500500,20.05150048828125,1.4900732040405273,-4.747890949249268,8.45418930053711
1700935742960473900,20.068473876953124,1.4893373250961304,-4.754927158355713,8.45036506652832
1700935742977484000,20.085484130859374,1.4898028373718262,-4.7639689445495605,8.445188522338867
1700935742994476800,20.102476806640624,1.4918770790100098,-4.770970344543457,8.440869331359863
1700935743011468300,20.11946826171875,1.4937458038330078,-4.773625373840332,8.439035415649414
1700935743028459800,20.136459716796875,1.4957730770111084,-4.771307945251465,8.439988136291504
1700935743045451800,20.15345166015625,1.4978652000427246,-4.766143798828125,8.442534446716309
1700935743062439200,20.170439208984376,1.4987095594406128,-4.761265277862549,8.445137023925781
1700935743079440100,20.187440185546876,1.4988653659820557,-4.758789539337158,8.446505546569824
1700935743096427300,20.20442724609375,1.4999152421951294,-4.758787631988525,8.446319580078125
1700935743113419000,20.2214189453125,1.500272512435913,-4.760415554046631,8.445338249206543
1700935743130400800,20.23840087890625,1.4983124732971191,-4.763157367706299,8.44413948059082
1700935743147403000,20.255403076171874,1.4962913990020752,-4.764817237854004,8.443563461303711
1700935743164397800,20.272397705078124,1.496222734451294,-4.766051769256592,8.442879676818848
1700935743181383400,20.289383544921876,1.4975489377975464,-4.767303943634033,8.441936492919922
1700935743198378800,20.306378662109374,1.499177098274231,-4.7681193351745605,8.44118595123291
1700935743215370500,20.32337060546875,1.5013846158981323,-4.769719123840332,8.43989086151123
1700935743232362200,20.3403623046875,1.5056554079055786,-4.771371364593506,8.438193321228027
1700935743249354000,20.35735400390625,1.5093971490859985,-4.772201061248779,8.437058448791504
1700935743266346200,20.37434619140625,1.5108542442321777,-4.772326946258545,8.436725616455078
1700935743283338000,20.391337890625,1.5113474130630493,-4.771572589874268,8.437063217163086
1700935743300330000,20.408330078125,1.512819528579712,-4.769258499145508,8.43810749053955
1700935743317321200,20.4253212890625,1.5158530473709106,-4.767574310302734,8.438515663146973
1700935743334313700,20.442313720703126,1.5195385217666626,-4.7652788162231445,8.439149856567383
1700935743351305000,20.459304931640624,1.521109938621521,-4.762587547302246,8.440384864807129
1700935743368297200,20.476297119140625,1.520644187927246,-4.761630058288574,8.441008567810059
1700935743385278700,20.49327880859375,1.5214011669158936,-4.762451648712158,8.440409660339355
1700935743402281000,20.510281005859376,1.5227346420288086,-4.762815952301025,8.439964294433594
1700935743419272700,20.527272705078126,1.5222922563552856,-4.762086391448975,8.440455436706543
1700935743436264700,20.5442646484375,1.5221312046051025,-4.760934829711914,8.441134452819824
1700935743453256000,20.561255859375,1.5232664346694946,-4.758399486541748,8.44235897064209
1700935743470248700,20.578248779296874,1.524274468421936,-4.753343105316162,8.445022583007812
1700935743487240000,20.595239990234376,1.5249276161193848,-4.750301361083984,8.44661808013916
1700935743504229400,20.6122294921875,1.529086709022522,-4.752313137054443,8.444735527038574
1700935743521224200,20.62922412109375,1.5336157083511353,-4.7586588859558105,8.440338134765625
1700935743538217700,20.6462177734375,1.534263014793396,-4.767383575439453,8.435294151306152
1700935743555207400,20.66320751953125,1.5325376987457275,-4.775778293609619,8.430858612060547
1700935743572199200,20.68019921875,1.529360055923462,-4.780272483825684,8.428890228271484
1700935743589191200,20.697191162109377,1.5276445150375366,-4.781168460845947,8.428691864013672
1700935743606183700,20.71418359375,1.5301134586334229,-4.781031608581543,8.428322792053223
1700935743623175200,20.731175048828124,1.5338395833969116,-4.77978515625,8.428351402282715
1700935743640163000,20.7481630859375,1.5357428789138794,-4.778923034667969,8.428494453430176
1700935743657158100,20.765158203125,1.536775827407837,-4.780212879180908,8.42757511138916
1700935743674151200,20.782151123046877,1.5383352041244507,-4.7826409339904785,8.425910949707031
1700935743691142700,20.799142578125,1.5403063297271729,-4.785384654998779,8.423993110656738
1700935743708134100,20.816134033203124,1.540737271308899,-4.7872490882873535,8.422856330871582
1700935743725126100,20.833126220703125,1.538879632949829,-4.788476943969727,8.42249584197998
1700935743742118100,20.8501181640625,1.5362591743469238,-4.79052209854126,8.421813011169434
1700935743759108600,20.867108642578124,1.5340545177459717,-4.792891025543213,8.420866012573242
1700935743776091100,20.884091064453123,1.5330642461776733,-4.795250415802002,8.419703483581543
1700935743793093400,20.90109326171875,1.5331403017044067,-4.797285079956055,8.418530464172363
1700935743810083300,20.918083251953124,1.5334466695785522,-4.797484874725342,8.418360710144043
1700935743827077400,20.935077392578126,1.5321121215820312,-4.795447826385498,8.41976547241211
1700935743844069000,20.952069091796876,1.5302929878234863,-4.792757987976074,8.421627044677734
1700935743861059600,20.9690595703125,1.5286396741867065,-4.790587902069092,8.423161506652832
1700935743878054100,20.98605419921875,1.5267651081085205,-4.790099143981934,8.423778533935547
1700935743895044900,21.003044921875,1.525872826576233,-4.790740966796875,8.423576354980469
1700935743912036600,21.02003662109375,1.525757074356079,-4.792190074920654,8.422772407531738
1700935743929028400,21.0370283203125,1.5274184942245483,-4.793539047241211,8.421703338623047
1700935743946020600,21.0540205078125,1.528799057006836,-4.793582916259766,8.421429634094238
1700935743963001600,21.071001708984376,1.5298702716827393,-4.791934967041016,8.422171592712402
1700935743979989800,21.08798974609375,1.5308064222335815,-4.789012908935547,8.423663139343262
1700935743996999400,21.10499951171875,1.5297386646270752,-4.78679895401001,8.425116539001465
1700935744013988000,21.121988037109375,1.529084324836731,-4.785775184631348,8.425817489624023
1700935744030979600,21.1389794921875,1.5277246236801147,-4.784633636474609,8.42671012878418
1700935744047969800,21.1559697265625,1.5256479978561401,-4.784121513366699,8.42737865447998
1700935744064951000,21.172950927734377,1.525537133216858,-4.78503942489624,8.426877975463867
1700935744081955300,21.189955322265625,1.5257810354232788,-4.786599159240723,8.425947189331055
1700935744098947000,21.206947021484375,1.5258830785751343,-4.788581371307373,8.424802780151367
1700935744115939000,21.22393896484375,1.5251065492630005,-4.789063930511475,8.424667358398438
1700935744132930600,21.2409306640625,1.524487018585205,-4.7864670753479,8.426255226135254
1700935744149923000,21.257923095703124,1.523826003074646,-4.781622409820557,8.42912483215332
1700935744166914300,21.274914306640625,1.5240057706832886,-4.776417255401611,8.432043075561523
1700935744183913200,21.291913330078124,1.523789405822754,-4.771663188934326,8.434773445129395
1700935744200898000,21.30889794921875,1.5232058763504028,-4.768692970275879,8.436559677124023
1700935744217890300,21.325890380859374,1.5223945379257202,-4.767273902893066,8.437506675720215
1700935744234881800,21.3428818359375,1.5204135179519653,-4.766845226287842,8.43810749053955
1700935744251873800,21.359873779296876,1.5171223878860474,-4.7683000564575195,8.437877655029297
1700935744268854800,21.376854736328124,1.5137497186660767,-4.772130489349365,8.436317443847656
1700935744285857800,21.39385791015625,1.5098285675048828,-4.776914119720459,8.434311866760254
1700935744302852400,21.410852294921874,1.5061296224594116,-4.781307220458984,8.432483673095703
1700935744319838500,21.42783837890625,1.5029672384262085,-4.784950256347656,8.430981636047363
1700935744336832800,21.444832763671876,1.501250147819519,-4.786877632141113,8.430192947387695
1700935744353825000,21.461824951171874,1.4998699426651,-4.787967205047607,8.429821014404297
1700935744370816500,21.47881640625,1.498228907585144,-4.789698600769043,8.429128646850586
1700935744387808800,21.495808837890625,1.4963937997817993,-4.793377876281738,8.427361488342285
1700935744404800300,21.51280029296875,1.4946603775024414,-4.7982072830200195,8.424921989440918
1700935744421792800,21.529792724609376,1.4929865598678589,-4.804049015045166,8.421890258789062
1700935744438784300,21.5467841796875,1.492189884185791,-4.808550834655762,8.419461250305176
1700935744455776300,21.5637763671875,1.4925448894500732,-4.810972690582275,8.418014526367188
1700935744472767500,21.580767578125,1.4942820072174072,-4.812326908111572,8.416933059692383
1700935744489760000,21.597760009765626,1.4961724281311035,-4.8144731521606445,8.415369987487793
1700935744506751000,21.6147509765625,1.4965791702270508,-4.816953182220459,8.413877487182617
1700935744523743700,21.63174365234375,1.4953713417053223,-4.8205695152282715,8.412019729614258
1700935744540735200,21.6487353515625,1.4944512844085693,-4.824710369110107,8.409810066223145
1700935744557717200,21.66571728515625,1.4916729927062988,-4.826755046844482,8.409130096435547
1700935744574719200,21.68271923828125,1.4872586727142334,-4.825446128845215,8.410663604736328
1700935744591711200,21.699711181640627,1.4855141639709473,-4.82287073135376,8.41244888305664
1700935744608702500,21.716702392578124,1.4863380193710327,-4.82167387008667,8.412989616394043
1700935744625694700,21.73369482421875,1.4850691556930542,-4.822092056274414,8.412973403930664
1700935744642677800,21.750677734375,1.4800870418548584,-4.824806213378906,8.412294387817383
1700935744659676700,21.7676767578125,1.4726277589797974,-4.826972484588623,8.412362098693848
1700935744676672000,21.784672119140627,1.4662837982177734,-4.826320648193359,8.41384220123291
1700935744693663200,21.801663330078124,1.4621901512145996,-4.821510314941406,8.417312622070312
1700935744710649000,21.818649169921876,1.4588359594345093,-4.813711643218994,8.422356605529785
1700935744727645700,21.835645751953123,1.4551279544830322,-4.806594371795654,8.427062034606934
1700935744744637700,21.8526376953125,1.4530946016311646,-4.803416728973389,8.429224014282227
1700935744761630000,21.8696298828125,1.4513099193572998,-4.803587436676025,8.429433822631836
1700935744778621400,21.886621337890624,1.448845386505127,-4.804418087005615,8.429384231567383
1700935744795613200,21.90361328125,1.4454773664474487,-4.805469036102295,8.429363250732422
1700935744812605200,21.920605224609375,1.4458845853805542,-4.806727409362793,8.42857837677002
1700935744829596200,21.93759619140625,1.4482542276382446,-4.807620048522949,8.427661895751953
1700935744846591500,21.954591552734374,1.4498729705810547,-4.808767318725586,8.426728248596191
1700935744863580000,21.971579833984375,1.4500226974487305,-4.811821460723877,8.424958229064941
